fb_corr,fb_incorr,symbol2,symbol1,fb_late,pair,position,correct,block_01.thisRepN,block_01.thisTrialN,block_01.thisN,block_01.thisIndex,block_02.thisRepN,block_02.thisTrialN,block_02.thisN,block_02.thisIndex,block_03.thisRepN,block_03.thisTrialN,block_03.thisN,block_03.thisIndex,block_04.thisRepN,block_04.thisTrialN,block_04.thisN,block_04.thisIndex,mouse.x,mouse.y,mouse.leftButton,mouse.midButton,mouse.rightButton,buttonBox_2.keys,buttonBox_2.corr,buttonBox_2.rt,mouse_2.x,mouse_2.y,mouse_2.leftButton,mouse_2.midButton,mouse_2.rightButton,date,Participant,expName,Group,frameRate,
,,,,,,,,,,,,,,,,,,,,,,,,0.9921875,1.0,1,0,0,,,,,,,,,2016_Aug_31_0847,P10,PLC_L_D2S1,NHGX,60.0214400388,
stim/posf.jpg,stim/negf.jpg,stim/4.jpg,stim/6.jpg,stim/latef.jpg,AB,2,4,0,0,0,11,,,,,,,,,,,,,,,,,,None,0,,,,,,,2016_Aug_31_0847,P10,PLC_L_D2S1,NHGX,60.0214400388,
stim/posf.jpg,stim/negf.jpg,stim/4.jpg,stim/6.jpg,stim/latef.jpg,AB,2,4,0,1,1,16,,,,,,,,,,,,,,,,,,4,1,1.34954525455,,,,,,2016_Aug_31_0847,P10,PLC_L_D2S1,NHGX,60.0214400388,
stim/posf.jpg,stim/negf.jpg,stim/5.jpg,stim/2.jpg,stim/latef.jpg,CD,2,4,0,2,2,32,,,,,,,,,,,,,,,,,,2,0,1.28291539161,,,,,,2016_Aug_31_0847,P10,PLC_L_D2S1,NHGX,60.0214400388,
stim/posf.jpg,stim/negf.jpg,stim/1.jpg,stim/3.jpg,stim/latef.jpg,EF,1,2,0,3,3,42,,,,,,,,,,,,,,,,,,4,0,1.19959704062,,,,,,2016_Aug_31_0847,P10,PLC_L_D2S1,NHGX,60.0214400388,
stim/negf.jpg,stim/posf.jpg,stim/3.jpg,stim/1.jpg,stim/latef.jpg,EF,2,4,0,4,4,59,,,,,,,,,,,,,,,,,,4,1,1.0163361298,,,,,,2016_Aug_31_0847,P10,PLC_L_D2S1,NHGX,60.0214400388,
stim/posf.jpg,stim/negf.jpg,stim/5.jpg,stim/2.jpg,stim/latef.jpg,CD,2,4,0,5,5,30,,,,,,,,,,,,,,,,,,4,1,0.71640995782,,,,,,2016_Aug_31_0847,P10,PLC_L_D2S1,NHGX,60.0214400388,
stim/posf.jpg,stim/negf.jpg,stim/1.jpg,stim/3.jpg,stim/latef.jpg,EF,1,2,0,6,6,43,,,,,,,,,,,,,,,,,,4,0,1.18292365621,,,,,,2016_Aug_31_0847,P10,PLC_L_D2S1,NHGX,60.0214400388,
stim/negf.jpg,stim/posf.jpg,stim/6.jpg,stim/4.jpg,stim/latef.jpg,AB,1,2,0,7,7,9,,,,,,,,,,,,,,,,,,2,1,0.716430592251,,,,,,2016_Aug_31_0847,P10,PLC_L_D2S1,NHGX,60.0214400388,
stim/negf.jpg,stim/posf.jpg,stim/1.jpg,stim/3.jpg,stim/latef.jpg,EF,1,2,0,8,8,46,,,,,,,,,,,,,,,,,,2,1,0.983060410072,,,,,,2016_Aug_31_0847,P10,PLC_L_D2S1,NHGX,60.0214400388,
stim/negf.jpg,stim/posf.jpg,stim/5.jpg,stim/2.jpg,stim/latef.jpg,CD,2,4,0,9,9,39,,,,,,,,,,,,,,,,,,4,1,0.916321399087,,,,,,2016_Aug_31_0847,P10,PLC_L_D2S1,NHGX,60.0214400388,
stim/posf.jpg,stim/negf.jpg,stim/3.jpg,stim/1.jpg,stim/latef.jpg,EF,2,4,0,10,10,50,,,,,,,,,,,,,,,,,,4,1,1.23292676897,,,,,,2016_Aug_31_0847,P10,PLC_L_D2S1,NHGX,60.0214400388,
stim/posf.jpg,stim/negf.jpg,stim/2.jpg,stim/5.jpg,stim/latef.jpg,CD,1,2,0,11,11,23,,,,,,,,,,,,,,,,,,2,1,1.06630975406,,,,,,2016_Aug_31_0847,P10,PLC_L_D2S1,NHGX,60.0214400388,
stim/posf.jpg,stim/negf.jpg,stim/1.jpg,stim/3.jpg,stim/latef.jpg,EF,1,2,0,12,12,41,,,,,,,,,,,,,,,,,,4,0,1.21626530327,,,,,,2016_Aug_31_0847,P10,PLC_L_D2S1,NHGX,60.0214400388,
stim/negf.jpg,stim/posf.jpg,stim/1.jpg,stim/3.jpg,stim/latef.jpg,EF,1,2,0,13,13,47,,,,,,,,,,,,,,,,,,2,1,0.866324352449,,,,,,2016_Aug_31_0847,P10,PLC_L_D2S1,NHGX,60.0214400388,
stim/posf.jpg,stim/negf.jpg,stim/3.jpg,stim/1.jpg,stim/latef.jpg,EF,2,4,0,14,14,54,,,,,,,,,,,,,,,,,,4,1,0.899711060819,,,,,,2016_Aug_31_0847,P10,PLC_L_D2S1,NHGX,60.0214400388,
stim/posf.jpg,stim/negf.jpg,stim/6.jpg,stim/4.jpg,stim/latef.jpg,AB,1,2,0,15,15,4,,,,,,,,,,,,,,,,,,2,1,0.799746853031,,,,,,2016_Aug_31_0847,P10,PLC_L_D2S1,NHGX,60.0214400388,
stim/negf.jpg,stim/posf.jpg,stim/1.jpg,stim/3.jpg,stim/latef.jpg,EF,1,2,0,16,16,49,,,,,,,,,,,,,,,,,,4,0,0.916355913113,,,,,,2016_Aug_31_0847,P10,PLC_L_D2S1,NHGX,60.0214400388,
stim/posf.jpg,stim/negf.jpg,stim/5.jpg,stim/2.jpg,stim/latef.jpg,CD,2,4,0,17,17,35,,,,,,,,,,,,,,,,,,2,0,0.899713517943,,,,,,2016_Aug_31_0847,P10,PLC_L_D2S1,NHGX,60.0214400388,
stim/posf.jpg,stim/negf.jpg,stim/6.jpg,stim/4.jpg,stim/latef.jpg,AB,1,2,0,18,18,1,,,,,,,,,,,,,,,,,,4,0,1.14964930489,,,,,,2016_Aug_31_0847,P10,PLC_L_D2S1,NHGX,60.0214400388,
stim/posf.jpg,stim/negf.jpg,stim/2.jpg,stim/5.jpg,stim/latef.jpg,CD,1,2,0,19,19,22,,,,,,,,,,,,,,,,,,4,0,0.98301090067,,,,,,2016_Aug_31_0847,P10,PLC_L_D2S1,NHGX,60.0214400388,
stim/posf.jpg,stim/negf.jpg,stim/4.jpg,stim/6.jpg,stim/latef.jpg,AB,2,4,0,20,20,17,,,,,,,,,,,,,,,,,,2,0,0.966350289096,,,,,,2016_Aug_31_0847,P10,PLC_L_D2S1,NHGX,60.0214400388,
stim/posf.jpg,stim/negf.jpg,stim/2.jpg,stim/5.jpg,stim/latef.jpg,CD,1,2,0,21,21,21,,,,,,,,,,,,,,,,,,4,0,0.633073369373,,,,,,2016_Aug_31_0847,P10,PLC_L_D2S1,NHGX,60.0214400388,
stim/posf.jpg,stim/negf.jpg,stim/6.jpg,stim/4.jpg,stim/latef.jpg,AB,1,2,0,22,22,0,,,,,,,,,,,,,,,,,,4,0,0.533089742182,,,,,,2016_Aug_31_0847,P10,PLC_L_D2S1,NHGX,60.0214400388,
stim/posf.jpg,stim/negf.jpg,stim/4.jpg,stim/6.jpg,stim/latef.jpg,AB,2,4,0,23,23,12,,,,,,,,,,,,,,,,,,4,1,0.533232787723,,,,,,2016_Aug_31_0847,P10,PLC_L_D2S1,NHGX,60.0214400388,
stim/posf.jpg,stim/negf.jpg,stim/6.jpg,stim/4.jpg,stim/latef.jpg,AB,1,2,0,24,24,7,,,,,,,,,,,,,,,,,,4,0,1.14960055037,,,,,,2016_Aug_31_0847,P10,PLC_L_D2S1,NHGX,60.0214400388,
stim/negf.jpg,stim/posf.jpg,stim/5.jpg,stim/2.jpg,stim/latef.jpg,CD,2,4,0,25,25,38,,,,,,,,,,,,,,,,,,2,0,0.699761571717,,,,,,2016_Aug_31_0847,P10,PLC_L_D2S1,NHGX,60.0214400388,
stim/posf.jpg,stim/negf.jpg,stim/4.jpg,stim/6.jpg,stim/latef.jpg,AB,2,4,0,26,26,15,,,,,,,,,,,,,,,,,,4,1,1.11623604935,,,,,,2016_Aug_31_0847,P10,PLC_L_D2S1,NHGX,60.0214400388,
stim/negf.jpg,stim/posf.jpg,stim/6.jpg,stim/4.jpg,stim/latef.jpg,AB,1,2,0,27,27,8,,,,,,,,,,,,,,,,,,2,1,0.733098680461,,,,,,2016_Aug_31_0847,P10,PLC_L_D2S1,NHGX,60.0214400388,
stim/posf.jpg,stim/negf.jpg,stim/5.jpg,stim/2.jpg,stim/latef.jpg,CD,2,4,0,28,28,34,,,,,,,,,,,,,,,,,,4,1,0.883047122954,,,,,,2016_Aug_31_0847,P10,PLC_L_D2S1,NHGX,60.0214400388,
stim/posf.jpg,stim/negf.jpg,stim/6.jpg,stim/4.jpg,stim/latef.jpg,AB,1,2,0,29,29,6,,,,,,,,,,,,,,,,,,4,0,1.2662013248,,,,,,2016_Aug_31_0847,P10,PLC_L_D2S1,NHGX,60.0214400388,
stim/negf.jpg,stim/posf.jpg,stim/2.jpg,stim/5.jpg,stim/latef.jpg,CD,1,2,0,30,30,28,,,,,,,,,,,,,,,,,,4,0,1.16629470455,,,,,,2016_Aug_31_0847,P10,PLC_L_D2S1,NHGX,60.0214400388,
stim/posf.jpg,stim/negf.jpg,stim/5.jpg,stim/2.jpg,stim/latef.jpg,CD,2,4,0,31,31,33,,,,,,,,,,,,,,,,,,2,0,1.11629210307,,,,,,2016_Aug_31_0847,P10,PLC_L_D2S1,NHGX,60.0214400388,
stim/negf.jpg,stim/posf.jpg,stim/5.jpg,stim/2.jpg,stim/latef.jpg,CD,2,4,0,32,32,37,,,,,,,,,,,,,,,,,,4,1,0.649790094812,,,,,,2016_Aug_31_0847,P10,PLC_L_D2S1,NHGX,60.0214400388,
stim/posf.jpg,stim/negf.jpg,stim/1.jpg,stim/3.jpg,stim/latef.jpg,EF,1,2,0,33,33,44,,,,,,,,,,,,,,,,,,4,0,1.06630252705,,,,,,2016_Aug_31_0847,P10,PLC_L_D2S1,NHGX,60.0214400388,
stim/posf.jpg,stim/negf.jpg,stim/3.jpg,stim/1.jpg,stim/latef.jpg,EF,2,4,0,34,34,53,,,,,,,,,,,,,,,,,,4,1,1.48283240577,,,,,,2016_Aug_31_0847,P10,PLC_L_D2S1,NHGX,60.0214400388,
stim/negf.jpg,stim/posf.jpg,stim/2.jpg,stim/5.jpg,stim/latef.jpg,CD,1,2,0,35,35,29,,,,,,,,,,,,,,,,,,2,1,1.21625085526,,,,,,2016_Aug_31_0847,P10,PLC_L_D2S1,NHGX,60.0214400388,
stim/posf.jpg,stim/negf.jpg,stim/1.jpg,stim/3.jpg,stim/latef.jpg,EF,1,2,0,36,36,40,,,,,,,,,,,,,,,,,,4,0,1.19960581048,,,,,,2016_Aug_31_0847,P10,PLC_L_D2S1,NHGX,60.0214400388,
stim/negf.jpg,stim/posf.jpg,stim/3.jpg,stim/1.jpg,stim/latef.jpg,EF,2,4,0,37,37,57,,,,,,,,,,,,,,,,,,2,0,1.18294294028,,,,,,2016_Aug_31_0847,P10,PLC_L_D2S1,NHGX,60.0214400388,
stim/posf.jpg,stim/negf.jpg,stim/6.jpg,stim/4.jpg,stim/latef.jpg,AB,1,2,0,38,38,5,,,,,,,,,,,,,,,,,,4,0,1.0496531996,,,,,,2016_Aug_31_0847,P10,PLC_L_D2S1,NHGX,60.0214400388,
stim/posf.jpg,stim/negf.jpg,stim/2.jpg,stim/5.jpg,stim/latef.jpg,CD,1,2,0,39,39,26,,,,,,,,,,,,,,,,,,2,1,1.26629192262,,,,,,2016_Aug_31_0847,P10,PLC_L_D2S1,NHGX,60.0214400388,
stim/negf.jpg,stim/posf.jpg,stim/1.jpg,stim/3.jpg,stim/latef.jpg,EF,1,2,0,40,40,48,,,,,,,,,,,,,,,,,,2,1,0.81642754265,,,,,,2016_Aug_31_0847,P10,PLC_L_D2S1,NHGX,60.0214400388,
stim/posf.jpg,stim/negf.jpg,stim/1.jpg,stim/3.jpg,stim/latef.jpg,EF,1,2,0,41,41,45,,,,,,,,,,,,,,,,,,4,0,0.79972415245,,,,,,2016_Aug_31_0847,P10,PLC_L_D2S1,NHGX,60.0214400388,
stim/posf.jpg,stim/negf.jpg,stim/4.jpg,stim/6.jpg,stim/latef.jpg,AB,2,4,0,42,42,14,,,,,,,,,,,,,,,,,,4,1,0.916353242457,,,,,,2016_Aug_31_0847,P10,PLC_L_D2S1,NHGX,60.0214400388,
stim/negf.jpg,stim/posf.jpg,stim/4.jpg,stim/6.jpg,stim/latef.jpg,AB,2,4,0,43,43,19,,,,,,,,,,,,,,,,,,2,0,0.849729719325,,,,,,2016_Aug_31_0847,P10,PLC_L_D2S1,NHGX,60.0214400388,
stim/posf.jpg,stim/negf.jpg,stim/3.jpg,stim/1.jpg,stim/latef.jpg,EF,2,4,0,44,44,52,,,,,,,,,,,,,,,,,,4,1,1.26623701476,,,,,,2016_Aug_31_0847,P10,PLC_L_D2S1,NHGX,60.0214400388,
stim/posf.jpg,stim/negf.jpg,stim/4.jpg,stim/6.jpg,stim/latef.jpg,AB,2,4,0,45,45,10,,,,,,,,,,,,,,,,,,4,1,1.26614800189,,,,,,2016_Aug_31_0847,P10,PLC_L_D2S1,NHGX,60.0214400388,
stim/posf.jpg,stim/negf.jpg,stim/4.jpg,stim/6.jpg,stim/latef.jpg,AB,2,4,0,46,46,13,,,,,,,,,,,,,,,,,,2,0,0.733102421786,,,,,,2016_Aug_31_0847,P10,PLC_L_D2S1,NHGX,60.0214400388,
stim/posf.jpg,stim/negf.jpg,stim/3.jpg,stim/1.jpg,stim/latef.jpg,EF,2,4,0,47,47,55,,,,,,,,,,,,,,,,,,2,0,1.099638114,,,,,,2016_Aug_31_0847,P10,PLC_L_D2S1,NHGX,60.0214400388,
stim/posf.jpg,stim/negf.jpg,stim/5.jpg,stim/2.jpg,stim/latef.jpg,CD,2,4,0,48,48,36,,,,,,,,,,,,,,,,,,4,1,1.08298668732,,,,,,2016_Aug_31_0847,P10,PLC_L_D2S1,NHGX,60.0214400388,
stim/posf.jpg,stim/negf.jpg,stim/6.jpg,stim/4.jpg,stim/latef.jpg,AB,1,2,0,49,49,3,,,,,,,,,,,,,,,,,,4,0,1.44951982617,,,,,,2016_Aug_31_0847,P10,PLC_L_D2S1,NHGX,60.0214400388,
stim/posf.jpg,stim/negf.jpg,stim/2.jpg,stim/5.jpg,stim/latef.jpg,CD,1,2,0,50,50,20,,,,,,,,,,,,,,,,,,2,1,0.84971989985,,,,,,2016_Aug_31_0847,P10,PLC_L_D2S1,NHGX,60.0214400388,
stim/posf.jpg,stim/negf.jpg,stim/2.jpg,stim/5.jpg,stim/latef.jpg,CD,1,2,0,51,51,25,,,,,,,,,,,,,,,,,,4,0,1.19963559973,,,,,,2016_Aug_31_0847,P10,PLC_L_D2S1,NHGX,60.0214400388,
stim/posf.jpg,stim/negf.jpg,stim/2.jpg,stim/5.jpg,stim/latef.jpg,CD,1,2,0,52,52,24,,,,,,,,,,,,,,,,,,2,1,0.916354634928,,,,,,2016_Aug_31_0847,P10,PLC_L_D2S1,NHGX,60.0214400388,
stim/posf.jpg,stim/negf.jpg,stim/6.jpg,stim/4.jpg,stim/latef.jpg,AB,1,2,0,53,53,2,,,,,,,,,,,,,,,,,,4,0,1.06634317035,,,,,,2016_Aug_31_0847,P10,PLC_L_D2S1,NHGX,60.0214400388,
stim/posf.jpg,stim/negf.jpg,stim/5.jpg,stim/2.jpg,stim/latef.jpg,CD,2,4,0,54,54,31,,,,,,,,,,,,,,,,,,4,1,0.966376174615,,,,,,2016_Aug_31_0847,P10,PLC_L_D2S1,NHGX,60.0214400388,
stim/negf.jpg,stim/posf.jpg,stim/3.jpg,stim/1.jpg,stim/latef.jpg,EF,2,4,0,55,55,56,,,,,,,,,,,,,,,,,,4,1,1.18294543049,,,,,,2016_Aug_31_0847,P10,PLC_L_D2S1,NHGX,60.0214400388,
stim/negf.jpg,stim/posf.jpg,stim/2.jpg,stim/5.jpg,stim/latef.jpg,CD,1,2,0,56,56,27,,,,,,,,,,,,,,,,,,4,0,1.14960004511,,,,,,2016_Aug_31_0847,P10,PLC_L_D2S1,NHGX,60.0214400388,
stim/posf.jpg,stim/negf.jpg,stim/3.jpg,stim/1.jpg,stim/latef.jpg,EF,2,4,0,57,57,51,,,,,,,,,,,,,,,,,,4,1,1.11627340847,,,,,,2016_Aug_31_0847,P10,PLC_L_D2S1,NHGX,60.0214400388,
stim/negf.jpg,stim/posf.jpg,stim/3.jpg,stim/1.jpg,stim/latef.jpg,EF,2,4,0,58,58,58,,,,,,,,,,,,,,,,,,2,0,0.849731180969,,,,,,2016_Aug_31_0847,P10,PLC_L_D2S1,NHGX,60.0214400388,
stim/negf.jpg,stim/posf.jpg,stim/4.jpg,stim/6.jpg,stim/latef.jpg,AB,2,4,0,59,59,18,,,,,,,,,,,,,,,,,,4,1,0.933012626972,,,,,,2016_Aug_31_0847,P10,PLC_L_D2S1,NHGX,60.0214400388,
,,,,,,,,,,,,,,,,,,,,,,,,,,,,,,,,0.9921875,1.0,1,0,0,2016_Aug_31_0847,P10,PLC_L_D2S1,NHGX,60.0214400388,
stim/posf.jpg,stim/negf.jpg,stim/5.jpg,stim/2.jpg,stim/latef.jpg,CD,2,4,,,,,0,0,0,30,,,,,,,,,,,,,,4,1,1.39949968797,,,,,,2016_Aug_31_0847,P10,PLC_L_D2S1,NHGX,60.0214400388,
stim/posf.jpg,stim/negf.jpg,stim/6.jpg,stim/4.jpg,stim/latef.jpg,AB,1,2,,,,,0,1,1,5,,,,,,,,,,,,,,2,1,1.04964460117,,,,,,2016_Aug_31_0847,P10,PLC_L_D2S1,NHGX,60.0214400388,
stim/posf.jpg,stim/negf.jpg,stim/3.jpg,stim/1.jpg,stim/latef.jpg,EF,2,4,,,,,0,2,2,53,,,,,,,,,,,,,,4,1,0.733147780843,,,,,,2016_Aug_31_0847,P10,PLC_L_D2S1,NHGX,60.0214400388,
stim/negf.jpg,stim/posf.jpg,stim/2.jpg,stim/5.jpg,stim/latef.jpg,CD,1,2,,,,,0,3,3,29,,,,,,,,,,,,,,2,1,1.01635447854,,,,,,2016_Aug_31_0847,P10,PLC_L_D2S1,NHGX,60.0214400388,
stim/posf.jpg,stim/negf.jpg,stim/5.jpg,stim/2.jpg,stim/latef.jpg,CD,2,4,,,,,0,4,4,33,,,,,,,,,,,,,,4,1,0.799733132833,,,,,,2016_Aug_31_0847,P10,PLC_L_D2S1,NHGX,60.0214400388,
stim/negf.jpg,stim/posf.jpg,stim/3.jpg,stim/1.jpg,stim/latef.jpg,EF,2,4,,,,,0,5,5,59,,,,,,,,,,,,,,4,1,1.01639812934,,,,,,2016_Aug_31_0847,P10,PLC_L_D2S1,NHGX,60.0214400388,
stim/negf.jpg,stim/posf.jpg,stim/2.jpg,stim/5.jpg,stim/latef.jpg,CD,1,2,,,,,0,6,6,28,,,,,,,,,,,,,,4,0,0.949672161863,,,,,,2016_Aug_31_0847,P10,PLC_L_D2S1,NHGX,60.0214400388,
stim/posf.jpg,stim/negf.jpg,stim/6.jpg,stim/4.jpg,stim/latef.jpg,AB,1,2,,,,,0,7,7,7,,,,,,,,,,,,,,2,1,1.18291594499,,,,,,2016_Aug_31_0847,P10,PLC_L_D2S1,NHGX,60.0214400388,
stim/negf.jpg,stim/posf.jpg,stim/5.jpg,stim/2.jpg,stim/latef.jpg,CD,2,4,,,,,0,8,8,37,,,,,,,,,,,,,,4,1,0.94968301291,,,,,,2016_Aug_31_0847,P10,PLC_L_D2S1,NHGX,60.0214400388,
stim/posf.jpg,stim/negf.jpg,stim/2.jpg,stim/5.jpg,stim/latef.jpg,CD,1,2,,,,,0,9,9,22,,,,,,,,,,,,,,4,0,1.38289112112,,,,,,2016_Aug_31_0847,P10,PLC_L_D2S1,NHGX,60.0214400388,
stim/posf.jpg,stim/negf.jpg,stim/3.jpg,stim/1.jpg,stim/latef.jpg,EF,2,4,,,,,0,10,10,50,,,,,,,,,,,,,,4,1,1.19961597281,,,,,,2016_Aug_31_0847,P10,PLC_L_D2S1,NHGX,60.0214400388,
stim/posf.jpg,stim/negf.jpg,stim/6.jpg,stim/4.jpg,stim/latef.jpg,AB,1,2,,,,,0,11,11,4,,,,,,,,,,,,,,4,0,0.899699996241,,,,,,2016_Aug_31_0847,P10,PLC_L_D2S1,NHGX,60.0214400388,
stim/negf.jpg,stim/posf.jpg,stim/1.jpg,stim/3.jpg,stim/latef.jpg,EF,1,2,,,,,0,12,12,49,,,,,,,,,,,,,,2,1,1.06633203359,,,,,,2016_Aug_31_0847,P10,PLC_L_D2S1,NHGX,60.0214400388,
stim/negf.jpg,stim/posf.jpg,stim/2.jpg,stim/5.jpg,stim/latef.jpg,CD,1,2,,,,,0,13,13,27,,,,,,,,,,,,,,2,1,0.649777003181,,,,,,2016_Aug_31_0847,P10,PLC_L_D2S1,NHGX,60.0214400388,
stim/posf.jpg,stim/negf.jpg,stim/5.jpg,stim/2.jpg,stim/latef.jpg,CD,2,4,,,,,0,14,14,32,,,,,,,,,,,,,,4,1,0.766406084165,,,,,,2016_Aug_31_0847,P10,PLC_L_D2S1,NHGX,60.0214400388,
stim/posf.jpg,stim/negf.jpg,stim/2.jpg,stim/5.jpg,stim/latef.jpg,CD,1,2,,,,,0,15,15,21,,,,,,,,,,,,,,2,1,0.849769015271,,,,,,2016_Aug_31_0847,P10,PLC_L_D2S1,NHGX,60.0214400388,
stim/posf.jpg,stim/negf.jpg,stim/2.jpg,stim/5.jpg,stim/latef.jpg,CD,1,2,,,,,0,16,16,25,,,,,,,,,,,,,,4,0,0.683086021909,,,,,,2016_Aug_31_0847,P10,PLC_L_D2S1,NHGX,60.0214400388,
stim/negf.jpg,stim/posf.jpg,stim/1.jpg,stim/3.jpg,stim/latef.jpg,EF,1,2,,,,,0,17,17,47,,,,,,,,,,,,,,2,1,1.04967430019,,,,,,2016_Aug_31_0847,P10,PLC_L_D2S1,NHGX,60.0214400388,
stim/posf.jpg,stim/negf.jpg,stim/3.jpg,stim/1.jpg,stim/latef.jpg,EF,2,4,,,,,0,18,18,52,,,,,,,,,,,,,,2,0,1.01634031323,,,,,,2016_Aug_31_0847,P10,PLC_L_D2S1,NHGX,60.0214400388,
stim/posf.jpg,stim/negf.jpg,stim/4.jpg,stim/6.jpg,stim/latef.jpg,AB,2,4,,,,,0,19,19,11,,,,,,,,,,,,,,4,1,1.21623546289,,,,,,2016_Aug_31_0847,P10,PLC_L_D2S1,NHGX,60.0214400388,
stim/posf.jpg,stim/negf.jpg,stim/4.jpg,stim/6.jpg,stim/latef.jpg,AB,2,4,,,,,0,20,20,13,,,,,,,,,,,,,,4,1,0.949689066999,,,,,,2016_Aug_31_0847,P10,PLC_L_D2S1,NHGX,60.0214400388,
stim/posf.jpg,stim/negf.jpg,stim/4.jpg,stim/6.jpg,stim/latef.jpg,AB,2,4,,,,,0,21,21,15,,,,,,,,,,,,,,2,0,1.2162223863,,,,,,2016_Aug_31_0847,P10,PLC_L_D2S1,NHGX,60.0214400388,
stim/posf.jpg,stim/negf.jpg,stim/5.jpg,stim/2.jpg,stim/latef.jpg,CD,2,4,,,,,0,22,22,31,,,,,,,,,,,,,,4,1,0.716400565409,,,,,,2016_Aug_31_0847,P10,PLC_L_D2S1,NHGX,60.0214400388,
stim/posf.jpg,stim/negf.jpg,stim/4.jpg,stim/6.jpg,stim/latef.jpg,AB,2,4,,,,,0,23,23,14,,,,,,,,,,,,,,4,1,0.549826064466,,,,,,2016_Aug_31_0847,P10,PLC_L_D2S1,NHGX,60.0214400388,
stim/posf.jpg,stim/negf.jpg,stim/6.jpg,stim/4.jpg,stim/latef.jpg,AB,1,2,,,,,0,24,24,6,,,,,,,,,,,,,,2,1,0.849722011113,,,,,,2016_Aug_31_0847,P10,PLC_L_D2S1,NHGX,60.0214400388,
stim/posf.jpg,stim/negf.jpg,stim/1.jpg,stim/3.jpg,stim/latef.jpg,EF,1,2,,,,,0,25,25,41,,,,,,,,,,,,,,4,0,1.16626857242,,,,,,2016_Aug_31_0847,P10,PLC_L_D2S1,NHGX,60.0214400388,
stim/negf.jpg,stim/posf.jpg,stim/6.jpg,stim/4.jpg,stim/latef.jpg,AB,1,2,,,,,0,26,26,9,,,,,,,,,,,,,,2,1,1.03303369448,,,,,,2016_Aug_31_0847,P10,PLC_L_D2S1,NHGX,60.0214400388,
stim/posf.jpg,stim/negf.jpg,stim/4.jpg,stim/6.jpg,stim/latef.jpg,AB,2,4,,,,,0,27,27,10,,,,,,,,,,,,,,4,1,0.366462354419,,,,,,2016_Aug_31_0847,P10,PLC_L_D2S1,NHGX,60.0214400388,
stim/posf.jpg,stim/negf.jpg,stim/6.jpg,stim/4.jpg,stim/latef.jpg,AB,1,2,,,,,0,28,28,2,,,,,,,,,,,,,,2,1,0.749736368899,,,,,,2016_Aug_31_0847,P10,PLC_L_D2S1,NHGX,60.0214400388,
stim/posf.jpg,stim/negf.jpg,stim/3.jpg,stim/1.jpg,stim/latef.jpg,EF,2,4,,,,,0,29,29,51,,,,,,,,,,,,,,None,0,,,,,,,2016_Aug_31_0847,P10,PLC_L_D2S1,NHGX,60.0214400388,
stim/posf.jpg,stim/negf.jpg,stim/2.jpg,stim/5.jpg,stim/latef.jpg,CD,1,2,,,,,0,30,30,24,,,,,,,,,,,,,,2,1,0.766391997053,,,,,,2016_Aug_31_0847,P10,PLC_L_D2S1,NHGX,60.0214400388,
stim/posf.jpg,stim/negf.jpg,stim/2.jpg,stim/5.jpg,stim/latef.jpg,CD,1,2,,,,,0,31,31,23,,,,,,,,,,,,,,2,1,0.666461322847,,,,,,2016_Aug_31_0847,P10,PLC_L_D2S1,NHGX,60.0214400388,
stim/posf.jpg,stim/negf.jpg,stim/6.jpg,stim/4.jpg,stim/latef.jpg,AB,1,2,,,,,0,32,32,0,,,,,,,,,,,,,,2,1,0.749749256021,,,,,,2016_Aug_31_0847,P10,PLC_L_D2S1,NHGX,60.0214400388,
stim/posf.jpg,stim/negf.jpg,stim/3.jpg,stim/1.jpg,stim/latef.jpg,EF,2,4,,,,,0,33,33,55,,,,,,,,,,,,,,4,1,1.09965198457,,,,,,2016_Aug_31_0847,P10,PLC_L_D2S1,NHGX,60.0214400388,
stim/negf.jpg,stim/posf.jpg,stim/3.jpg,stim/1.jpg,stim/latef.jpg,EF,2,4,,,,,0,34,34,56,,,,,,,,,,,,,,2,0,0.616454787558,,,,,,2016_Aug_31_0847,P10,PLC_L_D2S1,NHGX,60.0214400388,
stim/negf.jpg,stim/posf.jpg,stim/3.jpg,stim/1.jpg,stim/latef.jpg,EF,2,4,,,,,0,35,35,57,,,,,,,,,,,,,,2,0,0.916379576094,,,,,,2016_Aug_31_0847,P10,PLC_L_D2S1,NHGX,60.0214400388,
stim/posf.jpg,stim/negf.jpg,stim/2.jpg,stim/5.jpg,stim/latef.jpg,CD,1,2,,,,,0,36,36,20,,,,,,,,,,,,,,2,1,0.999667046112,,,,,,2016_Aug_31_0847,P10,PLC_L_D2S1,NHGX,60.0214400388,
stim/posf.jpg,stim/negf.jpg,stim/3.jpg,stim/1.jpg,stim/latef.jpg,EF,2,4,,,,,0,37,37,54,,,,,,,,,,,,,,4,1,0.766430998263,,,,,,2016_Aug_31_0847,P10,PLC_L_D2S1,NHGX,60.0214400388,
stim/posf.jpg,stim/negf.jpg,stim/6.jpg,stim/4.jpg,stim/latef.jpg,AB,1,2,,,,,0,38,38,1,,,,,,,,,,,,,,2,1,0.916393485763,,,,,,2016_Aug_31_0847,P10,PLC_L_D2S1,NHGX,60.0214400388,
stim/posf.jpg,stim/negf.jpg,stim/1.jpg,stim/3.jpg,stim/latef.jpg,EF,1,2,,,,,0,39,39,42,,,,,,,,,,,,,,4,0,0.916374493425,,,,,,2016_Aug_31_0847,P10,PLC_L_D2S1,NHGX,60.0214400388,
stim/posf.jpg,stim/negf.jpg,stim/1.jpg,stim/3.jpg,stim/latef.jpg,EF,1,2,,,,,0,40,40,43,,,,,,,,,,,,,,2,1,0.783066124315,,,,,,2016_Aug_31_0847,P10,PLC_L_D2S1,NHGX,60.0214400388,
stim/posf.jpg,stim/negf.jpg,stim/4.jpg,stim/6.jpg,stim/latef.jpg,AB,2,4,,,,,0,41,41,17,,,,,,,,,,,,,,4,1,0.949677566334,,,,,,2016_Aug_31_0847,P10,PLC_L_D2S1,NHGX,60.0214400388,
stim/posf.jpg,stim/negf.jpg,stim/5.jpg,stim/2.jpg,stim/latef.jpg,CD,2,4,,,,,0,42,42,35,,,,,,,,,,,,,,4,1,1.13292965918,,,,,,2016_Aug_31_0847,P10,PLC_L_D2S1,NHGX,60.0214400388,
stim/negf.jpg,stim/posf.jpg,stim/4.jpg,stim/6.jpg,stim/latef.jpg,AB,2,4,,,,,0,43,43,19,,,,,,,,,,,,,,2,0,0.983022620882,,,,,,2016_Aug_31_0847,P10,PLC_L_D2S1,NHGX,60.0214400388,
stim/negf.jpg,stim/posf.jpg,stim/1.jpg,stim/3.jpg,stim/latef.jpg,EF,1,2,,,,,0,44,44,46,,,,,,,,,,,,,,2,1,1.59946685814,,,,,,2016_Aug_31_0847,P10,PLC_L_D2S1,NHGX,60.0214400388,
stim/posf.jpg,stim/negf.jpg,stim/2.jpg,stim/5.jpg,stim/latef.jpg,CD,1,2,,,,,0,45,45,26,,,,,,,,,,,,,,2,1,1.19956505891,,,,,,2016_Aug_31_0847,P10,PLC_L_D2S1,NHGX,60.0214400388,
stim/negf.jpg,stim/posf.jpg,stim/4.jpg,stim/6.jpg,stim/latef.jpg,AB,2,4,,,,,0,46,46,18,,,,,,,,,,,,,,4,1,0.966400953376,,,,,,2016_Aug_31_0847,P10,PLC_L_D2S1,NHGX,60.0214400388,
stim/posf.jpg,stim/negf.jpg,stim/5.jpg,stim/2.jpg,stim/latef.jpg,CD,2,4,,,,,0,47,47,36,,,,,,,,,,,,,,4,1,0.933029646394,,,,,,2016_Aug_31_0847,P10,PLC_L_D2S1,NHGX,60.0214400388,
stim/posf.jpg,stim/negf.jpg,stim/1.jpg,stim/3.jpg,stim/latef.jpg,EF,1,2,,,,,0,48,48,45,,,,,,,,,,,,,,4,0,1.3495457177,,,,,,2016_Aug_31_0847,P10,PLC_L_D2S1,NHGX,60.0214400388,
stim/negf.jpg,stim/posf.jpg,stim/6.jpg,stim/4.jpg,stim/latef.jpg,AB,1,2,,,,,0,49,49,8,,,,,,,,,,,,,,2,1,0.56647495282,,,,,,2016_Aug_31_0847,P10,PLC_L_D2S1,NHGX,60.0214400388,
stim/posf.jpg,stim/negf.jpg,stim/4.jpg,stim/6.jpg,stim/latef.jpg,AB,2,4,,,,,0,50,50,12,,,,,,,,,,,,,,4,1,0.883080364809,,,,,,2016_Aug_31_0847,P10,PLC_L_D2S1,NHGX,60.0214400388,
stim/posf.jpg,stim/negf.jpg,stim/4.jpg,stim/6.jpg,stim/latef.jpg,AB,2,4,,,,,0,51,51,16,,,,,,,,,,,,,,2,0,1.08299822407,,,,,,2016_Aug_31_0847,P10,PLC_L_D2S1,NHGX,60.0214400388,
stim/negf.jpg,stim/posf.jpg,stim/3.jpg,stim/1.jpg,stim/latef.jpg,EF,2,4,,,,,0,52,52,58,,,,,,,,,,,,,,2,0,0.949718414147,,,,,,2016_Aug_31_0847,P10,PLC_L_D2S1,NHGX,60.0214400388,
stim/negf.jpg,stim/posf.jpg,stim/5.jpg,stim/2.jpg,stim/latef.jpg,CD,2,4,,,,,0,53,53,39,,,,,,,,,,,,,,4,1,0.833066794987,,,,,,2016_Aug_31_0847,P10,PLC_L_D2S1,NHGX,60.0214400388,
stim/negf.jpg,stim/posf.jpg,stim/5.jpg,stim/2.jpg,stim/latef.jpg,CD,2,4,,,,,0,54,54,38,,,,,,,,,,,,,,2,0,0.749755355223,,,,,,2016_Aug_31_0847,P10,PLC_L_D2S1,NHGX,60.0214400388,
stim/posf.jpg,stim/negf.jpg,stim/1.jpg,stim/3.jpg,stim/latef.jpg,EF,1,2,,,,,0,55,55,44,,,,,,,,,,,,,,4,0,1.1662881031,,,,,,2016_Aug_31_0847,P10,PLC_L_D2S1,NHGX,60.0214400388,
stim/posf.jpg,stim/negf.jpg,stim/5.jpg,stim/2.jpg,stim/latef.jpg,CD,2,4,,,,,0,56,56,34,,,,,,,,,,,,,,4,1,0.699781264803,,,,,,2016_Aug_31_0847,P10,PLC_L_D2S1,NHGX,60.0214400388,
stim/posf.jpg,stim/negf.jpg,stim/1.jpg,stim/3.jpg,stim/latef.jpg,EF,1,2,,,,,0,57,57,40,,,,,,,,,,,,,,2,1,0.866378809182,,,,,,2016_Aug_31_0847,P10,PLC_L_D2S1,NHGX,60.0214400388,
stim/negf.jpg,stim/posf.jpg,stim/1.jpg,stim/3.jpg,stim/latef.jpg,EF,1,2,,,,,0,58,58,48,,,,,,,,,,,,,,4,0,0.833047183104,,,,,,2016_Aug_31_0847,P10,PLC_L_D2S1,NHGX,60.0214400388,
stim/posf.jpg,stim/negf.jpg,stim/6.jpg,stim/4.jpg,stim/latef.jpg,AB,1,2,,,,,0,59,59,3,,,,,,,,,,,,,,2,1,0.899721024654,,,,,,2016_Aug_31_0847,P10,PLC_L_D2S1,NHGX,60.0214400388,
,,,,,,,,,,,,,,,,,,,,,,,,,,,,,,,,0.9921875,1.0,1,0,0,2016_Aug_31_0847,P10,PLC_L_D2S1,NHGX,60.0214400388,
stim/posf.jpg,stim/negf.jpg,stim/5.jpg,stim/2.jpg,stim/latef.jpg,CD,2,4,,,,,,,,,0,0,0,35,,,,,,,,,,4,1,0.999648186104,,,,,,2016_Aug_31_0847,P10,PLC_L_D2S1,NHGX,60.0214400388,
stim/posf.jpg,stim/negf.jpg,stim/2.jpg,stim/5.jpg,stim/latef.jpg,CD,1,2,,,,,,,,,0,1,1,26,,,,,,,,,,2,1,0.966362649905,,,,,,2016_Aug_31_0847,P10,PLC_L_D2S1,NHGX,60.0214400388,
stim/posf.jpg,stim/negf.jpg,stim/4.jpg,stim/6.jpg,stim/latef.jpg,AB,2,4,,,,,,,,,0,2,2,16,,,,,,,,,,4,1,0.883020272028,,,,,,2016_Aug_31_0847,P10,PLC_L_D2S1,NHGX,60.0214400388,
stim/posf.jpg,stim/negf.jpg,stim/2.jpg,stim/5.jpg,stim/latef.jpg,CD,1,2,,,,,,,,,0,3,3,24,,,,,,,,,,4,0,1.31623838016,,,,,,2016_Aug_31_0847,P10,PLC_L_D2S1,NHGX,60.0214400388,
stim/posf.jpg,stim/negf.jpg,stim/4.jpg,stim/6.jpg,stim/latef.jpg,AB,2,4,,,,,,,,,0,4,4,11,,,,,,,,,,4,1,0.783070229547,,,,,,2016_Aug_31_0847,P10,PLC_L_D2S1,NHGX,60.0214400388,
stim/negf.jpg,stim/posf.jpg,stim/4.jpg,stim/6.jpg,stim/latef.jpg,AB,2,4,,,,,,,,,0,5,5,19,,,,,,,,,,2,0,0.983021050969,,,,,,2016_Aug_31_0847,P10,PLC_L_D2S1,NHGX,60.0214400388,
stim/negf.jpg,stim/posf.jpg,stim/3.jpg,stim/1.jpg,stim/latef.jpg,EF,2,4,,,,,,,,,0,6,6,58,,,,,,,,,,2,0,1.23293755385,,,,,,2016_Aug_31_0847,P10,PLC_L_D2S1,NHGX,60.0214400388,
stim/negf.jpg,stim/posf.jpg,stim/1.jpg,stim/3.jpg,stim/latef.jpg,EF,1,2,,,,,,,,,0,7,7,48,,,,,,,,,,4,0,0.749750010903,,,,,,2016_Aug_31_0847,P10,PLC_L_D2S1,NHGX,60.0214400388,
stim/posf.jpg,stim/negf.jpg,stim/3.jpg,stim/1.jpg,stim/latef.jpg,EF,2,4,,,,,,,,,0,8,8,51,,,,,,,,,,4,1,1.04964922068,,,,,,2016_Aug_31_0847,P10,PLC_L_D2S1,NHGX,60.0214400388,
stim/posf.jpg,stim/negf.jpg,stim/4.jpg,stim/6.jpg,stim/latef.jpg,AB,2,4,,,,,,,,,0,9,9,10,,,,,,,,,,4,1,1.14960150976,,,,,,2016_Aug_31_0847,P10,PLC_L_D2S1,NHGX,60.0214400388,
stim/negf.jpg,stim/posf.jpg,stim/5.jpg,stim/2.jpg,stim/latef.jpg,CD,2,4,,,,,,,,,0,10,10,37,,,,,,,,,,2,0,0.916343374862,,,,,,2016_Aug_31_0847,P10,PLC_L_D2S1,NHGX,60.0214400388,
stim/posf.jpg,stim/negf.jpg,stim/5.jpg,stim/2.jpg,stim/latef.jpg,CD,2,4,,,,,,,,,0,11,11,36,,,,,,,,,,4,1,0.849647653777,,,,,,2016_Aug_31_0847,P10,PLC_L_D2S1,NHGX,60.0214400388,
stim/posf.jpg,stim/negf.jpg,stim/5.jpg,stim/2.jpg,stim/latef.jpg,CD,2,4,,,,,,,,,0,12,12,32,,,,,,,,,,2,0,0.866388081292,,,,,,2016_Aug_31_0847,P10,PLC_L_D2S1,NHGX,60.0214400388,
stim/posf.jpg,stim/negf.jpg,stim/2.jpg,stim/5.jpg,stim/latef.jpg,CD,1,2,,,,,,,,,0,13,13,25,,,,,,,,,,4,0,0.949677704679,,,,,,2016_Aug_31_0847,P10,PLC_L_D2S1,NHGX,60.0214400388,
stim/negf.jpg,stim/posf.jpg,stim/3.jpg,stim/1.jpg,stim/latef.jpg,EF,2,4,,,,,,,,,0,14,14,59,,,,,,,,,,2,0,1.19961072172,,,,,,2016_Aug_31_0847,P10,PLC_L_D2S1,NHGX,60.0214400388,
stim/posf.jpg,stim/negf.jpg,stim/2.jpg,stim/5.jpg,stim/latef.jpg,CD,1,2,,,,,,,,,0,15,15,20,,,,,,,,,,2,1,1.232937614,,,,,,2016_Aug_31_0847,P10,PLC_L_D2S1,NHGX,60.0214400388,
stim/negf.jpg,stim/posf.jpg,stim/2.jpg,stim/5.jpg,stim/latef.jpg,CD,1,2,,,,,,,,,0,16,16,29,,,,,,,,,,2,1,1.14961337133,,,,,,2016_Aug_31_0847,P10,PLC_L_D2S1,NHGX,60.0214400388,
stim/posf.jpg,stim/negf.jpg,stim/1.jpg,stim/3.jpg,stim/latef.jpg,EF,1,2,,,,,,,,,0,17,17,44,,,,,,,,,,4,0,1.08297149946,,,,,,2016_Aug_31_0847,P10,PLC_L_D2S1,NHGX,60.0214400388,
stim/posf.jpg,stim/negf.jpg,stim/6.jpg,stim/4.jpg,stim/latef.jpg,AB,1,2,,,,,,,,,0,18,18,2,,,,,,,,,,2,1,0.866374676882,,,,,,2016_Aug_31_0847,P10,PLC_L_D2S1,NHGX,60.0214400388,
stim/posf.jpg,stim/negf.jpg,stim/3.jpg,stim/1.jpg,stim/latef.jpg,EF,2,4,,,,,,,,,0,19,19,52,,,,,,,,,,4,1,1.18297602574,,,,,,2016_Aug_31_0847,P10,PLC_L_D2S1,NHGX,60.0214400388,
stim/posf.jpg,stim/negf.jpg,stim/5.jpg,stim/2.jpg,stim/latef.jpg,CD,2,4,,,,,,,,,0,20,20,34,,,,,,,,,,2,0,1.21627010022,,,,,,2016_Aug_31_0847,P10,PLC_L_D2S1,NHGX,60.0214400388,
stim/posf.jpg,stim/negf.jpg,stim/2.jpg,stim/5.jpg,stim/latef.jpg,CD,1,2,,,,,,,,,0,21,21,23,,,,,,,,,,2,1,0.716489027902,,,,,,2016_Aug_31_0847,P10,PLC_L_D2S1,NHGX,60.0214400388,
stim/negf.jpg,stim/posf.jpg,stim/6.jpg,stim/4.jpg,stim/latef.jpg,AB,1,2,,,,,,,,,0,22,22,9,,,,,,,,,,4,0,1.1162797182,,,,,,2016_Aug_31_0847,P10,PLC_L_D2S1,NHGX,60.0214400388,
stim/posf.jpg,stim/negf.jpg,stim/1.jpg,stim/3.jpg,stim/latef.jpg,EF,1,2,,,,,,,,,0,23,23,43,,,,,,,,,,2,1,1.53283290201,,,,,,2016_Aug_31_0847,P10,PLC_L_D2S1,NHGX,60.0214400388,
stim/negf.jpg,stim/posf.jpg,stim/1.jpg,stim/3.jpg,stim/latef.jpg,EF,1,2,,,,,,,,,0,24,24,46,,,,,,,,,,2,1,1.49950802776,,,,,,2016_Aug_31_0847,P10,PLC_L_D2S1,NHGX,60.0214400388,
stim/posf.jpg,stim/negf.jpg,stim/4.jpg,stim/6.jpg,stim/latef.jpg,AB,2,4,,,,,,,,,0,25,25,13,,,,,,,,,,4,1,1.28291865475,,,,,,2016_Aug_31_0847,P10,PLC_L_D2S1,NHGX,60.0214400388,
stim/posf.jpg,stim/negf.jpg,stim/1.jpg,stim/3.jpg,stim/latef.jpg,EF,1,2,,,,,,,,,0,26,26,45,,,,,,,,,,None,0,,,,,,,2016_Aug_31_0847,P10,PLC_L_D2S1,NHGX,60.0214400388,
stim/negf.jpg,stim/posf.jpg,stim/2.jpg,stim/5.jpg,stim/latef.jpg,CD,1,2,,,,,,,,,0,27,27,27,,,,,,,,,,4,0,1.14964452598,,,,,,2016_Aug_31_0847,P10,PLC_L_D2S1,NHGX,60.0214400388,
stim/negf.jpg,stim/posf.jpg,stim/1.jpg,stim/3.jpg,stim/latef.jpg,EF,1,2,,,,,,,,,0,28,28,49,,,,,,,,,,4,0,1.01635447854,,,,,,2016_Aug_31_0847,P10,PLC_L_D2S1,NHGX,60.0214400388,
stim/posf.jpg,stim/negf.jpg,stim/5.jpg,stim/2.jpg,stim/latef.jpg,CD,2,4,,,,,,,,,0,29,29,33,,,,,,,,,,2,0,1.34953068022,,,,,,2016_Aug_31_0847,P10,PLC_L_D2S1,NHGX,60.0214400388,
stim/posf.jpg,stim/negf.jpg,stim/6.jpg,stim/4.jpg,stim/latef.jpg,AB,1,2,,,,,,,,,0,30,30,6,,,,,,,,,,2,1,1.26625764618,,,,,,2016_Aug_31_0847,P10,PLC_L_D2S1,NHGX,60.0214400388,
stim/posf.jpg,stim/negf.jpg,stim/6.jpg,stim/4.jpg,stim/latef.jpg,AB,1,2,,,,,,,,,0,31,31,7,,,,,,,,,,4,0,0.84973015842,,,,,,2016_Aug_31_0847,P10,PLC_L_D2S1,NHGX,60.0214400388,
stim/posf.jpg,stim/negf.jpg,stim/4.jpg,stim/6.jpg,stim/latef.jpg,AB,2,4,,,,,,,,,0,32,32,17,,,,,,,,,,2,0,0.666456369501,,,,,,2016_Aug_31_0847,P10,PLC_L_D2S1,NHGX,60.0214400388,
stim/posf.jpg,stim/negf.jpg,stim/3.jpg,stim/1.jpg,stim/latef.jpg,EF,2,4,,,,,,,,,0,33,33,53,,,,,,,,,,2,0,0.633116442733,,,,,,2016_Aug_31_0847,P10,PLC_L_D2S1,NHGX,60.0214400388,
stim/negf.jpg,stim/posf.jpg,stim/3.jpg,stim/1.jpg,stim/latef.jpg,EF,2,4,,,,,,,,,0,34,34,57,,,,,,,,,,4,1,0.933029345644,,,,,,2016_Aug_31_0847,P10,PLC_L_D2S1,NHGX,60.0214400388,
stim/negf.jpg,stim/posf.jpg,stim/2.jpg,stim/5.jpg,stim/latef.jpg,CD,1,2,,,,,,,,,0,35,35,28,,,,,,,,,,2,1,0.999675824994,,,,,,2016_Aug_31_0847,P10,PLC_L_D2S1,NHGX,60.0214400388,
stim/posf.jpg,stim/negf.jpg,stim/2.jpg,stim/5.jpg,stim/latef.jpg,CD,1,2,,,,,,,,,0,36,36,21,,,,,,,,,,4,0,0.749754952218,,,,,,2016_Aug_31_0847,P10,PLC_L_D2S1,NHGX,60.0214400388,
stim/posf.jpg,stim/negf.jpg,stim/4.jpg,stim/6.jpg,stim/latef.jpg,AB,2,4,,,,,,,,,0,37,37,15,,,,,,,,,,4,1,0.966347886106,,,,,,2016_Aug_31_0847,P10,PLC_L_D2S1,NHGX,60.0214400388,
stim/posf.jpg,stim/negf.jpg,stim/4.jpg,stim/6.jpg,stim/latef.jpg,AB,2,4,,,,,,,,,0,38,38,14,,,,,,,,,,2,0,0.899688104601,,,,,,2016_Aug_31_0847,P10,PLC_L_D2S1,NHGX,60.0214400388,
stim/posf.jpg,stim/negf.jpg,stim/5.jpg,stim/2.jpg,stim/latef.jpg,CD,2,4,,,,,,,,,0,39,39,31,,,,,,,,,,4,1,0.833029023842,,,,,,2016_Aug_31_0847,P10,PLC_L_D2S1,NHGX,60.0214400388,
stim/negf.jpg,stim/posf.jpg,stim/4.jpg,stim/6.jpg,stim/latef.jpg,AB,2,4,,,,,,,,,0,40,40,18,,,,,,,,,,4,1,0.849667500244,,,,,,2016_Aug_31_0847,P10,PLC_L_D2S1,NHGX,60.0214400388,
stim/posf.jpg,stim/negf.jpg,stim/1.jpg,stim/3.jpg,stim/latef.jpg,EF,1,2,,,,,,,,,0,41,41,40,,,,,,,,,,4,0,0.716416571304,,,,,,2016_Aug_31_0847,P10,PLC_L_D2S1,NHGX,60.0214400388,
stim/posf.jpg,stim/negf.jpg,stim/5.jpg,stim/2.jpg,stim/latef.jpg,CD,2,4,,,,,,,,,0,42,42,30,,,,,,,,,,2,0,0.433187831671,,,,,,2016_Aug_31_0847,P10,PLC_L_D2S1,NHGX,60.0214400388,
stim/posf.jpg,stim/negf.jpg,stim/3.jpg,stim/1.jpg,stim/latef.jpg,EF,2,4,,,,,,,,,0,43,43,54,,,,,,,,,,2,0,1.3495522981,,,,,,2016_Aug_31_0847,P10,PLC_L_D2S1,NHGX,60.0214400388,
stim/posf.jpg,stim/negf.jpg,stim/6.jpg,stim/4.jpg,stim/latef.jpg,AB,1,2,,,,,,,,,0,44,44,4,,,,,,,,,,4,0,1.4328516357,,,,,,2016_Aug_31_0847,P10,PLC_L_D2S1,NHGX,60.0214400388,
stim/posf.jpg,stim/negf.jpg,stim/6.jpg,stim/4.jpg,stim/latef.jpg,AB,1,2,,,,,,,,,0,45,45,0,,,,,,,,,,4,0,0.883027619341,,,,,,2016_Aug_31_0847,P10,PLC_L_D2S1,NHGX,60.0214400388,
stim/posf.jpg,stim/negf.jpg,stim/2.jpg,stim/5.jpg,stim/latef.jpg,CD,1,2,,,,,,,,,0,46,46,22,,,,,,,,,,2,1,0.566453530424,,,,,,2016_Aug_31_0847,P10,PLC_L_D2S1,NHGX,60.0214400388,
stim/posf.jpg,stim/negf.jpg,stim/6.jpg,stim/4.jpg,stim/latef.jpg,AB,1,2,,,,,,,,,0,47,47,3,,,,,,,,,,2,1,0.7997413042,,,,,,2016_Aug_31_0847,P10,PLC_L_D2S1,NHGX,60.0214400388,
stim/posf.jpg,stim/negf.jpg,stim/1.jpg,stim/3.jpg,stim/latef.jpg,EF,1,2,,,,,,,,,0,48,48,41,,,,,,,,,,4,0,0.916353248472,,,,,,2016_Aug_31_0847,P10,PLC_L_D2S1,NHGX,60.0214400388,
stim/posf.jpg,stim/negf.jpg,stim/6.jpg,stim/4.jpg,stim/latef.jpg,AB,1,2,,,,,,,,,0,49,49,1,,,,,,,,,,4,0,0.699774452824,,,,,,2016_Aug_31_0847,P10,PLC_L_D2S1,NHGX,60.0214400388,
stim/negf.jpg,stim/posf.jpg,stim/6.jpg,stim/4.jpg,stim/latef.jpg,AB,1,2,,,,,,,,,0,50,50,8,,,,,,,,,,2,1,0.899708366102,,,,,,2016_Aug_31_0847,P10,PLC_L_D2S1,NHGX,60.0214400388,
stim/posf.jpg,stim/negf.jpg,stim/1.jpg,stim/3.jpg,stim/latef.jpg,EF,1,2,,,,,,,,,0,51,51,42,,,,,,,,,,2,1,1.41620531876,,,,,,2016_Aug_31_0847,P10,PLC_L_D2S1,NHGX,60.0214400388,
stim/posf.jpg,stim/negf.jpg,stim/6.jpg,stim/4.jpg,stim/latef.jpg,AB,1,2,,,,,,,,,0,52,52,5,,,,,,,,,,2,1,1.19962070962,,,,,,2016_Aug_31_0847,P10,PLC_L_D2S1,NHGX,60.0214400388,
stim/negf.jpg,stim/posf.jpg,stim/1.jpg,stim/3.jpg,stim/latef.jpg,EF,1,2,,,,,,,,,0,53,53,47,,,,,,,,,,4,0,1.13294752671,,,,,,2016_Aug_31_0847,P10,PLC_L_D2S1,NHGX,60.0214400388,
stim/negf.jpg,stim/posf.jpg,stim/3.jpg,stim/1.jpg,stim/latef.jpg,EF,2,4,,,,,,,,,0,54,54,56,,,,,,,,,,2,0,1.31622897572,,,,,,2016_Aug_31_0847,P10,PLC_L_D2S1,NHGX,60.0214400388,
stim/negf.jpg,stim/posf.jpg,stim/5.jpg,stim/2.jpg,stim/latef.jpg,CD,2,4,,,,,,,,,0,55,55,38,,,,,,,,,,4,1,1.14962600582,,,,,,2016_Aug_31_0847,P10,PLC_L_D2S1,NHGX,60.0214400388,
stim/posf.jpg,stim/negf.jpg,stim/3.jpg,stim/1.jpg,stim/latef.jpg,EF,2,4,,,,,,,,,0,56,56,55,,,,,,,,,,2,0,1.14962707649,,,,,,2016_Aug_31_0847,P10,PLC_L_D2S1,NHGX,60.0214400388,
stim/posf.jpg,stim/negf.jpg,stim/4.jpg,stim/6.jpg,stim/latef.jpg,AB,2,4,,,,,,,,,0,57,57,12,,,,,,,,,,4,1,0.866391176006,,,,,,2016_Aug_31_0847,P10,PLC_L_D2S1,NHGX,60.0214400388,
stim/posf.jpg,stim/negf.jpg,stim/3.jpg,stim/1.jpg,stim/latef.jpg,EF,2,4,,,,,,,,,0,58,58,50,,,,,,,,,,4,1,0.866364012301,,,,,,2016_Aug_31_0847,P10,PLC_L_D2S1,NHGX,60.0214400388,
stim/negf.jpg,stim/posf.jpg,stim/5.jpg,stim/2.jpg,stim/latef.jpg,CD,2,4,,,,,,,,,0,59,59,39,,,,,,,,,,4,1,0.733092265472,,,,,,2016_Aug_31_0847,P10,PLC_L_D2S1,NHGX,60.0214400388,
,,,,,,,,,,,,,,,,,,,,,,,,,,,,,,,,0.9921875,1.0,1,0,0,2016_Aug_31_0847,P10,PLC_L_D2S1,NHGX,60.0214400388,
stim/posf.jpg,stim/negf.jpg,stim/1.jpg,stim/3.jpg,stim/latef.jpg,EF,1,2,,,,,,,,,,,,,0,0,0,41,,,,,,4,0,0.916352114646,,,,,,2016_Aug_31_0847,P10,PLC_L_D2S1,NHGX,60.0214400388,
stim/posf.jpg,stim/negf.jpg,stim/5.jpg,stim/2.jpg,stim/latef.jpg,CD,2,4,,,,,,,,,,,,,0,1,1,35,,,,,,4,1,0.699765815295,,,,,,2016_Aug_31_0847,P10,PLC_L_D2S1,NHGX,60.0214400388,
stim/posf.jpg,stim/negf.jpg,stim/2.jpg,stim/5.jpg,stim/latef.jpg,CD,1,2,,,,,,,,,,,,,0,2,2,24,,,,,,2,1,0.783121820137,,,,,,2016_Aug_31_0847,P10,PLC_L_D2S1,NHGX,60.0214400388,
stim/posf.jpg,stim/negf.jpg,stim/3.jpg,stim/1.jpg,stim/latef.jpg,EF,2,4,,,,,,,,,,,,,0,3,3,53,,,,,,4,1,0.883071053601,,,,,,2016_Aug_31_0847,P10,PLC_L_D2S1,NHGX,60.0214400388,
stim/posf.jpg,stim/negf.jpg,stim/4.jpg,stim/6.jpg,stim/latef.jpg,AB,2,4,,,,,,,,,,,,,0,4,4,12,,,,,,4,1,0.733064957406,,,,,,2016_Aug_31_0847,P10,PLC_L_D2S1,NHGX,60.0214400388,
stim/posf.jpg,stim/negf.jpg,stim/6.jpg,stim/4.jpg,stim/latef.jpg,AB,1,2,,,,,,,,,,,,,0,5,5,1,,,,,,4,0,0.783077862573,,,,,,2016_Aug_31_0847,P10,PLC_L_D2S1,NHGX,60.0214400388,
stim/negf.jpg,stim/posf.jpg,stim/2.jpg,stim/5.jpg,stim/latef.jpg,CD,1,2,,,,,,,,,,,,,0,6,6,27,,,,,,2,1,0.899657569492,,,,,,2016_Aug_31_0847,P10,PLC_L_D2S1,NHGX,60.0214400388,
stim/negf.jpg,stim/posf.jpg,stim/1.jpg,stim/3.jpg,stim/latef.jpg,EF,1,2,,,,,,,,,,,,,0,7,7,46,,,,,,4,0,0.816393299298,,,,,,2016_Aug_31_0847,P10,PLC_L_D2S1,NHGX,60.0214400388,
stim/negf.jpg,stim/posf.jpg,stim/1.jpg,stim/3.jpg,stim/latef.jpg,EF,1,2,,,,,,,,,,,,,0,8,8,49,,,,,,2,1,0.699809787896,,,,,,2016_Aug_31_0847,P10,PLC_L_D2S1,NHGX,60.0214400388,
stim/posf.jpg,stim/negf.jpg,stim/6.jpg,stim/4.jpg,stim/latef.jpg,AB,1,2,,,,,,,,,,,,,0,9,9,5,,,,,,2,1,0.949704534552,,,,,,2016_Aug_31_0847,P10,PLC_L_D2S1,NHGX,60.0214400388,
stim/negf.jpg,stim/posf.jpg,stim/3.jpg,stim/1.jpg,stim/latef.jpg,EF,2,4,,,,,,,,,,,,,0,10,10,59,,,,,,4,1,0.883035453869,,,,,,2016_Aug_31_0847,P10,PLC_L_D2S1,NHGX,60.0214400388,
stim/posf.jpg,stim/negf.jpg,stim/1.jpg,stim/3.jpg,stim/latef.jpg,EF,1,2,,,,,,,,,,,,,0,11,11,40,,,,,,2,1,0.716434165157,,,,,,2016_Aug_31_0847,P10,PLC_L_D2S1,NHGX,60.0214400388,
stim/negf.jpg,stim/posf.jpg,stim/5.jpg,stim/2.jpg,stim/latef.jpg,CD,2,4,,,,,,,,,,,,,0,12,12,39,,,,,,4,1,0.649794287261,,,,,,2016_Aug_31_0847,P10,PLC_L_D2S1,NHGX,60.0214400388,
stim/negf.jpg,stim/posf.jpg,stim/1.jpg,stim/3.jpg,stim/latef.jpg,EF,1,2,,,,,,,,,,,,,0,13,13,48,,,,,,4,0,1.01632318253,,,,,,2016_Aug_31_0847,P10,PLC_L_D2S1,NHGX,60.0214400388,
stim/posf.jpg,stim/negf.jpg,stim/4.jpg,stim/6.jpg,stim/latef.jpg,AB,2,4,,,,,,,,,,,,,0,14,14,17,,,,,,2,0,1.14963700423,,,,,,2016_Aug_31_0847,P10,PLC_L_D2S1,NHGX,60.0214400388,
stim/negf.jpg,stim/posf.jpg,stim/4.jpg,stim/6.jpg,stim/latef.jpg,AB,2,4,,,,,,,,,,,,,0,15,15,18,,,,,,2,0,1.44952632537,,,,,,2016_Aug_31_0847,P10,PLC_L_D2S1,NHGX,60.0214400388,
stim/posf.jpg,stim/negf.jpg,stim/5.jpg,stim/2.jpg,stim/latef.jpg,CD,2,4,,,,,,,,,,,,,0,16,16,34,,,,,,4,1,0.766412878099,,,,,,2016_Aug_31_0847,P10,PLC_L_D2S1,NHGX,60.0214400388,
stim/negf.jpg,stim/posf.jpg,stim/3.jpg,stim/1.jpg,stim/latef.jpg,EF,2,4,,,,,,,,,,,,,0,17,17,58,,,,,,2,0,0.899678032496,,,,,,2016_Aug_31_0847,P10,PLC_L_D2S1,NHGX,60.0214400388,
stim/posf.jpg,stim/negf.jpg,stim/5.jpg,stim/2.jpg,stim/latef.jpg,CD,2,4,,,,,,,,,,,,,0,18,18,36,,,,,,4,1,0.899724471245,,,,,,2016_Aug_31_0847,P10,PLC_L_D2S1,NHGX,60.0214400388,
stim/posf.jpg,stim/negf.jpg,stim/1.jpg,stim/3.jpg,stim/latef.jpg,EF,1,2,,,,,,,,,,,,,0,19,19,43,,,,,,4,0,1.11631673446,,,,,,2016_Aug_31_0847,P10,PLC_L_D2S1,NHGX,60.0214400388,
stim/posf.jpg,stim/negf.jpg,stim/1.jpg,stim/3.jpg,stim/latef.jpg,EF,1,2,,,,,,,,,,,,,0,20,20,42,,,,,,4,0,0.999678276103,,,,,,2016_Aug_31_0847,P10,PLC_L_D2S1,NHGX,60.0214400388,
stim/posf.jpg,stim/negf.jpg,stim/6.jpg,stim/4.jpg,stim/latef.jpg,AB,1,2,,,,,,,,,,,,,0,21,21,6,,,,,,2,1,1.04966092285,,,,,,2016_Aug_31_0847,P10,PLC_L_D2S1,NHGX,60.0214400388,
stim/posf.jpg,stim/negf.jpg,stim/2.jpg,stim/5.jpg,stim/latef.jpg,CD,1,2,,,,,,,,,,,,,0,22,22,20,,,,,,4,0,1.04965067631,,,,,,2016_Aug_31_0847,P10,PLC_L_D2S1,NHGX,60.0214400388,
stim/posf.jpg,stim/negf.jpg,stim/4.jpg,stim/6.jpg,stim/latef.jpg,AB,2,4,,,,,,,,,,,,,0,23,23,16,,,,,,4,1,0.666434778686,,,,,,2016_Aug_31_0847,P10,PLC_L_D2S1,NHGX,60.0214400388,
stim/posf.jpg,stim/negf.jpg,stim/5.jpg,stim/2.jpg,stim/latef.jpg,CD,2,4,,,,,,,,,,,,,0,24,24,30,,,,,,4,1,0.583094683499,,,,,,2016_Aug_31_0847,P10,PLC_L_D2S1,NHGX,60.0214400388,
stim/posf.jpg,stim/negf.jpg,stim/1.jpg,stim/3.jpg,stim/latef.jpg,EF,1,2,,,,,,,,,,,,,0,25,25,45,,,,,,2,1,0.633123047195,,,,,,2016_Aug_31_0847,P10,PLC_L_D2S1,NHGX,60.0214400388,
stim/posf.jpg,stim/negf.jpg,stim/3.jpg,stim/1.jpg,stim/latef.jpg,EF,2,4,,,,,,,,,,,,,0,26,26,52,,,,,,4,1,0.883044091398,,,,,,2016_Aug_31_0847,P10,PLC_L_D2S1,NHGX,60.0214400388,
stim/negf.jpg,stim/posf.jpg,stim/3.jpg,stim/1.jpg,stim/latef.jpg,EF,2,4,,,,,,,,,,,,,0,27,27,57,,,,,,2,0,0.816384087338,,,,,,2016_Aug_31_0847,P10,PLC_L_D2S1,NHGX,60.0214400388,
stim/negf.jpg,stim/posf.jpg,stim/1.jpg,stim/3.jpg,stim/latef.jpg,EF,1,2,,,,,,,,,,,,,0,28,28,47,,,,,,4,0,0.666377672349,,,,,,2016_Aug_31_0847,P10,PLC_L_D2S1,NHGX,60.0214400388,
stim/negf.jpg,stim/posf.jpg,stim/6.jpg,stim/4.jpg,stim/latef.jpg,AB,1,2,,,,,,,,,,,,,0,29,29,9,,,,,,2,1,0.649783721927,,,,,,2016_Aug_31_0847,P10,PLC_L_D2S1,NHGX,60.0214400388,
stim/posf.jpg,stim/negf.jpg,stim/2.jpg,stim/5.jpg,stim/latef.jpg,CD,1,2,,,,,,,,,,,,,0,30,30,21,,,,,,2,1,0.749726618597,,,,,,2016_Aug_31_0847,P10,PLC_L_D2S1,NHGX,60.0214400388,
stim/posf.jpg,stim/negf.jpg,stim/4.jpg,stim/6.jpg,stim/latef.jpg,AB,2,4,,,,,,,,,,,,,0,31,31,11,,,,,,4,1,0.849742441034,,,,,,2016_Aug_31_0847,P10,PLC_L_D2S1,NHGX,60.0214400388,
stim/negf.jpg,stim/posf.jpg,stim/6.jpg,stim/4.jpg,stim/latef.jpg,AB,1,2,,,,,,,,,,,,,0,32,32,8,,,,,,2,1,1.29955099586,,,,,,2016_Aug_31_0847,P10,PLC_L_D2S1,NHGX,60.0214400388,
stim/negf.jpg,stim/posf.jpg,stim/2.jpg,stim/5.jpg,stim/latef.jpg,CD,1,2,,,,,,,,,,,,,0,33,33,29,,,,,,None,0,,,,,,,2016_Aug_31_0847,P10,PLC_L_D2S1,NHGX,60.0214400388,
stim/posf.jpg,stim/negf.jpg,stim/6.jpg,stim/4.jpg,stim/latef.jpg,AB,1,2,,,,,,,,,,,,,0,34,34,2,,,,,,4,0,1.01635909204,,,,,,2016_Aug_31_0847,P10,PLC_L_D2S1,NHGX,60.0214400388,
stim/posf.jpg,stim/negf.jpg,stim/5.jpg,stim/2.jpg,stim/latef.jpg,CD,2,4,,,,,,,,,,,,,0,35,35,33,,,,,,2,0,0.766427151676,,,,,,2016_Aug_31_0847,P10,PLC_L_D2S1,NHGX,60.0214400388,
stim/posf.jpg,stim/negf.jpg,stim/2.jpg,stim/5.jpg,stim/latef.jpg,CD,1,2,,,,,,,,,,,,,0,36,36,23,,,,,,2,1,1.23292219156,,,,,,2016_Aug_31_0847,P10,PLC_L_D2S1,NHGX,60.0214400388,
stim/posf.jpg,stim/negf.jpg,stim/3.jpg,stim/1.jpg,stim/latef.jpg,EF,2,4,,,,,,,,,,,,,0,37,37,50,,,,,,4,1,0.983005974391,,,,,,2016_Aug_31_0847,P10,PLC_L_D2S1,NHGX,60.0214400388,
stim/posf.jpg,stim/negf.jpg,stim/6.jpg,stim/4.jpg,stim/latef.jpg,AB,1,2,,,,,,,,,,,,,0,38,38,3,,,,,,2,1,0.849657377012,,,,,,2016_Aug_31_0847,P10,PLC_L_D2S1,NHGX,60.0214400388,
stim/posf.jpg,stim/negf.jpg,stim/6.jpg,stim/4.jpg,stim/latef.jpg,AB,1,2,,,,,,,,,,,,,0,39,39,4,,,,,,4,0,1.34953471027,,,,,,2016_Aug_31_0847,P10,PLC_L_D2S1,NHGX,60.0214400388,
stim/posf.jpg,stim/negf.jpg,stim/6.jpg,stim/4.jpg,stim/latef.jpg,AB,1,2,,,,,,,,,,,,,0,40,40,0,,,,,,2,1,0.549801712769,,,,,,2016_Aug_31_0847,P10,PLC_L_D2S1,NHGX,60.0214400388,
stim/posf.jpg,stim/negf.jpg,stim/5.jpg,stim/2.jpg,stim/latef.jpg,CD,2,4,,,,,,,,,,,,,0,41,41,32,,,,,,4,1,0.816394472222,,,,,,2016_Aug_31_0847,P10,PLC_L_D2S1,NHGX,60.0214400388,
stim/posf.jpg,stim/negf.jpg,stim/4.jpg,stim/6.jpg,stim/latef.jpg,AB,2,4,,,,,,,,,,,,,0,42,42,15,,,,,,4,1,0.933130186991,,,,,,2016_Aug_31_0847,P10,PLC_L_D2S1,NHGX,60.0214400388,
stim/posf.jpg,stim/negf.jpg,stim/6.jpg,stim/4.jpg,stim/latef.jpg,AB,1,2,,,,,,,,,,,,,0,43,43,7,,,,,,2,1,1.0996346644,,,,,,2016_Aug_31_0847,P10,PLC_L_D2S1,NHGX,60.0214400388,
stim/negf.jpg,stim/posf.jpg,stim/5.jpg,stim/2.jpg,stim/latef.jpg,CD,2,4,,,,,,,,,,,,,0,44,44,38,,,,,,4,1,1.16629305644,,,,,,2016_Aug_31_0847,P10,PLC_L_D2S1,NHGX,60.0214400388,
stim/posf.jpg,stim/negf.jpg,stim/2.jpg,stim/5.jpg,stim/latef.jpg,CD,1,2,,,,,,,,,,,,,0,45,45,25,,,,,,2,1,1.01634855076,,,,,,2016_Aug_31_0847,P10,PLC_L_D2S1,NHGX,60.0214400388,
stim/posf.jpg,stim/negf.jpg,stim/3.jpg,stim/1.jpg,stim/latef.jpg,EF,2,4,,,,,,,,,,,,,0,46,46,51,,,,,,4,1,0.916325774994,,,,,,2016_Aug_31_0847,P10,PLC_L_D2S1,NHGX,60.0214400388,
stim/posf.jpg,stim/negf.jpg,stim/3.jpg,stim/1.jpg,stim/latef.jpg,EF,2,4,,,,,,,,,,,,,0,47,47,54,,,,,,2,0,0.966343010955,,,,,,2016_Aug_31_0847,P10,PLC_L_D2S1,NHGX,60.0214400388,
stim/negf.jpg,stim/posf.jpg,stim/2.jpg,stim/5.jpg,stim/latef.jpg,CD,1,2,,,,,,,,,,,,,0,48,48,28,,,,,,2,1,0.949728865196,,,,,,2016_Aug_31_0847,P10,PLC_L_D2S1,NHGX,60.0214400388,
stim/negf.jpg,stim/posf.jpg,stim/4.jpg,stim/6.jpg,stim/latef.jpg,AB,2,4,,,,,,,,,,,,,0,49,49,19,,,,,,4,1,0.883052828174,,,,,,2016_Aug_31_0847,P10,PLC_L_D2S1,NHGX,60.0214400388,
stim/posf.jpg,stim/negf.jpg,stim/2.jpg,stim/5.jpg,stim/latef.jpg,CD,1,2,,,,,,,,,,,,,0,50,50,26,,,,,,2,1,0.69976925587,,,,,,2016_Aug_31_0847,P10,PLC_L_D2S1,NHGX,60.0214400388,
stim/posf.jpg,stim/negf.jpg,stim/4.jpg,stim/6.jpg,stim/latef.jpg,AB,2,4,,,,,,,,,,,,,0,51,51,10,,,,,,4,1,0.816408351817,,,,,,2016_Aug_31_0847,P10,PLC_L_D2S1,NHGX,60.0214400388,
stim/posf.jpg,stim/negf.jpg,stim/1.jpg,stim/3.jpg,stim/latef.jpg,EF,1,2,,,,,,,,,,,,,0,52,52,44,,,,,,4,0,0.816404775904,,,,,,2016_Aug_31_0847,P10,PLC_L_D2S1,NHGX,60.0214400388,
stim/posf.jpg,stim/negf.jpg,stim/4.jpg,stim/6.jpg,stim/latef.jpg,AB,2,4,,,,,,,,,,,,,0,53,53,14,,,,,,4,1,0.883061622093,,,,,,2016_Aug_31_0847,P10,PLC_L_D2S1,NHGX,60.0214400388,
stim/negf.jpg,stim/posf.jpg,stim/3.jpg,stim/1.jpg,stim/latef.jpg,EF,2,4,,,,,,,,,,,,,0,54,54,56,,,,,,2,0,1.0829755656,,,,,,2016_Aug_31_0847,P10,PLC_L_D2S1,NHGX,60.0214400388,
stim/posf.jpg,stim/negf.jpg,stim/4.jpg,stim/6.jpg,stim/latef.jpg,AB,2,4,,,,,,,,,,,,,0,55,55,13,,,,,,4,1,1.04966797543,,,,,,2016_Aug_31_0847,P10,PLC_L_D2S1,NHGX,60.0214400388,
stim/posf.jpg,stim/negf.jpg,stim/3.jpg,stim/1.jpg,stim/latef.jpg,EF,2,4,,,,,,,,,,,,,0,56,56,55,,,,,,2,0,0.966351043977,,,,,,2016_Aug_31_0847,P10,PLC_L_D2S1,NHGX,60.0214400388,
stim/posf.jpg,stim/negf.jpg,stim/2.jpg,stim/5.jpg,stim/latef.jpg,CD,1,2,,,,,,,,,,,,,0,57,57,22,,,,,,2,1,0.849721653221,,,,,,2016_Aug_31_0847,P10,PLC_L_D2S1,NHGX,60.0214400388,
stim/negf.jpg,stim/posf.jpg,stim/5.jpg,stim/2.jpg,stim/latef.jpg,CD,2,4,,,,,,,,,,,,,0,58,58,37,,,,,,4,1,0.449848265803,,,,,,2016_Aug_31_0847,P10,PLC_L_D2S1,NHGX,60.0214400388,
stim/posf.jpg,stim/negf.jpg,stim/5.jpg,stim/2.jpg,stim/latef.jpg,CD,2,4,,,,,,,,,,,,,0,59,59,31,,,,,,4,1,0.999653503357,,,,,,2016_Aug_31_0847,P10,PLC_L_D2S1,NHGX,60.0214400388,
