fb_corr,fb_incorr,symbol2,symbol1,fb_late,pair,position,correct,block_01.thisRepN,block_01.thisTrialN,block_01.thisN,block_01.thisIndex,block_02.thisRepN,block_02.thisTrialN,block_02.thisN,block_02.thisIndex,block_03.thisRepN,block_03.thisTrialN,block_03.thisN,block_03.thisIndex,block_04.thisRepN,block_04.thisTrialN,block_04.thisN,block_04.thisIndex,mouse.x,mouse.y,mouse.leftButton,mouse.midButton,mouse.rightButton,buttonBox_2.keys,buttonBox_2.corr,buttonBox_2.rt,mouse_2.x,mouse_2.y,mouse_2.leftButton,mouse_2.midButton,mouse_2.rightButton,date,Participant,expName,Group,frameRate,
,,,,,,,,,,,,,,,,,,,,,,,,0.9984375,0.8203125,1,0,0,,,,,,,,,2016_Sep_22_1348,P15,PLC_L_D2S1,NHGX,60.0207891618,
stim/posf.jpg,stim/negf.jpg,stim/5.jpg,stim/1.jpg,stim/latef.jpg,EF,2,4,0,0,0,55,,,,,,,,,,,,,,,,,,4,1,0.999716388161,,,,,,2016_Sep_22_1348,P15,PLC_L_D2S1,NHGX,60.0207891618,
stim/posf.jpg,stim/negf.jpg,stim/5.jpg,stim/1.jpg,stim/latef.jpg,EF,2,4,0,1,1,52,,,,,,,,,,,,,,,,,,4,1,1.01633684432,,,,,,2016_Sep_22_1348,P15,PLC_L_D2S1,NHGX,60.0207891618,
stim/posf.jpg,stim/negf.jpg,stim/5.jpg,stim/1.jpg,stim/latef.jpg,EF,2,4,0,2,2,50,,,,,,,,,,,,,,,,,,4,1,0.799727275256,,,,,,2016_Sep_22_1348,P15,PLC_L_D2S1,NHGX,60.0207891618,
stim/posf.jpg,stim/negf.jpg,stim/3.jpg,stim/2.jpg,stim/latef.jpg,AB,2,4,0,3,3,17,,,,,,,,,,,,,,,,,,2,0,1.1996015654,,,,,,2016_Sep_22_1348,P15,PLC_L_D2S1,NHGX,60.0207891618,
stim/posf.jpg,stim/negf.jpg,stim/4.jpg,stim/6.jpg,stim/latef.jpg,CD,2,4,0,4,4,32,,,,,,,,,,,,,,,,,,2,0,1.51621013898,,,,,,2016_Sep_22_1348,P15,PLC_L_D2S1,NHGX,60.0207891618,
stim/posf.jpg,stim/negf.jpg,stim/3.jpg,stim/2.jpg,stim/latef.jpg,AB,2,4,0,5,5,16,,,,,,,,,,,,,,,,,,4,1,1.26624347846,,,,,,2016_Sep_22_1348,P15,PLC_L_D2S1,NHGX,60.0207891618,
stim/posf.jpg,stim/negf.jpg,stim/2.jpg,stim/3.jpg,stim/latef.jpg,AB,1,2,0,6,6,7,,,,,,,,,,,,,,,,,,2,1,0.816393652703,,,,,,2016_Sep_22_1348,P15,PLC_L_D2S1,NHGX,60.0207891618,
stim/negf.jpg,stim/posf.jpg,stim/5.jpg,stim/1.jpg,stim/latef.jpg,EF,2,4,0,7,7,58,,,,,,,,,,,,,,,,,,4,1,0.883035370278,,,,,,2016_Sep_22_1348,P15,PLC_L_D2S1,NHGX,60.0207891618,
stim/negf.jpg,stim/posf.jpg,stim/1.jpg,stim/5.jpg,stim/latef.jpg,EF,1,2,0,8,8,49,,,,,,,,,,,,,,,,,,2,1,0.783086674963,,,,,,2016_Sep_22_1348,P15,PLC_L_D2S1,NHGX,60.0207891618,
stim/negf.jpg,stim/posf.jpg,stim/5.jpg,stim/1.jpg,stim/latef.jpg,EF,2,4,0,9,9,56,,,,,,,,,,,,,,,,,,4,1,1.11623162746,,,,,,2016_Sep_22_1348,P15,PLC_L_D2S1,NHGX,60.0207891618,
stim/posf.jpg,stim/negf.jpg,stim/6.jpg,stim/4.jpg,stim/latef.jpg,CD,1,2,0,10,10,20,,,,,,,,,,,,,,,,,,4,0,1.43285655876,,,,,,2016_Sep_22_1348,P15,PLC_L_D2S1,NHGX,60.0207891618,
stim/posf.jpg,stim/negf.jpg,stim/2.jpg,stim/3.jpg,stim/latef.jpg,AB,1,2,0,11,11,2,,,,,,,,,,,,,,,,,,2,1,1.04964559648,,,,,,2016_Sep_22_1348,P15,PLC_L_D2S1,NHGX,60.0207891618,
stim/posf.jpg,stim/negf.jpg,stim/4.jpg,stim/6.jpg,stim/latef.jpg,CD,2,4,0,12,12,36,,,,,,,,,,,,,,,,,,2,0,1.64947189317,,,,,,2016_Sep_22_1348,P15,PLC_L_D2S1,NHGX,60.0207891618,
stim/posf.jpg,stim/negf.jpg,stim/2.jpg,stim/3.jpg,stim/latef.jpg,AB,1,2,0,13,13,3,,,,,,,,,,,,,,,,,,2,1,0.866351898287,,,,,,2016_Sep_22_1348,P15,PLC_L_D2S1,NHGX,60.0207891618,
stim/negf.jpg,stim/posf.jpg,stim/2.jpg,stim/3.jpg,stim/latef.jpg,AB,1,2,0,14,14,8,,,,,,,,,,,,,,,,,,2,1,1.4162062864,,,,,,2016_Sep_22_1348,P15,PLC_L_D2S1,NHGX,60.0207891618,
stim/posf.jpg,stim/negf.jpg,stim/5.jpg,stim/1.jpg,stim/latef.jpg,EF,2,4,0,15,15,54,,,,,,,,,,,,,,,,,,4,1,1.26626111736,,,,,,2016_Sep_22_1348,P15,PLC_L_D2S1,NHGX,60.0207891618,
stim/posf.jpg,stim/negf.jpg,stim/6.jpg,stim/4.jpg,stim/latef.jpg,CD,1,2,0,16,16,21,,,,,,,,,,,,,,,,,,4,0,1.36620953598,,,,,,2016_Sep_22_1348,P15,PLC_L_D2S1,NHGX,60.0207891618,
stim/posf.jpg,stim/negf.jpg,stim/1.jpg,stim/5.jpg,stim/latef.jpg,EF,1,2,0,17,17,41,,,,,,,,,,,,,,,,,,2,1,0.76637505592,,,,,,2016_Sep_22_1348,P15,PLC_L_D2S1,NHGX,60.0207891618,
stim/posf.jpg,stim/negf.jpg,stim/4.jpg,stim/6.jpg,stim/latef.jpg,CD,2,4,0,18,18,30,,,,,,,,,,,,,,,,,,4,1,1.0329949963,,,,,,2016_Sep_22_1348,P15,PLC_L_D2S1,NHGX,60.0207891618,
stim/posf.jpg,stim/negf.jpg,stim/6.jpg,stim/4.jpg,stim/latef.jpg,CD,1,2,0,19,19,22,,,,,,,,,,,,,,,,,,2,1,0.716429856806,,,,,,2016_Sep_22_1348,P15,PLC_L_D2S1,NHGX,60.0207891618,
stim/negf.jpg,stim/posf.jpg,stim/4.jpg,stim/6.jpg,stim/latef.jpg,CD,2,4,0,20,20,37,,,,,,,,,,,,,,,,,,4,1,0.849719550531,,,,,,2016_Sep_22_1348,P15,PLC_L_D2S1,NHGX,60.0207891618,
stim/posf.jpg,stim/negf.jpg,stim/4.jpg,stim/6.jpg,stim/latef.jpg,CD,2,4,0,21,21,34,,,,,,,,,,,,,,,,,,4,1,0.499816931388,,,,,,2016_Sep_22_1348,P15,PLC_L_D2S1,NHGX,60.0207891618,
stim/posf.jpg,stim/negf.jpg,stim/1.jpg,stim/5.jpg,stim/latef.jpg,EF,1,2,0,22,22,45,,,,,,,,,,,,,,,,,,2,1,0.933015967489,,,,,,2016_Sep_22_1348,P15,PLC_L_D2S1,NHGX,60.0207891618,
stim/posf.jpg,stim/negf.jpg,stim/3.jpg,stim/2.jpg,stim/latef.jpg,AB,2,4,0,23,23,15,,,,,,,,,,,,,,,,,,4,1,0.91626043616,,,,,,2016_Sep_22_1348,P15,PLC_L_D2S1,NHGX,60.0207891618,
stim/posf.jpg,stim/negf.jpg,stim/1.jpg,stim/5.jpg,stim/latef.jpg,EF,1,2,0,24,24,40,,,,,,,,,,,,,,,,,,2,1,0.833050370109,,,,,,2016_Sep_22_1348,P15,PLC_L_D2S1,NHGX,60.0207891618,
stim/posf.jpg,stim/negf.jpg,stim/4.jpg,stim/6.jpg,stim/latef.jpg,CD,2,4,0,25,25,35,,,,,,,,,,,,,,,,,,4,1,1.56614098939,,,,,,2016_Sep_22_1348,P15,PLC_L_D2S1,NHGX,60.0207891618,
stim/posf.jpg,stim/negf.jpg,stim/3.jpg,stim/2.jpg,stim/latef.jpg,AB,2,4,0,26,26,11,,,,,,,,,,,,,,,,,,4,1,0.916339960076,,,,,,2016_Sep_22_1348,P15,PLC_L_D2S1,NHGX,60.0207891618,
stim/posf.jpg,stim/negf.jpg,stim/2.jpg,stim/3.jpg,stim/latef.jpg,AB,1,2,0,27,27,5,,,,,,,,,,,,,,,,,,2,1,0.8830563535,,,,,,2016_Sep_22_1348,P15,PLC_L_D2S1,NHGX,60.0207891618,
stim/posf.jpg,stim/negf.jpg,stim/3.jpg,stim/2.jpg,stim/latef.jpg,AB,2,4,0,28,28,13,,,,,,,,,,,,,,,,,,4,1,0.949692513243,,,,,,2016_Sep_22_1348,P15,PLC_L_D2S1,NHGX,60.0207891618,
stim/posf.jpg,stim/negf.jpg,stim/2.jpg,stim/3.jpg,stim/latef.jpg,AB,1,2,0,29,29,6,,,,,,,,,,,,,,,,,,2,1,0.833055624184,,,,,,2016_Sep_22_1348,P15,PLC_L_D2S1,NHGX,60.0207891618,
stim/negf.jpg,stim/posf.jpg,stim/1.jpg,stim/5.jpg,stim/latef.jpg,EF,1,2,0,30,30,46,,,,,,,,,,,,,,,,,,2,1,0.916314670135,,,,,,2016_Sep_22_1348,P15,PLC_L_D2S1,NHGX,60.0207891618,
stim/posf.jpg,stim/negf.jpg,stim/2.jpg,stim/3.jpg,stim/latef.jpg,AB,1,2,0,31,31,0,,,,,,,,,,,,,,,,,,2,1,0.716417324616,,,,,,2016_Sep_22_1348,P15,PLC_L_D2S1,NHGX,60.0207891618,
stim/posf.jpg,stim/negf.jpg,stim/2.jpg,stim/3.jpg,stim/latef.jpg,AB,1,2,0,32,32,1,,,,,,,,,,,,,,,,,,2,1,0.699737407473,,,,,,2016_Sep_22_1348,P15,PLC_L_D2S1,NHGX,60.0207891618,
stim/negf.jpg,stim/posf.jpg,stim/1.jpg,stim/5.jpg,stim/latef.jpg,EF,1,2,0,33,33,48,,,,,,,,,,,,,,,,,,2,1,0.699780080676,,,,,,2016_Sep_22_1348,P15,PLC_L_D2S1,NHGX,60.0207891618,
stim/negf.jpg,stim/posf.jpg,stim/4.jpg,stim/6.jpg,stim/latef.jpg,CD,2,4,0,34,34,39,,,,,,,,,,,,,,,,,,4,1,1.16628687346,,,,,,2016_Sep_22_1348,P15,PLC_L_D2S1,NHGX,60.0207891618,
stim/negf.jpg,stim/posf.jpg,stim/2.jpg,stim/3.jpg,stim/latef.jpg,AB,1,2,0,35,35,9,,,,,,,,,,,,,,,,,,2,1,1.16635533885,,,,,,2016_Sep_22_1348,P15,PLC_L_D2S1,NHGX,60.0207891618,
stim/posf.jpg,stim/negf.jpg,stim/5.jpg,stim/1.jpg,stim/latef.jpg,EF,2,4,0,36,36,53,,,,,,,,,,,,,,,,,,4,1,0.916378455882,,,,,,2016_Sep_22_1348,P15,PLC_L_D2S1,NHGX,60.0207891618,
stim/posf.jpg,stim/negf.jpg,stim/6.jpg,stim/4.jpg,stim/latef.jpg,CD,1,2,0,37,37,24,,,,,,,,,,,,,,,,,,2,1,0.882992757225,,,,,,2016_Sep_22_1348,P15,PLC_L_D2S1,NHGX,60.0207891618,
stim/posf.jpg,stim/negf.jpg,stim/6.jpg,stim/4.jpg,stim/latef.jpg,CD,1,2,0,38,38,25,,,,,,,,,,,,,,,,,,2,1,0.883007704424,,,,,,2016_Sep_22_1348,P15,PLC_L_D2S1,NHGX,60.0207891618,
stim/negf.jpg,stim/posf.jpg,stim/6.jpg,stim/4.jpg,stim/latef.jpg,CD,1,2,0,39,39,27,,,,,,,,,,,,,,,,,,2,1,0.666452931734,,,,,,2016_Sep_22_1348,P15,PLC_L_D2S1,NHGX,60.0207891618,
stim/posf.jpg,stim/negf.jpg,stim/4.jpg,stim/6.jpg,stim/latef.jpg,CD,2,4,0,40,40,31,,,,,,,,,,,,,,,,,,4,1,0.716400085713,,,,,,2016_Sep_22_1348,P15,PLC_L_D2S1,NHGX,60.0207891618,
stim/posf.jpg,stim/negf.jpg,stim/6.jpg,stim/4.jpg,stim/latef.jpg,CD,1,2,0,41,41,23,,,,,,,,,,,,,,,,,,2,1,0.816379180686,,,,,,2016_Sep_22_1348,P15,PLC_L_D2S1,NHGX,60.0207891618,
stim/negf.jpg,stim/posf.jpg,stim/6.jpg,stim/4.jpg,stim/latef.jpg,CD,1,2,0,42,42,29,,,,,,,,,,,,,,,,,,2,1,0.933003892437,,,,,,2016_Sep_22_1348,P15,PLC_L_D2S1,NHGX,60.0207891618,
stim/negf.jpg,stim/posf.jpg,stim/6.jpg,stim/4.jpg,stim/latef.jpg,CD,1,2,0,43,43,28,,,,,,,,,,,,,,,,,,2,1,0.799722318921,,,,,,2016_Sep_22_1348,P15,PLC_L_D2S1,NHGX,60.0207891618,
stim/negf.jpg,stim/posf.jpg,stim/1.jpg,stim/5.jpg,stim/latef.jpg,EF,1,2,0,44,44,47,,,,,,,,,,,,,,,,,,2,1,0.916335496968,,,,,,2016_Sep_22_1348,P15,PLC_L_D2S1,NHGX,60.0207891618,
stim/posf.jpg,stim/negf.jpg,stim/5.jpg,stim/1.jpg,stim/latef.jpg,EF,2,4,0,45,45,51,,,,,,,,,,,,,,,,,,4,1,0.799731181979,,,,,,2016_Sep_22_1348,P15,PLC_L_D2S1,NHGX,60.0207891618,
stim/posf.jpg,stim/negf.jpg,stim/1.jpg,stim/5.jpg,stim/latef.jpg,EF,1,2,0,46,46,44,,,,,,,,,,,,,,,,,,2,1,0.91636196885,,,,,,2016_Sep_22_1348,P15,PLC_L_D2S1,NHGX,60.0207891618,
stim/posf.jpg,stim/negf.jpg,stim/1.jpg,stim/5.jpg,stim/latef.jpg,EF,1,2,0,47,47,42,,,,,,,,,,,,,,,,,,2,1,1.14961628553,,,,,,2016_Sep_22_1348,P15,PLC_L_D2S1,NHGX,60.0207891618,
stim/negf.jpg,stim/posf.jpg,stim/4.jpg,stim/6.jpg,stim/latef.jpg,CD,2,4,0,48,48,38,,,,,,,,,,,,,,,,,,4,1,0.899751067469,,,,,,2016_Sep_22_1348,P15,PLC_L_D2S1,NHGX,60.0207891618,
stim/negf.jpg,stim/posf.jpg,stim/3.jpg,stim/2.jpg,stim/latef.jpg,AB,2,4,0,49,49,19,,,,,,,,,,,,,,,,,,4,1,0.683115871625,,,,,,2016_Sep_22_1348,P15,PLC_L_D2S1,NHGX,60.0207891618,
stim/posf.jpg,stim/negf.jpg,stim/3.jpg,stim/2.jpg,stim/latef.jpg,AB,2,4,0,50,50,14,,,,,,,,,,,,,,,,,,4,1,0.649767092852,,,,,,2016_Sep_22_1348,P15,PLC_L_D2S1,NHGX,60.0207891618,
stim/posf.jpg,stim/negf.jpg,stim/3.jpg,stim/2.jpg,stim/latef.jpg,AB,2,4,0,51,51,12,,,,,,,,,,,,,,,,,,4,1,0.616463179739,,,,,,2016_Sep_22_1348,P15,PLC_L_D2S1,NHGX,60.0207891618,
stim/negf.jpg,stim/posf.jpg,stim/5.jpg,stim/1.jpg,stim/latef.jpg,EF,2,4,0,52,52,59,,,,,,,,,,,,,,,,,,4,1,0.699759217754,,,,,,2016_Sep_22_1348,P15,PLC_L_D2S1,NHGX,60.0207891618,
stim/posf.jpg,stim/negf.jpg,stim/3.jpg,stim/2.jpg,stim/latef.jpg,AB,2,4,0,53,53,10,,,,,,,,,,,,,,,,,,4,1,0.699750625369,,,,,,2016_Sep_22_1348,P15,PLC_L_D2S1,NHGX,60.0207891618,
stim/posf.jpg,stim/negf.jpg,stim/1.jpg,stim/5.jpg,stim/latef.jpg,EF,1,2,0,54,54,43,,,,,,,,,,,,,,,,,,2,1,0.716427784649,,,,,,2016_Sep_22_1348,P15,PLC_L_D2S1,NHGX,60.0207891618,
stim/posf.jpg,stim/negf.jpg,stim/6.jpg,stim/4.jpg,stim/latef.jpg,CD,1,2,0,55,55,26,,,,,,,,,,,,,,,,,,2,1,1.19959278354,,,,,,2016_Sep_22_1348,P15,PLC_L_D2S1,NHGX,60.0207891618,
stim/posf.jpg,stim/negf.jpg,stim/2.jpg,stim/3.jpg,stim/latef.jpg,AB,1,2,0,56,56,4,,,,,,,,,,,,,,,,,,2,1,0.716431883851,,,,,,2016_Sep_22_1348,P15,PLC_L_D2S1,NHGX,60.0207891618,
stim/negf.jpg,stim/posf.jpg,stim/5.jpg,stim/1.jpg,stim/latef.jpg,EF,2,4,0,57,57,57,,,,,,,,,,,,,,,,,,4,1,0.699769187565,,,,,,2016_Sep_22_1348,P15,PLC_L_D2S1,NHGX,60.0207891618,
stim/posf.jpg,stim/negf.jpg,stim/4.jpg,stim/6.jpg,stim/latef.jpg,CD,2,4,0,58,58,33,,,,,,,,,,,,,,,,,,4,1,0.96632946245,,,,,,2016_Sep_22_1348,P15,PLC_L_D2S1,NHGX,60.0207891618,
stim/negf.jpg,stim/posf.jpg,stim/3.jpg,stim/2.jpg,stim/latef.jpg,AB,2,4,0,59,59,18,,,,,,,,,,,,,,,,,,4,1,0.766406463085,,,,,,2016_Sep_22_1348,P15,PLC_L_D2S1,NHGX,60.0207891618,
,,,,,,,,,,,,,,,,,,,,,,,,,,,,,,,,0.9984375,0.8203125,1,0,0,2016_Sep_22_1348,P15,PLC_L_D2S1,NHGX,60.0207891618,
stim/posf.jpg,stim/negf.jpg,stim/1.jpg,stim/5.jpg,stim/latef.jpg,EF,1,2,,,,,0,0,0,41,,,,,,,,,,,,,,2,1,0.983003921009,,,,,,2016_Sep_22_1348,P15,PLC_L_D2S1,NHGX,60.0207891618,
stim/posf.jpg,stim/negf.jpg,stim/2.jpg,stim/3.jpg,stim/latef.jpg,AB,1,2,,,,,0,1,1,0,,,,,,,,,,,,,,2,1,0.766416330643,,,,,,2016_Sep_22_1348,P15,PLC_L_D2S1,NHGX,60.0207891618,
stim/posf.jpg,stim/negf.jpg,stim/4.jpg,stim/6.jpg,stim/latef.jpg,CD,2,4,,,,,0,2,2,30,,,,,,,,,,,,,,4,1,0.949689523802,,,,,,2016_Sep_22_1348,P15,PLC_L_D2S1,NHGX,60.0207891618,
stim/posf.jpg,stim/negf.jpg,stim/6.jpg,stim/4.jpg,stim/latef.jpg,CD,1,2,,,,,0,3,3,21,,,,,,,,,,,,,,2,1,0.716359162867,,,,,,2016_Sep_22_1348,P15,PLC_L_D2S1,NHGX,60.0207891618,
stim/negf.jpg,stim/posf.jpg,stim/1.jpg,stim/5.jpg,stim/latef.jpg,EF,1,2,,,,,0,4,4,49,,,,,,,,,,,,,,2,1,0.7164221396,,,,,,2016_Sep_22_1348,P15,PLC_L_D2S1,NHGX,60.0207891618,
stim/posf.jpg,stim/negf.jpg,stim/4.jpg,stim/6.jpg,stim/latef.jpg,CD,2,4,,,,,0,5,5,31,,,,,,,,,,,,,,4,1,0.616508036375,,,,,,2016_Sep_22_1348,P15,PLC_L_D2S1,NHGX,60.0207891618,
stim/negf.jpg,stim/posf.jpg,stim/6.jpg,stim/4.jpg,stim/latef.jpg,CD,1,2,,,,,0,6,6,29,,,,,,,,,,,,,,2,1,0.49981905768,,,,,,2016_Sep_22_1348,P15,PLC_L_D2S1,NHGX,60.0207891618,
stim/negf.jpg,stim/posf.jpg,stim/5.jpg,stim/1.jpg,stim/latef.jpg,EF,2,4,,,,,0,7,7,57,,,,,,,,,,,,,,2,0,0.516459679026,,,,,,2016_Sep_22_1348,P15,PLC_L_D2S1,NHGX,60.0207891618,
stim/posf.jpg,stim/negf.jpg,stim/6.jpg,stim/4.jpg,stim/latef.jpg,CD,1,2,,,,,0,8,8,22,,,,,,,,,,,,,,2,1,1.53282760871,,,,,,2016_Sep_22_1348,P15,PLC_L_D2S1,NHGX,60.0207891618,
stim/posf.jpg,stim/negf.jpg,stim/5.jpg,stim/1.jpg,stim/latef.jpg,EF,2,4,,,,,0,9,9,54,,,,,,,,,,,,,,4,1,0.833045128063,,,,,,2016_Sep_22_1348,P15,PLC_L_D2S1,NHGX,60.0207891618,
stim/posf.jpg,stim/negf.jpg,stim/2.jpg,stim/3.jpg,stim/latef.jpg,AB,1,2,,,,,0,10,10,5,,,,,,,,,,,,,,2,1,0.633120321199,,,,,,2016_Sep_22_1348,P15,PLC_L_D2S1,NHGX,60.0207891618,
stim/posf.jpg,stim/negf.jpg,stim/6.jpg,stim/4.jpg,stim/latef.jpg,CD,1,2,,,,,0,11,11,23,,,,,,,,,,,,,,2,1,0.949670149585,,,,,,2016_Sep_22_1348,P15,PLC_L_D2S1,NHGX,60.0207891618,
stim/posf.jpg,stim/negf.jpg,stim/1.jpg,stim/5.jpg,stim/latef.jpg,EF,1,2,,,,,0,12,12,40,,,,,,,,,,,,,,2,1,0.799716493423,,,,,,2016_Sep_22_1348,P15,PLC_L_D2S1,NHGX,60.0207891618,
stim/posf.jpg,stim/negf.jpg,stim/3.jpg,stim/2.jpg,stim/latef.jpg,AB,2,4,,,,,0,13,13,10,,,,,,,,,,,,,,4,1,0.566450994914,,,,,,2016_Sep_22_1348,P15,PLC_L_D2S1,NHGX,60.0207891618,
stim/posf.jpg,stim/negf.jpg,stim/5.jpg,stim/1.jpg,stim/latef.jpg,EF,2,4,,,,,0,14,14,50,,,,,,,,,,,,,,4,1,0.566479550982,,,,,,2016_Sep_22_1348,P15,PLC_L_D2S1,NHGX,60.0207891618,
stim/posf.jpg,stim/negf.jpg,stim/6.jpg,stim/4.jpg,stim/latef.jpg,CD,1,2,,,,,0,15,15,25,,,,,,,,,,,,,,2,1,0.599793590298,,,,,,2016_Sep_22_1348,P15,PLC_L_D2S1,NHGX,60.0207891618,
stim/posf.jpg,stim/negf.jpg,stim/4.jpg,stim/6.jpg,stim/latef.jpg,CD,2,4,,,,,0,16,16,34,,,,,,,,,,,,,,4,1,0.566458152728,,,,,,2016_Sep_22_1348,P15,PLC_L_D2S1,NHGX,60.0207891618,
stim/negf.jpg,stim/posf.jpg,stim/6.jpg,stim/4.jpg,stim/latef.jpg,CD,1,2,,,,,0,17,17,28,,,,,,,,,,,,,,2,1,0.916328700052,,,,,,2016_Sep_22_1348,P15,PLC_L_D2S1,NHGX,60.0207891618,
stim/negf.jpg,stim/posf.jpg,stim/1.jpg,stim/5.jpg,stim/latef.jpg,EF,1,2,,,,,0,18,18,48,,,,,,,,,,,,,,2,1,0.699766658271,,,,,,2016_Sep_22_1348,P15,PLC_L_D2S1,NHGX,60.0207891618,
stim/negf.jpg,stim/posf.jpg,stim/3.jpg,stim/2.jpg,stim/latef.jpg,AB,2,4,,,,,0,19,19,18,,,,,,,,,,,,,,4,1,0.59981007733,,,,,,2016_Sep_22_1348,P15,PLC_L_D2S1,NHGX,60.0207891618,
stim/posf.jpg,stim/negf.jpg,stim/6.jpg,stim/4.jpg,stim/latef.jpg,CD,1,2,,,,,0,20,20,24,,,,,,,,,,,,,,2,1,0.716458719638,,,,,,2016_Sep_22_1348,P15,PLC_L_D2S1,NHGX,60.0207891618,
stim/negf.jpg,stim/posf.jpg,stim/4.jpg,stim/6.jpg,stim/latef.jpg,CD,2,4,,,,,0,21,21,38,,,,,,,,,,,,,,4,1,0.566464913554,,,,,,2016_Sep_22_1348,P15,PLC_L_D2S1,NHGX,60.0207891618,
stim/posf.jpg,stim/negf.jpg,stim/3.jpg,stim/2.jpg,stim/latef.jpg,AB,2,4,,,,,0,22,22,16,,,,,,,,,,,,,,4,1,0.599800038346,,,,,,2016_Sep_22_1348,P15,PLC_L_D2S1,NHGX,60.0207891618,
stim/posf.jpg,stim/negf.jpg,stim/3.jpg,stim/2.jpg,stim/latef.jpg,AB,2,4,,,,,0,23,23,17,,,,,,,,,,,,,,4,1,0.816401433066,,,,,,2016_Sep_22_1348,P15,PLC_L_D2S1,NHGX,60.0207891618,
stim/posf.jpg,stim/negf.jpg,stim/4.jpg,stim/6.jpg,stim/latef.jpg,CD,2,4,,,,,0,24,24,36,,,,,,,,,,,,,,4,1,1.08295707342,,,,,,2016_Sep_22_1348,P15,PLC_L_D2S1,NHGX,60.0207891618,
stim/negf.jpg,stim/posf.jpg,stim/3.jpg,stim/2.jpg,stim/latef.jpg,AB,2,4,,,,,0,25,25,19,,,,,,,,,,,,,,4,1,0.766407605929,,,,,,2016_Sep_22_1348,P15,PLC_L_D2S1,NHGX,60.0207891618,
stim/negf.jpg,stim/posf.jpg,stim/2.jpg,stim/3.jpg,stim/latef.jpg,AB,1,2,,,,,0,26,26,9,,,,,,,,,,,,,,2,1,1.23293047071,,,,,,2016_Sep_22_1348,P15,PLC_L_D2S1,NHGX,60.0207891618,
stim/posf.jpg,stim/negf.jpg,stim/5.jpg,stim/1.jpg,stim/latef.jpg,EF,2,4,,,,,0,27,27,55,,,,,,,,,,,,,,4,1,0.783081324647,,,,,,2016_Sep_22_1348,P15,PLC_L_D2S1,NHGX,60.0207891618,
stim/negf.jpg,stim/posf.jpg,stim/5.jpg,stim/1.jpg,stim/latef.jpg,EF,2,4,,,,,0,28,28,58,,,,,,,,,,,,,,4,1,0.683109787484,,,,,,2016_Sep_22_1348,P15,PLC_L_D2S1,NHGX,60.0207891618,
stim/posf.jpg,stim/negf.jpg,stim/3.jpg,stim/2.jpg,stim/latef.jpg,AB,2,4,,,,,0,29,29,13,,,,,,,,,,,,,,4,1,0.666446877667,,,,,,2016_Sep_22_1348,P15,PLC_L_D2S1,NHGX,60.0207891618,
stim/posf.jpg,stim/negf.jpg,stim/2.jpg,stim/3.jpg,stim/latef.jpg,AB,1,2,,,,,0,30,30,2,,,,,,,,,,,,,,2,1,0.68311000703,,,,,,2016_Sep_22_1348,P15,PLC_L_D2S1,NHGX,60.0207891618,
stim/negf.jpg,stim/posf.jpg,stim/5.jpg,stim/1.jpg,stim/latef.jpg,EF,2,4,,,,,0,31,31,56,,,,,,,,,,,,,,4,1,0.733089302,,,,,,2016_Sep_22_1348,P15,PLC_L_D2S1,NHGX,60.0207891618,
stim/posf.jpg,stim/negf.jpg,stim/4.jpg,stim/6.jpg,stim/latef.jpg,CD,2,4,,,,,0,32,32,35,,,,,,,,,,,,,,4,1,1.06631207016,,,,,,2016_Sep_22_1348,P15,PLC_L_D2S1,NHGX,60.0207891618,
stim/negf.jpg,stim/posf.jpg,stim/4.jpg,stim/6.jpg,stim/latef.jpg,CD,2,4,,,,,0,33,33,39,,,,,,,,,,,,,,4,1,1.04967447435,,,,,,2016_Sep_22_1348,P15,PLC_L_D2S1,NHGX,60.0207891618,
stim/posf.jpg,stim/negf.jpg,stim/5.jpg,stim/1.jpg,stim/latef.jpg,EF,2,4,,,,,0,34,34,52,,,,,,,,,,,,,,4,1,0.699715233286,,,,,,2016_Sep_22_1348,P15,PLC_L_D2S1,NHGX,60.0207891618,
stim/posf.jpg,stim/negf.jpg,stim/2.jpg,stim/3.jpg,stim/latef.jpg,AB,1,2,,,,,0,35,35,6,,,,,,,,,,,,,,2,1,1.11630933486,,,,,,2016_Sep_22_1348,P15,PLC_L_D2S1,NHGX,60.0207891618,
stim/negf.jpg,stim/posf.jpg,stim/5.jpg,stim/1.jpg,stim/latef.jpg,EF,2,4,,,,,0,36,36,59,,,,,,,,,,,,,,4,1,0.833023128311,,,,,,2016_Sep_22_1348,P15,PLC_L_D2S1,NHGX,60.0207891618,
stim/negf.jpg,stim/posf.jpg,stim/6.jpg,stim/4.jpg,stim/latef.jpg,CD,1,2,,,,,0,37,37,27,,,,,,,,,,,,,,2,1,0.88305440465,,,,,,2016_Sep_22_1348,P15,PLC_L_D2S1,NHGX,60.0207891618,
stim/negf.jpg,stim/posf.jpg,stim/4.jpg,stim/6.jpg,stim/latef.jpg,CD,2,4,,,,,0,38,38,37,,,,,,,,,,,,,,4,1,0.616429805679,,,,,,2016_Sep_22_1348,P15,PLC_L_D2S1,NHGX,60.0207891618,
stim/posf.jpg,stim/negf.jpg,stim/3.jpg,stim/2.jpg,stim/latef.jpg,AB,2,4,,,,,0,39,39,12,,,,,,,,,,,,,,4,1,0.916355205016,,,,,,2016_Sep_22_1348,P15,PLC_L_D2S1,NHGX,60.0207891618,
stim/negf.jpg,stim/posf.jpg,stim/2.jpg,stim/3.jpg,stim/latef.jpg,AB,1,2,,,,,0,40,40,8,,,,,,,,,,,,,,2,1,0.98301891332,,,,,,2016_Sep_22_1348,P15,PLC_L_D2S1,NHGX,60.0207891618,
stim/posf.jpg,stim/negf.jpg,stim/2.jpg,stim/3.jpg,stim/latef.jpg,AB,1,2,,,,,0,41,41,3,,,,,,,,,,,,,,2,1,0.816386121961,,,,,,2016_Sep_22_1348,P15,PLC_L_D2S1,NHGX,60.0207891618,
stim/posf.jpg,stim/negf.jpg,stim/1.jpg,stim/5.jpg,stim/latef.jpg,EF,1,2,,,,,0,42,42,45,,,,,,,,,,,,,,2,1,1.03301876445,,,,,,2016_Sep_22_1348,P15,PLC_L_D2S1,NHGX,60.0207891618,
stim/posf.jpg,stim/negf.jpg,stim/1.jpg,stim/5.jpg,stim/latef.jpg,EF,1,2,,,,,0,43,43,43,,,,,,,,,,,,,,2,1,0.866365672568,,,,,,2016_Sep_22_1348,P15,PLC_L_D2S1,NHGX,60.0207891618,
stim/posf.jpg,stim/negf.jpg,stim/5.jpg,stim/1.jpg,stim/latef.jpg,EF,2,4,,,,,0,44,44,53,,,,,,,,,,,,,,4,1,0.649789327188,,,,,,2016_Sep_22_1348,P15,PLC_L_D2S1,NHGX,60.0207891618,
stim/negf.jpg,stim/posf.jpg,stim/1.jpg,stim/5.jpg,stim/latef.jpg,EF,1,2,,,,,0,45,45,46,,,,,,,,,,,,,,2,1,0.84965321143,,,,,,2016_Sep_22_1348,P15,PLC_L_D2S1,NHGX,60.0207891618,
stim/posf.jpg,stim/negf.jpg,stim/3.jpg,stim/2.jpg,stim/latef.jpg,AB,2,4,,,,,0,46,46,15,,,,,,,,,,,,,,4,1,0.8997031041,,,,,,2016_Sep_22_1348,P15,PLC_L_D2S1,NHGX,60.0207891618,
stim/posf.jpg,stim/negf.jpg,stim/6.jpg,stim/4.jpg,stim/latef.jpg,CD,1,2,,,,,0,47,47,26,,,,,,,,,,,,,,2,1,1.08297316948,,,,,,2016_Sep_22_1348,P15,PLC_L_D2S1,NHGX,60.0207891618,
stim/posf.jpg,stim/negf.jpg,stim/4.jpg,stim/6.jpg,stim/latef.jpg,CD,2,4,,,,,0,48,48,33,,,,,,,,,,,,,,4,1,0.949655202385,,,,,,2016_Sep_22_1348,P15,PLC_L_D2S1,NHGX,60.0207891618,
stim/posf.jpg,stim/negf.jpg,stim/5.jpg,stim/1.jpg,stim/latef.jpg,EF,2,4,,,,,0,49,49,51,,,,,,,,,,,,,,4,1,1.18291802724,,,,,,2016_Sep_22_1348,P15,PLC_L_D2S1,NHGX,60.0207891618,
stim/posf.jpg,stim/negf.jpg,stim/4.jpg,stim/6.jpg,stim/latef.jpg,CD,2,4,,,,,0,50,50,32,,,,,,,,,,,,,,4,1,1.03298697834,,,,,,2016_Sep_22_1348,P15,PLC_L_D2S1,NHGX,60.0207891618,
stim/negf.jpg,stim/posf.jpg,stim/1.jpg,stim/5.jpg,stim/latef.jpg,EF,1,2,,,,,0,51,51,47,,,,,,,,,,,,,,2,1,0.98300699165,,,,,,2016_Sep_22_1348,P15,PLC_L_D2S1,NHGX,60.0207891618,
stim/posf.jpg,stim/negf.jpg,stim/3.jpg,stim/2.jpg,stim/latef.jpg,AB,2,4,,,,,0,52,52,14,,,,,,,,,,,,,,4,1,0.932988307651,,,,,,2016_Sep_22_1348,P15,PLC_L_D2S1,NHGX,60.0207891618,
stim/posf.jpg,stim/negf.jpg,stim/1.jpg,stim/5.jpg,stim/latef.jpg,EF,1,2,,,,,0,53,53,42,,,,,,,,,,,,,,2,1,0.666435253738,,,,,,2016_Sep_22_1348,P15,PLC_L_D2S1,NHGX,60.0207891618,
stim/posf.jpg,stim/negf.jpg,stim/2.jpg,stim/3.jpg,stim/latef.jpg,AB,1,2,,,,,0,54,54,7,,,,,,,,,,,,,,2,1,0.699775999519,,,,,,2016_Sep_22_1348,P15,PLC_L_D2S1,NHGX,60.0207891618,
stim/posf.jpg,stim/negf.jpg,stim/2.jpg,stim/3.jpg,stim/latef.jpg,AB,1,2,,,,,0,55,55,1,,,,,,,,,,,,,,2,1,0.866366015421,,,,,,2016_Sep_22_1348,P15,PLC_L_D2S1,NHGX,60.0207891618,
stim/posf.jpg,stim/negf.jpg,stim/1.jpg,stim/5.jpg,stim/latef.jpg,EF,1,2,,,,,0,56,56,44,,,,,,,,,,,,,,2,1,0.683112794969,,,,,,2016_Sep_22_1348,P15,PLC_L_D2S1,NHGX,60.0207891618,
stim/posf.jpg,stim/negf.jpg,stim/2.jpg,stim/3.jpg,stim/latef.jpg,AB,1,2,,,,,0,57,57,4,,,,,,,,,,,,,,2,1,0.866376857404,,,,,,2016_Sep_22_1348,P15,PLC_L_D2S1,NHGX,60.0207891618,
stim/posf.jpg,stim/negf.jpg,stim/3.jpg,stim/2.jpg,stim/latef.jpg,AB,2,4,,,,,0,58,58,11,,,,,,,,,,,,,,4,1,0.665447908482,,,,,,2016_Sep_22_1348,P15,PLC_L_D2S1,NHGX,60.0207891618,
stim/posf.jpg,stim/negf.jpg,stim/6.jpg,stim/4.jpg,stim/latef.jpg,CD,1,2,,,,,0,59,59,20,,,,,,,,,,,,,,2,1,0.783069276662,,,,,,2016_Sep_22_1348,P15,PLC_L_D2S1,NHGX,60.0207891618,
,,,,,,,,,,,,,,,,,,,,,,,,,,,,,,,,0.9984375,0.8203125,1,0,0,2016_Sep_22_1348,P15,PLC_L_D2S1,NHGX,60.0207891618,
stim/posf.jpg,stim/negf.jpg,stim/3.jpg,stim/2.jpg,stim/latef.jpg,AB,2,4,,,,,,,,,0,0,0,14,,,,,,,,,,4,1,0.916381743063,,,,,,2016_Sep_22_1348,P15,PLC_L_D2S1,NHGX,60.0207891618,
stim/negf.jpg,stim/posf.jpg,stim/1.jpg,stim/5.jpg,stim/latef.jpg,EF,1,2,,,,,,,,,0,1,1,46,,,,,,,,,,2,1,0.999670791683,,,,,,2016_Sep_22_1348,P15,PLC_L_D2S1,NHGX,60.0207891618,
stim/negf.jpg,stim/posf.jpg,stim/5.jpg,stim/1.jpg,stim/latef.jpg,EF,2,4,,,,,,,,,0,2,2,57,,,,,,,,,,4,1,0.499818176487,,,,,,2016_Sep_22_1348,P15,PLC_L_D2S1,NHGX,60.0207891618,
stim/posf.jpg,stim/negf.jpg,stim/5.jpg,stim/1.jpg,stim/latef.jpg,EF,2,4,,,,,,,,,0,3,3,51,,,,,,,,,,4,1,0.483175149152,,,,,,2016_Sep_22_1348,P15,PLC_L_D2S1,NHGX,60.0207891618,
stim/posf.jpg,stim/negf.jpg,stim/2.jpg,stim/3.jpg,stim/latef.jpg,AB,1,2,,,,,,,,,0,4,4,3,,,,,,,,,,2,1,0.799697092138,,,,,,2016_Sep_22_1348,P15,PLC_L_D2S1,NHGX,60.0207891618,
stim/posf.jpg,stim/negf.jpg,stim/1.jpg,stim/5.jpg,stim/latef.jpg,EF,1,2,,,,,,,,,0,5,5,44,,,,,,,,,,2,1,0.916354904268,,,,,,2016_Sep_22_1348,P15,PLC_L_D2S1,NHGX,60.0207891618,
stim/negf.jpg,stim/posf.jpg,stim/5.jpg,stim/1.jpg,stim/latef.jpg,EF,2,4,,,,,,,,,0,6,6,58,,,,,,,,,,4,1,0.933047025785,,,,,,2016_Sep_22_1348,P15,PLC_L_D2S1,NHGX,60.0207891618,
stim/negf.jpg,stim/posf.jpg,stim/2.jpg,stim/3.jpg,stim/latef.jpg,AB,1,2,,,,,,,,,0,7,7,9,,,,,,,,,,2,1,0.683124470025,,,,,,2016_Sep_22_1348,P15,PLC_L_D2S1,NHGX,60.0207891618,
stim/posf.jpg,stim/negf.jpg,stim/4.jpg,stim/6.jpg,stim/latef.jpg,CD,2,4,,,,,,,,,0,8,8,35,,,,,,,,,,4,1,0.749671226265,,,,,,2016_Sep_22_1348,P15,PLC_L_D2S1,NHGX,60.0207891618,
stim/posf.jpg,stim/negf.jpg,stim/5.jpg,stim/1.jpg,stim/latef.jpg,EF,2,4,,,,,,,,,0,9,9,55,,,,,,,,,,4,1,0.683111498743,,,,,,2016_Sep_22_1348,P15,PLC_L_D2S1,NHGX,60.0207891618,
stim/negf.jpg,stim/posf.jpg,stim/1.jpg,stim/5.jpg,stim/latef.jpg,EF,1,2,,,,,,,,,0,10,10,49,,,,,,,,,,2,1,0.716402109751,,,,,,2016_Sep_22_1348,P15,PLC_L_D2S1,NHGX,60.0207891618,
stim/posf.jpg,stim/negf.jpg,stim/5.jpg,stim/1.jpg,stim/latef.jpg,EF,2,4,,,,,,,,,0,11,11,54,,,,,,,,,,4,1,0.833077521682,,,,,,2016_Sep_22_1348,P15,PLC_L_D2S1,NHGX,60.0207891618,
stim/negf.jpg,stim/posf.jpg,stim/6.jpg,stim/4.jpg,stim/latef.jpg,CD,1,2,,,,,,,,,0,12,12,28,,,,,,,,,,2,1,0.96633875257,,,,,,2016_Sep_22_1348,P15,PLC_L_D2S1,NHGX,60.0207891618,
stim/negf.jpg,stim/posf.jpg,stim/5.jpg,stim/1.jpg,stim/latef.jpg,EF,2,4,,,,,,,,,0,13,13,59,,,,,,,,,,4,1,0.749737472134,,,,,,2016_Sep_22_1348,P15,PLC_L_D2S1,NHGX,60.0207891618,
stim/posf.jpg,stim/negf.jpg,stim/4.jpg,stim/6.jpg,stim/latef.jpg,CD,2,4,,,,,,,,,0,14,14,30,,,,,,,,,,4,1,0.749742446514,,,,,,2016_Sep_22_1348,P15,PLC_L_D2S1,NHGX,60.0207891618,
stim/posf.jpg,stim/negf.jpg,stim/4.jpg,stim/6.jpg,stim/latef.jpg,CD,2,4,,,,,,,,,0,15,15,31,,,,,,,,,,4,1,0.666474119465,,,,,,2016_Sep_22_1348,P15,PLC_L_D2S1,NHGX,60.0207891618,
stim/negf.jpg,stim/posf.jpg,stim/3.jpg,stim/2.jpg,stim/latef.jpg,AB,2,4,,,,,,,,,0,16,16,19,,,,,,,,,,4,1,0.999665883468,,,,,,2016_Sep_22_1348,P15,PLC_L_D2S1,NHGX,60.0207891618,
stim/negf.jpg,stim/posf.jpg,stim/1.jpg,stim/5.jpg,stim/latef.jpg,EF,1,2,,,,,,,,,0,17,17,47,,,,,,,,,,2,1,0.933002460874,,,,,,2016_Sep_22_1348,P15,PLC_L_D2S1,NHGX,60.0207891618,
stim/posf.jpg,stim/negf.jpg,stim/2.jpg,stim/3.jpg,stim/latef.jpg,AB,1,2,,,,,,,,,0,18,18,2,,,,,,,,,,2,1,1.01633857964,,,,,,2016_Sep_22_1348,P15,PLC_L_D2S1,NHGX,60.0207891618,
stim/posf.jpg,stim/negf.jpg,stim/3.jpg,stim/2.jpg,stim/latef.jpg,AB,2,4,,,,,,,,,0,19,19,16,,,,,,,,,,4,1,1.01632705195,,,,,,2016_Sep_22_1348,P15,PLC_L_D2S1,NHGX,60.0207891618,
stim/posf.jpg,stim/negf.jpg,stim/2.jpg,stim/3.jpg,stim/latef.jpg,AB,1,2,,,,,,,,,0,20,20,0,,,,,,,,,,2,1,0.899701522163,,,,,,2016_Sep_22_1348,P15,PLC_L_D2S1,NHGX,60.0207891618,
stim/posf.jpg,stim/negf.jpg,stim/4.jpg,stim/6.jpg,stim/latef.jpg,CD,2,4,,,,,,,,,0,21,21,34,,,,,,,,,,4,1,1.21621877347,,,,,,2016_Sep_22_1348,P15,PLC_L_D2S1,NHGX,60.0207891618,
stim/negf.jpg,stim/posf.jpg,stim/4.jpg,stim/6.jpg,stim/latef.jpg,CD,2,4,,,,,,,,,0,22,22,37,,,,,,,,,,4,1,1.43286460679,,,,,,2016_Sep_22_1348,P15,PLC_L_D2S1,NHGX,60.0207891618,
stim/posf.jpg,stim/negf.jpg,stim/1.jpg,stim/5.jpg,stim/latef.jpg,EF,1,2,,,,,,,,,0,23,23,45,,,,,,,,,,2,1,1.01630089285,,,,,,2016_Sep_22_1348,P15,PLC_L_D2S1,NHGX,60.0207891618,
stim/posf.jpg,stim/negf.jpg,stim/1.jpg,stim/5.jpg,stim/latef.jpg,EF,1,2,,,,,,,,,0,24,24,42,,,,,,,,,,2,1,0.866349768988,,,,,,2016_Sep_22_1348,P15,PLC_L_D2S1,NHGX,60.0207891618,
stim/posf.jpg,stim/negf.jpg,stim/3.jpg,stim/2.jpg,stim/latef.jpg,AB,2,4,,,,,,,,,0,25,25,15,,,,,,,,,,4,1,0.699778375432,,,,,,2016_Sep_22_1348,P15,PLC_L_D2S1,NHGX,60.0207891618,
stim/posf.jpg,stim/negf.jpg,stim/1.jpg,stim/5.jpg,stim/latef.jpg,EF,1,2,,,,,,,,,0,26,26,43,,,,,,,,,,2,1,0.949684200554,,,,,,2016_Sep_22_1348,P15,PLC_L_D2S1,NHGX,60.0207891618,
stim/posf.jpg,stim/negf.jpg,stim/6.jpg,stim/4.jpg,stim/latef.jpg,CD,1,2,,,,,,,,,0,27,27,24,,,,,,,,,,2,1,0.866353708793,,,,,,2016_Sep_22_1348,P15,PLC_L_D2S1,NHGX,60.0207891618,
stim/posf.jpg,stim/negf.jpg,stim/5.jpg,stim/1.jpg,stim/latef.jpg,EF,2,4,,,,,,,,,0,28,28,50,,,,,,,,,,4,1,0.999690665143,,,,,,2016_Sep_22_1348,P15,PLC_L_D2S1,NHGX,60.0207891618,
stim/posf.jpg,stim/negf.jpg,stim/5.jpg,stim/1.jpg,stim/latef.jpg,EF,2,4,,,,,,,,,0,29,29,53,,,,,,,,,,4,1,1.23193789544,,,,,,2016_Sep_22_1348,P15,PLC_L_D2S1,NHGX,60.0207891618,
stim/posf.jpg,stim/negf.jpg,stim/1.jpg,stim/5.jpg,stim/latef.jpg,EF,1,2,,,,,,,,,0,30,30,41,,,,,,,,,,2,1,0.666417467472,,,,,,2016_Sep_22_1348,P15,PLC_L_D2S1,NHGX,60.0207891618,
stim/posf.jpg,stim/negf.jpg,stim/2.jpg,stim/3.jpg,stim/latef.jpg,AB,1,2,,,,,,,,,0,31,31,6,,,,,,,,,,2,1,0.93301186528,,,,,,2016_Sep_22_1348,P15,PLC_L_D2S1,NHGX,60.0207891618,
stim/posf.jpg,stim/negf.jpg,stim/3.jpg,stim/2.jpg,stim/latef.jpg,AB,2,4,,,,,,,,,0,32,32,13,,,,,,,,,,4,1,0.899701455999,,,,,,2016_Sep_22_1348,P15,PLC_L_D2S1,NHGX,60.0207891618,
stim/posf.jpg,stim/negf.jpg,stim/2.jpg,stim/3.jpg,stim/latef.jpg,AB,1,2,,,,,,,,,0,33,33,4,,,,,,,,,,2,1,0.83303751311,,,,,,2016_Sep_22_1348,P15,PLC_L_D2S1,NHGX,60.0207891618,
stim/posf.jpg,stim/negf.jpg,stim/2.jpg,stim/3.jpg,stim/latef.jpg,AB,1,2,,,,,,,,,0,34,34,1,,,,,,,,,,2,1,0.799732902261,,,,,,2016_Sep_22_1348,P15,PLC_L_D2S1,NHGX,60.0207891618,
stim/posf.jpg,stim/negf.jpg,stim/6.jpg,stim/4.jpg,stim/latef.jpg,CD,1,2,,,,,,,,,0,35,35,21,,,,,,,,,,2,1,1.2495778589,,,,,,2016_Sep_22_1348,P15,PLC_L_D2S1,NHGX,60.0207891618,
stim/posf.jpg,stim/negf.jpg,stim/4.jpg,stim/6.jpg,stim/latef.jpg,CD,2,4,,,,,,,,,0,36,36,33,,,,,,,,,,4,1,0.79974245704,,,,,,2016_Sep_22_1348,P15,PLC_L_D2S1,NHGX,60.0207891618,
stim/posf.jpg,stim/negf.jpg,stim/4.jpg,stim/6.jpg,stim/latef.jpg,CD,2,4,,,,,,,,,0,37,37,36,,,,,,,,,,4,1,0.683043231843,,,,,,2016_Sep_22_1348,P15,PLC_L_D2S1,NHGX,60.0207891618,
stim/negf.jpg,stim/posf.jpg,stim/3.jpg,stim/2.jpg,stim/latef.jpg,AB,2,4,,,,,,,,,0,38,38,18,,,,,,,,,,4,1,0.783077023943,,,,,,2016_Sep_22_1348,P15,PLC_L_D2S1,NHGX,60.0207891618,
stim/negf.jpg,stim/posf.jpg,stim/6.jpg,stim/4.jpg,stim/latef.jpg,CD,1,2,,,,,,,,,0,39,39,29,,,,,,,,,,2,1,0.833104589046,,,,,,2016_Sep_22_1348,P15,PLC_L_D2S1,NHGX,60.0207891618,
stim/posf.jpg,stim/negf.jpg,stim/6.jpg,stim/4.jpg,stim/latef.jpg,CD,1,2,,,,,,,,,0,40,40,20,,,,,,,,,,2,1,1.13295488848,,,,,,2016_Sep_22_1348,P15,PLC_L_D2S1,NHGX,60.0207891618,
stim/negf.jpg,stim/posf.jpg,stim/1.jpg,stim/5.jpg,stim/latef.jpg,EF,1,2,,,,,,,,,0,41,41,48,,,,,,,,,,2,1,0.916342708917,,,,,,2016_Sep_22_1348,P15,PLC_L_D2S1,NHGX,60.0207891618,
stim/posf.jpg,stim/negf.jpg,stim/2.jpg,stim/3.jpg,stim/latef.jpg,AB,1,2,,,,,,,,,0,42,42,7,,,,,,,,,,2,1,1.23295097574,,,,,,2016_Sep_22_1348,P15,PLC_L_D2S1,NHGX,60.0207891618,
stim/negf.jpg,stim/posf.jpg,stim/5.jpg,stim/1.jpg,stim/latef.jpg,EF,2,4,,,,,,,,,0,43,43,56,,,,,,,,,,4,1,0.933030057556,,,,,,2016_Sep_22_1348,P15,PLC_L_D2S1,NHGX,60.0207891618,
stim/posf.jpg,stim/negf.jpg,stim/5.jpg,stim/1.jpg,stim/latef.jpg,EF,2,4,,,,,,,,,0,44,44,52,,,,,,,,,,4,1,0.78306032338,,,,,,2016_Sep_22_1348,P15,PLC_L_D2S1,NHGX,60.0207891618,
stim/negf.jpg,stim/posf.jpg,stim/4.jpg,stim/6.jpg,stim/latef.jpg,CD,2,4,,,,,,,,,0,45,45,38,,,,,,,,,,4,1,0.816391180551,,,,,,2016_Sep_22_1348,P15,PLC_L_D2S1,NHGX,60.0207891618,
stim/posf.jpg,stim/negf.jpg,stim/3.jpg,stim/2.jpg,stim/latef.jpg,AB,2,4,,,,,,,,,0,46,46,11,,,,,,,,,,4,1,0.666444276192,,,,,,2016_Sep_22_1348,P15,PLC_L_D2S1,NHGX,60.0207891618,
stim/posf.jpg,stim/negf.jpg,stim/3.jpg,stim/2.jpg,stim/latef.jpg,AB,2,4,,,,,,,,,0,47,47,10,,,,,,,,,,4,1,0.699750138156,,,,,,2016_Sep_22_1348,P15,PLC_L_D2S1,NHGX,60.0207891618,
stim/posf.jpg,stim/negf.jpg,stim/3.jpg,stim/2.jpg,stim/latef.jpg,AB,2,4,,,,,,,,,0,48,48,12,,,,,,,,,,4,1,0.716411787837,,,,,,2016_Sep_22_1348,P15,PLC_L_D2S1,NHGX,60.0207891618,
stim/negf.jpg,stim/posf.jpg,stim/2.jpg,stim/3.jpg,stim/latef.jpg,AB,1,2,,,,,,,,,0,49,49,8,,,,,,,,,,2,1,0.89974599685,,,,,,2016_Sep_22_1348,P15,PLC_L_D2S1,NHGX,60.0207891618,
stim/posf.jpg,stim/negf.jpg,stim/1.jpg,stim/5.jpg,stim/latef.jpg,EF,1,2,,,,,,,,,0,50,50,40,,,,,,,,,,2,1,0.766402294711,,,,,,2016_Sep_22_1348,P15,PLC_L_D2S1,NHGX,60.0207891618,
stim/negf.jpg,stim/posf.jpg,stim/6.jpg,stim/4.jpg,stim/latef.jpg,CD,1,2,,,,,,,,,0,51,51,27,,,,,,,,,,2,1,1.13286079931,,,,,,2016_Sep_22_1348,P15,PLC_L_D2S1,NHGX,60.0207891618,
stim/posf.jpg,stim/negf.jpg,stim/6.jpg,stim/4.jpg,stim/latef.jpg,CD,1,2,,,,,,,,,0,52,52,23,,,,,,,,,,2,1,0.666430074849,,,,,,2016_Sep_22_1348,P15,PLC_L_D2S1,NHGX,60.0207891618,
stim/posf.jpg,stim/negf.jpg,stim/6.jpg,stim/4.jpg,stim/latef.jpg,CD,1,2,,,,,,,,,0,53,53,22,,,,,,,,,,2,1,1.08296468536,,,,,,2016_Sep_22_1348,P15,PLC_L_D2S1,NHGX,60.0207891618,
stim/posf.jpg,stim/negf.jpg,stim/6.jpg,stim/4.jpg,stim/latef.jpg,CD,1,2,,,,,,,,,0,54,54,26,,,,,,,,,,2,1,1.16627850663,,,,,,2016_Sep_22_1348,P15,PLC_L_D2S1,NHGX,60.0207891618,
stim/posf.jpg,stim/negf.jpg,stim/6.jpg,stim/4.jpg,stim/latef.jpg,CD,1,2,,,,,,,,,0,55,55,25,,,,,,,,,,2,1,1.01632664895,,,,,,2016_Sep_22_1348,P15,PLC_L_D2S1,NHGX,60.0207891618,
stim/posf.jpg,stim/negf.jpg,stim/3.jpg,stim/2.jpg,stim/latef.jpg,AB,2,4,,,,,,,,,0,56,56,17,,,,,,,,,,4,1,1.09961584193,,,,,,2016_Sep_22_1348,P15,PLC_L_D2S1,NHGX,60.0207891618,
stim/negf.jpg,stim/posf.jpg,stim/4.jpg,stim/6.jpg,stim/latef.jpg,CD,2,4,,,,,,,,,0,57,57,39,,,,,,,,,,4,1,0.799736472145,,,,,,2016_Sep_22_1348,P15,PLC_L_D2S1,NHGX,60.0207891618,
stim/posf.jpg,stim/negf.jpg,stim/4.jpg,stim/6.jpg,stim/latef.jpg,CD,2,4,,,,,,,,,0,58,58,32,,,,,,,,,,4,1,0.932981778401,,,,,,2016_Sep_22_1348,P15,PLC_L_D2S1,NHGX,60.0207891618,
stim/posf.jpg,stim/negf.jpg,stim/2.jpg,stim/3.jpg,stim/latef.jpg,AB,1,2,,,,,,,,,0,59,59,5,,,,,,,,,,2,1,0.849782530272,,,,,,2016_Sep_22_1348,P15,PLC_L_D2S1,NHGX,60.0207891618,
,,,,,,,,,,,,,,,,,,,,,,,,,,,,,,,,0.996875,0.8203125,1,0,0,2016_Sep_22_1348,P15,PLC_L_D2S1,NHGX,60.0207891618,
stim/negf.jpg,stim/posf.jpg,stim/5.jpg,stim/1.jpg,stim/latef.jpg,EF,2,4,,,,,,,,,,,,,0,0,0,59,,,,,,4,1,1.38286788044,,,,,,2016_Sep_22_1348,P15,PLC_L_D2S1,NHGX,60.0207891618,
stim/posf.jpg,stim/negf.jpg,stim/5.jpg,stim/1.jpg,stim/latef.jpg,EF,2,4,,,,,,,,,,,,,0,1,1,50,,,,,,4,1,0.833064604535,,,,,,2016_Sep_22_1348,P15,PLC_L_D2S1,NHGX,60.0207891618,
stim/posf.jpg,stim/negf.jpg,stim/4.jpg,stim/6.jpg,stim/latef.jpg,CD,2,4,,,,,,,,,,,,,0,2,2,34,,,,,,4,1,1.29956429063,,,,,,2016_Sep_22_1348,P15,PLC_L_D2S1,NHGX,60.0207891618,
stim/posf.jpg,stim/negf.jpg,stim/2.jpg,stim/3.jpg,stim/latef.jpg,AB,1,2,,,,,,,,,,,,,0,3,3,6,,,,,,2,1,0.633083987775,,,,,,2016_Sep_22_1348,P15,PLC_L_D2S1,NHGX,60.0207891618,
stim/posf.jpg,stim/negf.jpg,stim/6.jpg,stim/4.jpg,stim/latef.jpg,CD,1,2,,,,,,,,,,,,,0,4,4,22,,,,,,2,1,0.633147301347,,,,,,2016_Sep_22_1348,P15,PLC_L_D2S1,NHGX,60.0207891618,
stim/posf.jpg,stim/negf.jpg,stim/4.jpg,stim/6.jpg,stim/latef.jpg,CD,2,4,,,,,,,,,,,,,0,5,5,31,,,,,,4,1,0.649836421394,,,,,,2016_Sep_22_1348,P15,PLC_L_D2S1,NHGX,60.0207891618,
stim/posf.jpg,stim/negf.jpg,stim/3.jpg,stim/2.jpg,stim/latef.jpg,AB,2,4,,,,,,,,,,,,,0,6,6,13,,,,,,4,1,0.58306920749,,,,,,2016_Sep_22_1348,P15,PLC_L_D2S1,NHGX,60.0207891618,
stim/posf.jpg,stim/negf.jpg,stim/3.jpg,stim/2.jpg,stim/latef.jpg,AB,2,4,,,,,,,,,,,,,0,7,7,11,,,,,,4,1,0.699777064168,,,,,,2016_Sep_22_1348,P15,PLC_L_D2S1,NHGX,60.0207891618,
stim/posf.jpg,stim/negf.jpg,stim/4.jpg,stim/6.jpg,stim/latef.jpg,CD,2,4,,,,,,,,,,,,,0,8,8,33,,,,,,4,1,1.06629181475,,,,,,2016_Sep_22_1348,P15,PLC_L_D2S1,NHGX,60.0207891618,
stim/posf.jpg,stim/negf.jpg,stim/6.jpg,stim/4.jpg,stim/latef.jpg,CD,1,2,,,,,,,,,,,,,0,9,9,20,,,,,,2,1,0.74975973053,,,,,,2016_Sep_22_1348,P15,PLC_L_D2S1,NHGX,60.0207891618,
stim/negf.jpg,stim/posf.jpg,stim/2.jpg,stim/3.jpg,stim/latef.jpg,AB,1,2,,,,,,,,,,,,,0,10,10,8,,,,,,2,1,0.783084804307,,,,,,2016_Sep_22_1348,P15,PLC_L_D2S1,NHGX,60.0207891618,
stim/posf.jpg,stim/negf.jpg,stim/1.jpg,stim/5.jpg,stim/latef.jpg,EF,1,2,,,,,,,,,,,,,0,11,11,41,,,,,,2,1,0.96635269527,,,,,,2016_Sep_22_1348,P15,PLC_L_D2S1,NHGX,60.0207891618,
stim/negf.jpg,stim/posf.jpg,stim/5.jpg,stim/1.jpg,stim/latef.jpg,EF,2,4,,,,,,,,,,,,,0,12,12,57,,,,,,4,1,0.716420855404,,,,,,2016_Sep_22_1348,P15,PLC_L_D2S1,NHGX,60.0207891618,
stim/posf.jpg,stim/negf.jpg,stim/2.jpg,stim/3.jpg,stim/latef.jpg,AB,1,2,,,,,,,,,,,,,0,13,13,7,,,,,,2,1,0.783088780202,,,,,,2016_Sep_22_1348,P15,PLC_L_D2S1,NHGX,60.0207891618,
stim/posf.jpg,stim/negf.jpg,stim/1.jpg,stim/5.jpg,stim/latef.jpg,EF,1,2,,,,,,,,,,,,,0,14,14,43,,,,,,2,1,0.64982283057,,,,,,2016_Sep_22_1348,P15,PLC_L_D2S1,NHGX,60.0207891618,
stim/posf.jpg,stim/negf.jpg,stim/3.jpg,stim/2.jpg,stim/latef.jpg,AB,2,4,,,,,,,,,,,,,0,15,15,16,,,,,,4,1,0.883052185126,,,,,,2016_Sep_22_1348,P15,PLC_L_D2S1,NHGX,60.0207891618,
stim/posf.jpg,stim/negf.jpg,stim/4.jpg,stim/6.jpg,stim/latef.jpg,CD,2,4,,,,,,,,,,,,,0,16,16,32,,,,,,4,1,0.666419693011,,,,,,2016_Sep_22_1348,P15,PLC_L_D2S1,NHGX,60.0207891618,
stim/posf.jpg,stim/negf.jpg,stim/6.jpg,stim/4.jpg,stim/latef.jpg,CD,1,2,,,,,,,,,,,,,0,17,17,26,,,,,,2,1,0.982993223385,,,,,,2016_Sep_22_1348,P15,PLC_L_D2S1,NHGX,60.0207891618,
stim/negf.jpg,stim/posf.jpg,stim/6.jpg,stim/4.jpg,stim/latef.jpg,CD,1,2,,,,,,,,,,,,,0,18,18,29,,,,,,2,1,0.783114409988,,,,,,2016_Sep_22_1348,P15,PLC_L_D2S1,NHGX,60.0207891618,
stim/negf.jpg,stim/posf.jpg,stim/3.jpg,stim/2.jpg,stim/latef.jpg,AB,2,4,,,,,,,,,,,,,0,19,19,18,,,,,,4,1,0.699769530419,,,,,,2016_Sep_22_1348,P15,PLC_L_D2S1,NHGX,60.0207891618,
stim/posf.jpg,stim/negf.jpg,stim/1.jpg,stim/5.jpg,stim/latef.jpg,EF,1,2,,,,,,,,,,,,,0,20,20,40,,,,,,2,1,0.683083661463,,,,,,2016_Sep_22_1348,P15,PLC_L_D2S1,NHGX,60.0207891618,
stim/posf.jpg,stim/negf.jpg,stim/1.jpg,stim/5.jpg,stim/latef.jpg,EF,1,2,,,,,,,,,,,,,0,21,21,44,,,,,,2,1,0.649803098461,,,,,,2016_Sep_22_1348,P15,PLC_L_D2S1,NHGX,60.0207891618,
stim/posf.jpg,stim/negf.jpg,stim/4.jpg,stim/6.jpg,stim/latef.jpg,CD,2,4,,,,,,,,,,,,,0,22,22,30,,,,,,4,1,0.982978453626,,,,,,2016_Sep_22_1348,P15,PLC_L_D2S1,NHGX,60.0207891618,
stim/posf.jpg,stim/negf.jpg,stim/2.jpg,stim/3.jpg,stim/latef.jpg,AB,1,2,,,,,,,,,,,,,0,23,23,4,,,,,,2,1,0.833045612268,,,,,,2016_Sep_22_1348,P15,PLC_L_D2S1,NHGX,60.0207891618,
stim/negf.jpg,stim/posf.jpg,stim/6.jpg,stim/4.jpg,stim/latef.jpg,CD,1,2,,,,,,,,,,,,,0,24,24,28,,,,,,2,1,1.06630497852,,,,,,2016_Sep_22_1348,P15,PLC_L_D2S1,NHGX,60.0207891618,
stim/posf.jpg,stim/negf.jpg,stim/5.jpg,stim/1.jpg,stim/latef.jpg,EF,2,4,,,,,,,,,,,,,0,25,25,51,,,,,,4,1,0.916331253407,,,,,,2016_Sep_22_1348,P15,PLC_L_D2S1,NHGX,60.0207891618,
stim/posf.jpg,stim/negf.jpg,stim/2.jpg,stim/3.jpg,stim/latef.jpg,AB,1,2,,,,,,,,,,,,,0,26,26,2,,,,,,2,1,0.616387333977,,,,,,2016_Sep_22_1348,P15,PLC_L_D2S1,NHGX,60.0207891618,
stim/posf.jpg,stim/negf.jpg,stim/4.jpg,stim/6.jpg,stim/latef.jpg,CD,2,4,,,,,,,,,,,,,0,27,27,35,,,,,,4,1,1.09959154746,,,,,,2016_Sep_22_1348,P15,PLC_L_D2S1,NHGX,60.0207891618,
stim/posf.jpg,stim/negf.jpg,stim/2.jpg,stim/3.jpg,stim/latef.jpg,AB,1,2,,,,,,,,,,,,,0,28,28,3,,,,,,2,1,0.69978516934,,,,,,2016_Sep_22_1348,P15,PLC_L_D2S1,NHGX,60.0207891618,
stim/posf.jpg,stim/negf.jpg,stim/2.jpg,stim/3.jpg,stim/latef.jpg,AB,1,2,,,,,,,,,,,,,0,29,29,5,,,,,,2,1,0.699764748518,,,,,,2016_Sep_22_1348,P15,PLC_L_D2S1,NHGX,60.0207891618,
stim/posf.jpg,stim/negf.jpg,stim/3.jpg,stim/2.jpg,stim/latef.jpg,AB,2,4,,,,,,,,,,,,,0,30,30,15,,,,,,4,1,0.766423064401,,,,,,2016_Sep_22_1348,P15,PLC_L_D2S1,NHGX,60.0207891618,
stim/negf.jpg,stim/posf.jpg,stim/2.jpg,stim/3.jpg,stim/latef.jpg,AB,1,2,,,,,,,,,,,,,0,31,31,9,,,,,,2,1,0.749712028812,,,,,,2016_Sep_22_1348,P15,PLC_L_D2S1,NHGX,60.0207891618,
stim/negf.jpg,stim/posf.jpg,stim/4.jpg,stim/6.jpg,stim/latef.jpg,CD,2,4,,,,,,,,,,,,,0,32,32,38,,,,,,4,1,0.88307284354,,,,,,2016_Sep_22_1348,P15,PLC_L_D2S1,NHGX,60.0207891618,
stim/posf.jpg,stim/negf.jpg,stim/3.jpg,stim/2.jpg,stim/latef.jpg,AB,2,4,,,,,,,,,,,,,0,33,33,17,,,,,,4,1,0.666401639079,,,,,,2016_Sep_22_1348,P15,PLC_L_D2S1,NHGX,60.0207891618,
stim/negf.jpg,stim/posf.jpg,stim/4.jpg,stim/6.jpg,stim/latef.jpg,CD,2,4,,,,,,,,,,,,,0,34,34,39,,,,,,4,1,0.999644804006,,,,,,2016_Sep_22_1348,P15,PLC_L_D2S1,NHGX,60.0207891618,
stim/negf.jpg,stim/posf.jpg,stim/1.jpg,stim/5.jpg,stim/latef.jpg,EF,1,2,,,,,,,,,,,,,0,35,35,49,,,,,,2,1,0.916352690759,,,,,,2016_Sep_22_1348,P15,PLC_L_D2S1,NHGX,60.0207891618,
stim/posf.jpg,stim/negf.jpg,stim/5.jpg,stim/1.jpg,stim/latef.jpg,EF,2,4,,,,,,,,,,,,,0,36,36,55,,,,,,4,1,0.649798632346,,,,,,2016_Sep_22_1348,P15,PLC_L_D2S1,NHGX,60.0207891618,
stim/posf.jpg,stim/negf.jpg,stim/3.jpg,stim/2.jpg,stim/latef.jpg,AB,2,4,,,,,,,,,,,,,0,37,37,12,,,,,,4,1,0.74974576377,,,,,,2016_Sep_22_1348,P15,PLC_L_D2S1,NHGX,60.0207891618,
stim/posf.jpg,stim/negf.jpg,stim/4.jpg,stim/6.jpg,stim/latef.jpg,CD,2,4,,,,,,,,,,,,,0,38,38,36,,,,,,4,1,0.716421231339,,,,,,2016_Sep_22_1348,P15,PLC_L_D2S1,NHGX,60.0207891618,
stim/posf.jpg,stim/negf.jpg,stim/2.jpg,stim/3.jpg,stim/latef.jpg,AB,1,2,,,,,,,,,,,,,0,39,39,0,,,,,,2,1,0.649795654936,,,,,,2016_Sep_22_1348,P15,PLC_L_D2S1,NHGX,60.0207891618,
stim/posf.jpg,stim/negf.jpg,stim/6.jpg,stim/4.jpg,stim/latef.jpg,CD,1,2,,,,,,,,,,,,,0,40,40,24,,,,,,2,1,0.633107419089,,,,,,2016_Sep_22_1348,P15,PLC_L_D2S1,NHGX,60.0207891618,
stim/posf.jpg,stim/negf.jpg,stim/3.jpg,stim/2.jpg,stim/latef.jpg,AB,2,4,,,,,,,,,,,,,0,41,41,10,,,,,,4,1,0.566472925493,,,,,,2016_Sep_22_1348,P15,PLC_L_D2S1,NHGX,60.0207891618,
stim/posf.jpg,stim/negf.jpg,stim/3.jpg,stim/2.jpg,stim/latef.jpg,AB,2,4,,,,,,,,,,,,,0,42,42,14,,,,,,4,1,0.566481147957,,,,,,2016_Sep_22_1348,P15,PLC_L_D2S1,NHGX,60.0207891618,
stim/posf.jpg,stim/negf.jpg,stim/2.jpg,stim/3.jpg,stim/latef.jpg,AB,1,2,,,,,,,,,,,,,0,43,43,1,,,,,,2,1,0.583118376861,,,,,,2016_Sep_22_1348,P15,PLC_L_D2S1,NHGX,60.0207891618,
stim/posf.jpg,stim/negf.jpg,stim/6.jpg,stim/4.jpg,stim/latef.jpg,CD,1,2,,,,,,,,,,,,,0,44,44,25,,,,,,2,1,0.833059882783,,,,,,2016_Sep_22_1348,P15,PLC_L_D2S1,NHGX,60.0207891618,
stim/posf.jpg,stim/negf.jpg,stim/1.jpg,stim/5.jpg,stim/latef.jpg,EF,1,2,,,,,,,,,,,,,0,45,45,45,,,,,,2,1,0.883044588219,,,,,,2016_Sep_22_1348,P15,PLC_L_D2S1,NHGX,60.0207891618,
stim/negf.jpg,stim/posf.jpg,stim/1.jpg,stim/5.jpg,stim/latef.jpg,EF,1,2,,,,,,,,,,,,,0,46,46,48,,,,,,2,1,0.949678973545,,,,,,2016_Sep_22_1348,P15,PLC_L_D2S1,NHGX,60.0207891618,
stim/posf.jpg,stim/negf.jpg,stim/6.jpg,stim/4.jpg,stim/latef.jpg,CD,1,2,,,,,,,,,,,,,0,47,47,21,,,,,,2,1,0.849732509784,,,,,,2016_Sep_22_1348,P15,PLC_L_D2S1,NHGX,60.0207891618,
stim/posf.jpg,stim/negf.jpg,stim/5.jpg,stim/1.jpg,stim/latef.jpg,EF,2,4,,,,,,,,,,,,,0,48,48,54,,,,,,4,1,0.766425641816,,,,,,2016_Sep_22_1348,P15,PLC_L_D2S1,NHGX,60.0207891618,
stim/negf.jpg,stim/posf.jpg,stim/6.jpg,stim/4.jpg,stim/latef.jpg,CD,1,2,,,,,,,,,,,,,0,49,49,27,,,,,,2,1,0.683097937993,,,,,,2016_Sep_22_1348,P15,PLC_L_D2S1,NHGX,60.0207891618,
stim/posf.jpg,stim/negf.jpg,stim/1.jpg,stim/5.jpg,stim/latef.jpg,EF,1,2,,,,,,,,,,,,,0,50,50,42,,,,,,2,1,0.79973489923,,,,,,2016_Sep_22_1348,P15,PLC_L_D2S1,NHGX,60.0207891618,
stim/negf.jpg,stim/posf.jpg,stim/4.jpg,stim/6.jpg,stim/latef.jpg,CD,2,4,,,,,,,,,,,,,0,51,51,37,,,,,,4,1,0.916423222295,,,,,,2016_Sep_22_1348,P15,PLC_L_D2S1,NHGX,60.0207891618,
stim/posf.jpg,stim/negf.jpg,stim/6.jpg,stim/4.jpg,stim/latef.jpg,CD,1,2,,,,,,,,,,,,,0,52,52,23,,,,,,2,1,1.03295158927,,,,,,2016_Sep_22_1348,P15,PLC_L_D2S1,NHGX,60.0207891618,
stim/posf.jpg,stim/negf.jpg,stim/5.jpg,stim/1.jpg,stim/latef.jpg,EF,2,4,,,,,,,,,,,,,0,53,53,53,,,,,,4,1,0.716442897261,,,,,,2016_Sep_22_1348,P15,PLC_L_D2S1,NHGX,60.0207891618,
stim/negf.jpg,stim/posf.jpg,stim/3.jpg,stim/2.jpg,stim/latef.jpg,AB,2,4,,,,,,,,,,,,,0,54,54,19,,,,,,4,1,0.733049188167,,,,,,2016_Sep_22_1348,P15,PLC_L_D2S1,NHGX,60.0207891618,
stim/negf.jpg,stim/posf.jpg,stim/5.jpg,stim/1.jpg,stim/latef.jpg,EF,2,4,,,,,,,,,,,,,0,55,55,56,,,,,,4,1,0.699750081014,,,,,,2016_Sep_22_1348,P15,PLC_L_D2S1,NHGX,60.0207891618,
stim/negf.jpg,stim/posf.jpg,stim/1.jpg,stim/5.jpg,stim/latef.jpg,EF,1,2,,,,,,,,,,,,,0,56,56,47,,,,,,2,1,0.716431104912,,,,,,2016_Sep_22_1348,P15,PLC_L_D2S1,NHGX,60.0207891618,
stim/negf.jpg,stim/posf.jpg,stim/1.jpg,stim/5.jpg,stim/latef.jpg,EF,1,2,,,,,,,,,,,,,0,57,57,46,,,,,,2,1,0.649782840043,,,,,,2016_Sep_22_1348,P15,PLC_L_D2S1,NHGX,60.0207891618,
stim/posf.jpg,stim/negf.jpg,stim/5.jpg,stim/1.jpg,stim/latef.jpg,EF,2,4,,,,,,,,,,,,,0,58,58,52,,,,,,4,1,0.649767589087,,,,,,2016_Sep_22_1348,P15,PLC_L_D2S1,NHGX,60.0207891618,
stim/negf.jpg,stim/posf.jpg,stim/5.jpg,stim/1.jpg,stim/latef.jpg,EF,2,4,,,,,,,,,,,,,0,59,59,58,,,,,,4,1,0.599805806702,,,,,,2016_Sep_22_1348,P15,PLC_L_D2S1,NHGX,60.0207891618,
