fb_corr,fb_incorr,symbol2,symbol1,fb_late,pair,position,correct,block_01.thisRepN,block_01.thisTrialN,block_01.thisN,block_01.thisIndex,block_02.thisRepN,block_02.thisTrialN,block_02.thisN,block_02.thisIndex,block_03.thisRepN,block_03.thisTrialN,block_03.thisN,block_03.thisIndex,block_04.thisRepN,block_04.thisTrialN,block_04.thisN,block_04.thisIndex,mouse.x,mouse.y,mouse.leftButton,mouse.midButton,mouse.rightButton,buttonBox_2.keys,buttonBox_2.corr,buttonBox_2.rt,mouse_2.x,mouse_2.y,mouse_2.leftButton,mouse_2.midButton,mouse_2.rightButton,date,Participant,expName,Group,frameRate,
,,,,,,,,,,,,,,,,,,,,,,,,-0.171875,-0.296875,1,0,0,,,,,,,,,2016_Aug_10_1300,P3,PLC_L_D2S1,NHGX,60.0199080477,
stim/negf.jpg,stim/posf.jpg,stim/3.jpg,stim/6.jpg,stim/latef.jpg,EF,2,4,0,0,0,57,,,,,,,,,,,,,,,,,,4,1,0.899710167593,,,,,,2016_Aug_10_1300,P3,PLC_L_D2S1,NHGX,60.0199080477,
stim/negf.jpg,stim/posf.jpg,stim/3.jpg,stim/6.jpg,stim/latef.jpg,EF,2,4,0,1,1,58,,,,,,,,,,,,,,,,,,2,0,0.916363558169,,,,,,2016_Aug_10_1300,P3,PLC_L_D2S1,NHGX,60.0199080477,
stim/negf.jpg,stim/posf.jpg,stim/5.jpg,stim/1.jpg,stim/latef.jpg,AB,2,4,0,2,2,18,,,,,,,,,,,,,,,,,,4,1,1.08295629657,,,,,,2016_Aug_10_1300,P3,PLC_L_D2S1,NHGX,60.0199080477,
stim/posf.jpg,stim/negf.jpg,stim/4.jpg,stim/2.jpg,stim/latef.jpg,CD,2,4,0,3,3,34,,,,,,,,,,,,,,,,,,2,0,1.13295946346,,,,,,2016_Aug_10_1300,P3,PLC_L_D2S1,NHGX,60.0199080477,
stim/negf.jpg,stim/posf.jpg,stim/3.jpg,stim/6.jpg,stim/latef.jpg,EF,2,4,0,4,4,56,,,,,,,,,,,,,,,,,,4,1,1.03299883159,,,,,,2016_Aug_10_1300,P3,PLC_L_D2S1,NHGX,60.0199080477,
stim/posf.jpg,stim/negf.jpg,stim/4.jpg,stim/2.jpg,stim/latef.jpg,CD,2,4,0,5,5,30,,,,,,,,,,,,,,,,,,4,1,1.13301020594,,,,,,2016_Aug_10_1300,P3,PLC_L_D2S1,NHGX,60.0199080477,
stim/posf.jpg,stim/negf.jpg,stim/4.jpg,stim/2.jpg,stim/latef.jpg,CD,2,4,0,6,6,32,,,,,,,,,,,,,,,,,,4,1,0.933058749934,,,,,,2016_Aug_10_1300,P3,PLC_L_D2S1,NHGX,60.0199080477,
stim/posf.jpg,stim/negf.jpg,stim/1.jpg,stim/5.jpg,stim/latef.jpg,AB,1,2,0,7,7,1,,,,,,,,,,,,,,,,,,4,0,1.2495445929,,,,,,2016_Aug_10_1300,P3,PLC_L_D2S1,NHGX,60.0199080477,
stim/posf.jpg,stim/negf.jpg,stim/2.jpg,stim/4.jpg,stim/latef.jpg,CD,1,2,0,8,8,24,,,,,,,,,,,,,,,,,,2,1,1.28298075954,,,,,,2016_Aug_10_1300,P3,PLC_L_D2S1,NHGX,60.0199080477,
stim/posf.jpg,stim/negf.jpg,stim/1.jpg,stim/5.jpg,stim/latef.jpg,AB,1,2,0,9,9,7,,,,,,,,,,,,,,,,,,4,0,1.01628713769,,,,,,2016_Aug_10_1300,P3,PLC_L_D2S1,NHGX,60.0199080477,
stim/posf.jpg,stim/negf.jpg,stim/6.jpg,stim/3.jpg,stim/latef.jpg,EF,1,2,0,10,10,43,,,,,,,,,,,,,,,,,,4,0,1.26626214239,,,,,,2016_Aug_10_1300,P3,PLC_L_D2S1,NHGX,60.0199080477,
stim/posf.jpg,stim/negf.jpg,stim/5.jpg,stim/1.jpg,stim/latef.jpg,AB,2,4,0,11,11,15,,,,,,,,,,,,,,,,,,2,0,1.14964996654,,,,,,2016_Aug_10_1300,P3,PLC_L_D2S1,NHGX,60.0199080477,
stim/posf.jpg,stim/negf.jpg,stim/1.jpg,stim/5.jpg,stim/latef.jpg,AB,1,2,0,12,12,3,,,,,,,,,,,,,,,,,,2,1,1.34962823437,,,,,,2016_Aug_10_1300,P3,PLC_L_D2S1,NHGX,60.0199080477,
stim/posf.jpg,stim/negf.jpg,stim/1.jpg,stim/5.jpg,stim/latef.jpg,AB,1,2,0,13,13,0,,,,,,,,,,,,,,,,,,2,1,0.816397115811,,,,,,2016_Aug_10_1300,P3,PLC_L_D2S1,NHGX,60.0199080477,
stim/negf.jpg,stim/posf.jpg,stim/4.jpg,stim/2.jpg,stim/latef.jpg,CD,2,4,0,14,14,38,,,,,,,,,,,,,,,,,,2,0,1.3162573725,,,,,,2016_Aug_10_1300,P3,PLC_L_D2S1,NHGX,60.0199080477,
stim/posf.jpg,stim/negf.jpg,stim/4.jpg,stim/2.jpg,stim/latef.jpg,CD,2,4,0,15,15,36,,,,,,,,,,,,,,,,,,2,0,0.799749866542,,,,,,2016_Aug_10_1300,P3,PLC_L_D2S1,NHGX,60.0199080477,
stim/posf.jpg,stim/negf.jpg,stim/4.jpg,stim/2.jpg,stim/latef.jpg,CD,2,4,0,16,16,31,,,,,,,,,,,,,,,,,,2,0,1.14962465545,,,,,,2016_Aug_10_1300,P3,PLC_L_D2S1,NHGX,60.0199080477,
stim/posf.jpg,stim/negf.jpg,stim/2.jpg,stim/4.jpg,stim/latef.jpg,CD,1,2,0,17,17,26,,,,,,,,,,,,,,,,,,4,0,0.849706937542,,,,,,2016_Aug_10_1300,P3,PLC_L_D2S1,NHGX,60.0199080477,
stim/posf.jpg,stim/negf.jpg,stim/2.jpg,stim/4.jpg,stim/latef.jpg,CD,1,2,0,18,18,22,,,,,,,,,,,,,,,,,,4,0,1.34956294765,,,,,,2016_Aug_10_1300,P3,PLC_L_D2S1,NHGX,60.0199080477,
stim/posf.jpg,stim/negf.jpg,stim/3.jpg,stim/6.jpg,stim/latef.jpg,EF,2,4,0,19,19,53,,,,,,,,,,,,,,,,,,2,0,1.14964454102,,,,,,2016_Aug_10_1300,P3,PLC_L_D2S1,NHGX,60.0199080477,
stim/posf.jpg,stim/negf.jpg,stim/5.jpg,stim/1.jpg,stim/latef.jpg,AB,2,4,0,20,20,11,,,,,,,,,,,,,,,,,,4,1,1.28292189683,,,,,,2016_Aug_10_1300,P3,PLC_L_D2S1,NHGX,60.0199080477,
stim/posf.jpg,stim/negf.jpg,stim/4.jpg,stim/2.jpg,stim/latef.jpg,CD,2,4,0,21,21,33,,,,,,,,,,,,,,,,,,2,0,1.04959559101,,,,,,2016_Aug_10_1300,P3,PLC_L_D2S1,NHGX,60.0199080477,
stim/negf.jpg,stim/posf.jpg,stim/1.jpg,stim/5.jpg,stim/latef.jpg,AB,1,2,0,22,22,9,,,,,,,,,,,,,,,,,,2,1,1.3329060383,,,,,,2016_Aug_10_1300,P3,PLC_L_D2S1,NHGX,60.0199080477,
stim/negf.jpg,stim/posf.jpg,stim/1.jpg,stim/5.jpg,stim/latef.jpg,AB,1,2,0,23,23,8,,,,,,,,,,,,,,,,,,4,0,0.949692904565,,,,,,2016_Aug_10_1300,P3,PLC_L_D2S1,NHGX,60.0199080477,
stim/negf.jpg,stim/posf.jpg,stim/5.jpg,stim/1.jpg,stim/latef.jpg,AB,2,4,0,24,24,19,,,,,,,,,,,,,,,,,,2,0,1.08299094894,,,,,,2016_Aug_10_1300,P3,PLC_L_D2S1,NHGX,60.0199080477,
stim/posf.jpg,stim/negf.jpg,stim/3.jpg,stim/6.jpg,stim/latef.jpg,EF,2,4,0,25,25,52,,,,,,,,,,,,,,,,,,4,1,1.03301145706,,,,,,2016_Aug_10_1300,P3,PLC_L_D2S1,NHGX,60.0199080477,
stim/posf.jpg,stim/negf.jpg,stim/3.jpg,stim/6.jpg,stim/latef.jpg,EF,2,4,0,26,26,55,,,,,,,,,,,,,,,,,,4,1,1.21626805813,,,,,,2016_Aug_10_1300,P3,PLC_L_D2S1,NHGX,60.0199080477,
stim/negf.jpg,stim/posf.jpg,stim/4.jpg,stim/2.jpg,stim/latef.jpg,CD,2,4,0,27,27,37,,,,,,,,,,,,,,,,,,4,1,1.04966380102,,,,,,2016_Aug_10_1300,P3,PLC_L_D2S1,NHGX,60.0199080477,
stim/posf.jpg,stim/negf.jpg,stim/2.jpg,stim/4.jpg,stim/latef.jpg,CD,1,2,0,28,28,20,,,,,,,,,,,,,,,,,,None,0,,,,,,,2016_Aug_10_1300,P3,PLC_L_D2S1,NHGX,60.0199080477,
stim/negf.jpg,stim/posf.jpg,stim/6.jpg,stim/3.jpg,stim/latef.jpg,EF,1,2,0,29,29,48,,,,,,,,,,,,,,,,,,2,1,1.09965943414,,,,,,2016_Aug_10_1300,P3,PLC_L_D2S1,NHGX,60.0199080477,
stim/negf.jpg,stim/posf.jpg,stim/6.jpg,stim/3.jpg,stim/latef.jpg,EF,1,2,0,30,30,49,,,,,,,,,,,,,,,,,,4,0,0.766411266081,,,,,,2016_Aug_10_1300,P3,PLC_L_D2S1,NHGX,60.0199080477,
stim/posf.jpg,stim/negf.jpg,stim/2.jpg,stim/4.jpg,stim/latef.jpg,CD,1,2,0,31,31,25,,,,,,,,,,,,,,,,,,4,0,1.21627922497,,,,,,2016_Aug_10_1300,P3,PLC_L_D2S1,NHGX,60.0199080477,
stim/negf.jpg,stim/posf.jpg,stim/2.jpg,stim/4.jpg,stim/latef.jpg,CD,1,2,0,32,32,27,,,,,,,,,,,,,,,,,,2,1,0.933071119766,,,,,,2016_Aug_10_1300,P3,PLC_L_D2S1,NHGX,60.0199080477,
stim/posf.jpg,stim/negf.jpg,stim/6.jpg,stim/3.jpg,stim/latef.jpg,EF,1,2,0,33,33,40,,,,,,,,,,,,,,,,,,2,1,1.29957344682,,,,,,2016_Aug_10_1300,P3,PLC_L_D2S1,NHGX,60.0199080477,
stim/posf.jpg,stim/negf.jpg,stim/6.jpg,stim/3.jpg,stim/latef.jpg,EF,1,2,0,34,34,45,,,,,,,,,,,,,,,,,,2,1,0.699776308449,,,,,,2016_Aug_10_1300,P3,PLC_L_D2S1,NHGX,60.0199080477,
stim/posf.jpg,stim/negf.jpg,stim/5.jpg,stim/1.jpg,stim/latef.jpg,AB,2,4,0,35,35,10,,,,,,,,,,,,,,,,,,4,1,1.08293936737,,,,,,2016_Aug_10_1300,P3,PLC_L_D2S1,NHGX,60.0199080477,
stim/posf.jpg,stim/negf.jpg,stim/5.jpg,stim/1.jpg,stim/latef.jpg,AB,2,4,0,36,36,17,,,,,,,,,,,,,,,,,,4,1,1.13298348734,,,,,,2016_Aug_10_1300,P3,PLC_L_D2S1,NHGX,60.0199080477,
stim/posf.jpg,stim/negf.jpg,stim/2.jpg,stim/4.jpg,stim/latef.jpg,CD,1,2,0,37,37,21,,,,,,,,,,,,,,,,,,2,1,0.916354400343,,,,,,2016_Aug_10_1300,P3,PLC_L_D2S1,NHGX,60.0199080477,
stim/posf.jpg,stim/negf.jpg,stim/1.jpg,stim/5.jpg,stim/latef.jpg,AB,1,2,0,38,38,5,,,,,,,,,,,,,,,,,,4,0,1.08300236239,,,,,,2016_Aug_10_1300,P3,PLC_L_D2S1,NHGX,60.0199080477,
stim/posf.jpg,stim/negf.jpg,stim/6.jpg,stim/3.jpg,stim/latef.jpg,EF,1,2,0,39,39,44,,,,,,,,,,,,,,,,,,2,1,0.883018891587,,,,,,2016_Aug_10_1300,P3,PLC_L_D2S1,NHGX,60.0199080477,
stim/posf.jpg,stim/negf.jpg,stim/1.jpg,stim/5.jpg,stim/latef.jpg,AB,1,2,0,40,40,6,,,,,,,,,,,,,,,,,,2,1,1.29959862858,,,,,,2016_Aug_10_1300,P3,PLC_L_D2S1,NHGX,60.0199080477,
stim/posf.jpg,stim/negf.jpg,stim/3.jpg,stim/6.jpg,stim/latef.jpg,EF,2,4,0,41,41,50,,,,,,,,,,,,,,,,,,4,1,0.999687205359,,,,,,2016_Aug_10_1300,P3,PLC_L_D2S1,NHGX,60.0199080477,
stim/posf.jpg,stim/negf.jpg,stim/3.jpg,stim/6.jpg,stim/latef.jpg,EF,2,4,0,42,42,51,,,,,,,,,,,,,,,,,,4,1,0.799722558477,,,,,,2016_Aug_10_1300,P3,PLC_L_D2S1,NHGX,60.0199080477,
stim/posf.jpg,stim/negf.jpg,stim/5.jpg,stim/1.jpg,stim/latef.jpg,AB,2,4,0,43,43,16,,,,,,,,,,,,,,,,,,4,1,1.14945610635,,,,,,2016_Aug_10_1300,P3,PLC_L_D2S1,NHGX,60.0199080477,
stim/posf.jpg,stim/negf.jpg,stim/4.jpg,stim/2.jpg,stim/latef.jpg,CD,2,4,0,44,44,35,,,,,,,,,,,,,,,,,,4,1,1.18296545139,,,,,,2016_Aug_10_1300,P3,PLC_L_D2S1,NHGX,60.0199080477,
stim/negf.jpg,stim/posf.jpg,stim/6.jpg,stim/3.jpg,stim/latef.jpg,EF,1,2,0,45,45,46,,,,,,,,,,,,,,,,,,2,1,0.999677719716,,,,,,2016_Aug_10_1300,P3,PLC_L_D2S1,NHGX,60.0199080477,
stim/posf.jpg,stim/negf.jpg,stim/1.jpg,stim/5.jpg,stim/latef.jpg,AB,1,2,0,46,46,2,,,,,,,,,,,,,,,,,,4,0,1.06632114646,,,,,,2016_Aug_10_1300,P3,PLC_L_D2S1,NHGX,60.0199080477,
stim/posf.jpg,stim/negf.jpg,stim/6.jpg,stim/3.jpg,stim/latef.jpg,EF,1,2,0,47,47,41,,,,,,,,,,,,,,,,,,2,1,1.08296014316,,,,,,2016_Aug_10_1300,P3,PLC_L_D2S1,NHGX,60.0199080477,
stim/negf.jpg,stim/posf.jpg,stim/2.jpg,stim/4.jpg,stim/latef.jpg,CD,1,2,0,48,48,28,,,,,,,,,,,,,,,,,,4,0,1.13298587229,,,,,,2016_Aug_10_1300,P3,PLC_L_D2S1,NHGX,60.0199080477,
stim/posf.jpg,stim/negf.jpg,stim/5.jpg,stim/1.jpg,stim/latef.jpg,AB,2,4,0,49,49,12,,,,,,,,,,,,,,,,,,4,1,1.38288848054,,,,,,2016_Aug_10_1300,P3,PLC_L_D2S1,NHGX,60.0199080477,
stim/negf.jpg,stim/posf.jpg,stim/2.jpg,stim/4.jpg,stim/latef.jpg,CD,1,2,0,50,50,29,,,,,,,,,,,,,,,,,,4,0,1.19952829528,,,,,,2016_Aug_10_1300,P3,PLC_L_D2S1,NHGX,60.0199080477,
stim/negf.jpg,stim/posf.jpg,stim/4.jpg,stim/2.jpg,stim/latef.jpg,CD,2,4,0,51,51,39,,,,,,,,,,,,,,,,,,2,0,1.06636722431,,,,,,2016_Aug_10_1300,P3,PLC_L_D2S1,NHGX,60.0199080477,
stim/posf.jpg,stim/negf.jpg,stim/2.jpg,stim/4.jpg,stim/latef.jpg,CD,1,2,0,52,52,23,,,,,,,,,,,,,,,,,,4,0,0.899711063827,,,,,,2016_Aug_10_1300,P3,PLC_L_D2S1,NHGX,60.0199080477,
stim/posf.jpg,stim/negf.jpg,stim/6.jpg,stim/3.jpg,stim/latef.jpg,EF,1,2,0,53,53,42,,,,,,,,,,,,,,,,,,2,1,0.966345738754,,,,,,2016_Aug_10_1300,P3,PLC_L_D2S1,NHGX,60.0199080477,
stim/posf.jpg,stim/negf.jpg,stim/5.jpg,stim/1.jpg,stim/latef.jpg,AB,2,4,0,54,54,14,,,,,,,,,,,,,,,,,,4,1,1.18294448312,,,,,,2016_Aug_10_1300,P3,PLC_L_D2S1,NHGX,60.0199080477,
stim/posf.jpg,stim/negf.jpg,stim/1.jpg,stim/5.jpg,stim/latef.jpg,AB,1,2,0,55,55,4,,,,,,,,,,,,,,,,,,2,1,1.1329736017,,,,,,2016_Aug_10_1300,P3,PLC_L_D2S1,NHGX,60.0199080477,
stim/posf.jpg,stim/negf.jpg,stim/3.jpg,stim/6.jpg,stim/latef.jpg,EF,2,4,0,56,56,54,,,,,,,,,,,,,,,,,,4,1,0.916389043691,,,,,,2016_Aug_10_1300,P3,PLC_L_D2S1,NHGX,60.0199080477,
stim/posf.jpg,stim/negf.jpg,stim/5.jpg,stim/1.jpg,stim/latef.jpg,AB,2,4,0,57,57,13,,,,,,,,,,,,,,,,,,2,0,1.26625127029,,,,,,2016_Aug_10_1300,P3,PLC_L_D2S1,NHGX,60.0199080477,
stim/negf.jpg,stim/posf.jpg,stim/3.jpg,stim/6.jpg,stim/latef.jpg,EF,2,4,0,58,58,59,,,,,,,,,,,,,,,,,,4,1,0.833077603928,,,,,,2016_Aug_10_1300,P3,PLC_L_D2S1,NHGX,60.0199080477,
stim/negf.jpg,stim/posf.jpg,stim/6.jpg,stim/3.jpg,stim/latef.jpg,EF,1,2,0,59,59,47,,,,,,,,,,,,,,,,,,2,1,1.3995177119,,,,,,2016_Aug_10_1300,P3,PLC_L_D2S1,NHGX,60.0199080477,
,,,,,,,,,,,,,,,,,,,,,,,,,,,,,,,,0.9984375,-0.5859375,1,0,0,2016_Aug_10_1300,P3,PLC_L_D2S1,NHGX,60.0199080477,
stim/negf.jpg,stim/posf.jpg,stim/1.jpg,stim/5.jpg,stim/latef.jpg,AB,1,2,,,,,0,0,0,9,,,,,,,,,,,,,,2,1,0.883009616469,,,,,,2016_Aug_10_1300,P3,PLC_L_D2S1,NHGX,60.0199080477,
stim/posf.jpg,stim/negf.jpg,stim/3.jpg,stim/6.jpg,stim/latef.jpg,EF,2,4,,,,,0,1,1,51,,,,,,,,,,,,,,4,1,1.14964482673,,,,,,2016_Aug_10_1300,P3,PLC_L_D2S1,NHGX,60.0199080477,
stim/posf.jpg,stim/negf.jpg,stim/1.jpg,stim/5.jpg,stim/latef.jpg,AB,1,2,,,,,0,2,2,6,,,,,,,,,,,,,,2,1,1.08298018812,,,,,,2016_Aug_10_1300,P3,PLC_L_D2S1,NHGX,60.0199080477,
stim/negf.jpg,stim/posf.jpg,stim/4.jpg,stim/2.jpg,stim/latef.jpg,CD,2,4,,,,,0,3,3,38,,,,,,,,,,,,,,4,1,1.31624117713,,,,,,2016_Aug_10_1300,P3,PLC_L_D2S1,NHGX,60.0199080477,
stim/posf.jpg,stim/negf.jpg,stim/2.jpg,stim/4.jpg,stim/latef.jpg,CD,1,2,,,,,0,4,4,20,,,,,,,,,,,,,,4,0,0.966361940136,,,,,,2016_Aug_10_1300,P3,PLC_L_D2S1,NHGX,60.0199080477,
stim/posf.jpg,stim/negf.jpg,stim/5.jpg,stim/1.jpg,stim/latef.jpg,AB,2,4,,,,,0,5,5,15,,,,,,,,,,,,,,4,1,0.94968719333,,,,,,2016_Aug_10_1300,P3,PLC_L_D2S1,NHGX,60.0199080477,
stim/posf.jpg,stim/negf.jpg,stim/5.jpg,stim/1.jpg,stim/latef.jpg,AB,2,4,,,,,0,6,6,10,,,,,,,,,,,,,,4,1,1.19957089044,,,,,,2016_Aug_10_1300,P3,PLC_L_D2S1,NHGX,60.0199080477,
stim/posf.jpg,stim/negf.jpg,stim/4.jpg,stim/2.jpg,stim/latef.jpg,CD,2,4,,,,,0,7,7,31,,,,,,,,,,,,,,2,0,1.19959323614,,,,,,2016_Aug_10_1300,P3,PLC_L_D2S1,NHGX,60.0199080477,
stim/posf.jpg,stim/negf.jpg,stim/5.jpg,stim/1.jpg,stim/latef.jpg,AB,2,4,,,,,0,8,8,12,,,,,,,,,,,,,,4,1,0.783046671829,,,,,,2016_Aug_10_1300,P3,PLC_L_D2S1,NHGX,60.0199080477,
stim/posf.jpg,stim/negf.jpg,stim/3.jpg,stim/6.jpg,stim/latef.jpg,EF,2,4,,,,,0,9,9,50,,,,,,,,,,,,,,4,1,0.899710245788,,,,,,2016_Aug_10_1300,P3,PLC_L_D2S1,NHGX,60.0199080477,
stim/negf.jpg,stim/posf.jpg,stim/3.jpg,stim/6.jpg,stim/latef.jpg,EF,2,4,,,,,0,10,10,56,,,,,,,,,,,,,,4,1,0.94969098879,,,,,,2016_Aug_10_1300,P3,PLC_L_D2S1,NHGX,60.0199080477,
stim/posf.jpg,stim/negf.jpg,stim/1.jpg,stim/5.jpg,stim/latef.jpg,AB,1,2,,,,,0,11,11,0,,,,,,,,,,,,,,4,0,1.29956568447,,,,,,2016_Aug_10_1300,P3,PLC_L_D2S1,NHGX,60.0199080477,
stim/posf.jpg,stim/negf.jpg,stim/6.jpg,stim/3.jpg,stim/latef.jpg,EF,1,2,,,,,0,12,12,45,,,,,,,,,,,,,,2,1,1.04962741934,,,,,,2016_Aug_10_1300,P3,PLC_L_D2S1,NHGX,60.0199080477,
stim/posf.jpg,stim/negf.jpg,stim/3.jpg,stim/6.jpg,stim/latef.jpg,EF,2,4,,,,,0,13,13,55,,,,,,,,,,,,,,4,1,1.2829216863,,,,,,2016_Aug_10_1300,P3,PLC_L_D2S1,NHGX,60.0199080477,
stim/negf.jpg,stim/posf.jpg,stim/3.jpg,stim/6.jpg,stim/latef.jpg,EF,2,4,,,,,0,14,14,57,,,,,,,,,,,,,,2,0,1.19961162097,,,,,,2016_Aug_10_1300,P3,PLC_L_D2S1,NHGX,60.0199080477,
stim/posf.jpg,stim/negf.jpg,stim/4.jpg,stim/2.jpg,stim/latef.jpg,CD,2,4,,,,,0,15,15,32,,,,,,,,,,,,,,4,1,1.09964217713,,,,,,2016_Aug_10_1300,P3,PLC_L_D2S1,NHGX,60.0199080477,
stim/posf.jpg,stim/negf.jpg,stim/1.jpg,stim/5.jpg,stim/latef.jpg,AB,1,2,,,,,0,16,16,1,,,,,,,,,,,,,,2,1,1.29959955489,,,,,,2016_Aug_10_1300,P3,PLC_L_D2S1,NHGX,60.0199080477,
stim/posf.jpg,stim/negf.jpg,stim/2.jpg,stim/4.jpg,stim/latef.jpg,CD,1,2,,,,,0,17,17,24,,,,,,,,,,,,,,2,1,0.999673551327,,,,,,2016_Aug_10_1300,P3,PLC_L_D2S1,NHGX,60.0199080477,
stim/negf.jpg,stim/posf.jpg,stim/4.jpg,stim/2.jpg,stim/latef.jpg,CD,2,4,,,,,0,18,18,37,,,,,,,,,,,,,,4,1,0.933031574199,,,,,,2016_Aug_10_1300,P3,PLC_L_D2S1,NHGX,60.0199080477,
stim/posf.jpg,stim/negf.jpg,stim/4.jpg,stim/2.jpg,stim/latef.jpg,CD,2,4,,,,,0,19,19,34,,,,,,,,,,,,,,2,0,0.916297080473,,,,,,2016_Aug_10_1300,P3,PLC_L_D2S1,NHGX,60.0199080477,
stim/negf.jpg,stim/posf.jpg,stim/6.jpg,stim/3.jpg,stim/latef.jpg,EF,1,2,,,,,0,20,20,48,,,,,,,,,,,,,,2,1,0.866388066255,,,,,,2016_Aug_10_1300,P3,PLC_L_D2S1,NHGX,60.0199080477,
stim/posf.jpg,stim/negf.jpg,stim/2.jpg,stim/4.jpg,stim/latef.jpg,CD,1,2,,,,,0,21,21,26,,,,,,,,,,,,,,4,0,1.03298000466,,,,,,2016_Aug_10_1300,P3,PLC_L_D2S1,NHGX,60.0199080477,
stim/negf.jpg,stim/posf.jpg,stim/6.jpg,stim/3.jpg,stim/latef.jpg,EF,1,2,,,,,0,22,22,47,,,,,,,,,,,,,,2,1,0.749729220081,,,,,,2016_Aug_10_1300,P3,PLC_L_D2S1,NHGX,60.0199080477,
stim/posf.jpg,stim/negf.jpg,stim/1.jpg,stim/5.jpg,stim/latef.jpg,AB,1,2,,,,,0,23,23,7,,,,,,,,,,,,,,2,1,1.06631886678,,,,,,2016_Aug_10_1300,P3,PLC_L_D2S1,NHGX,60.0199080477,
stim/negf.jpg,stim/posf.jpg,stim/4.jpg,stim/2.jpg,stim/latef.jpg,CD,2,4,,,,,0,24,24,39,,,,,,,,,,,,,,4,1,0.883062181487,,,,,,2016_Aug_10_1300,P3,PLC_L_D2S1,NHGX,60.0199080477,
stim/posf.jpg,stim/negf.jpg,stim/2.jpg,stim/4.jpg,stim/latef.jpg,CD,1,2,,,,,0,25,25,23,,,,,,,,,,,,,,2,1,1.36619917444,,,,,,2016_Aug_10_1300,P3,PLC_L_D2S1,NHGX,60.0199080477,
stim/negf.jpg,stim/posf.jpg,stim/6.jpg,stim/3.jpg,stim/latef.jpg,EF,1,2,,,,,0,26,26,46,,,,,,,,,,,,,,2,1,1.33283926286,,,,,,2016_Aug_10_1300,P3,PLC_L_D2S1,NHGX,60.0199080477,
stim/posf.jpg,stim/negf.jpg,stim/5.jpg,stim/1.jpg,stim/latef.jpg,AB,2,4,,,,,0,27,27,14,,,,,,,,,,,,,,None,0,,,,,,,2016_Aug_10_1300,P3,PLC_L_D2S1,NHGX,60.0199080477,
stim/posf.jpg,stim/negf.jpg,stim/6.jpg,stim/3.jpg,stim/latef.jpg,EF,1,2,,,,,0,28,28,41,,,,,,,,,,,,,,2,1,1.04965540109,,,,,,2016_Aug_10_1300,P3,PLC_L_D2S1,NHGX,60.0199080477,
stim/negf.jpg,stim/posf.jpg,stim/6.jpg,stim/3.jpg,stim/latef.jpg,EF,1,2,,,,,0,29,29,49,,,,,,,,,,,,,,2,1,1.13297634454,,,,,,2016_Aug_10_1300,P3,PLC_L_D2S1,NHGX,60.0199080477,
stim/posf.jpg,stim/negf.jpg,stim/5.jpg,stim/1.jpg,stim/latef.jpg,AB,2,4,,,,,0,30,30,17,,,,,,,,,,,,,,4,1,0.949677942271,,,,,,2016_Aug_10_1300,P3,PLC_L_D2S1,NHGX,60.0199080477,
stim/posf.jpg,stim/negf.jpg,stim/4.jpg,stim/2.jpg,stim/latef.jpg,CD,2,4,,,,,0,31,31,35,,,,,,,,,,,,,,2,0,0.816412808926,,,,,,2016_Aug_10_1300,P3,PLC_L_D2S1,NHGX,60.0199080477,
stim/posf.jpg,stim/negf.jpg,stim/4.jpg,stim/2.jpg,stim/latef.jpg,CD,2,4,,,,,0,32,32,36,,,,,,,,,,,,,,4,1,1.26628187457,,,,,,2016_Aug_10_1300,P3,PLC_L_D2S1,NHGX,60.0199080477,
stim/posf.jpg,stim/negf.jpg,stim/1.jpg,stim/5.jpg,stim/latef.jpg,AB,1,2,,,,,0,33,33,2,,,,,,,,,,,,,,2,1,1.06628294524,,,,,,2016_Aug_10_1300,P3,PLC_L_D2S1,NHGX,60.0199080477,
stim/posf.jpg,stim/negf.jpg,stim/4.jpg,stim/2.jpg,stim/latef.jpg,CD,2,4,,,,,0,34,34,33,,,,,,,,,,,,,,4,1,0.766411494651,,,,,,2016_Aug_10_1300,P3,PLC_L_D2S1,NHGX,60.0199080477,
stim/negf.jpg,stim/posf.jpg,stim/2.jpg,stim/4.jpg,stim/latef.jpg,CD,1,2,,,,,0,35,35,29,,,,,,,,,,,,,,2,1,1.08296572507,,,,,,2016_Aug_10_1300,P3,PLC_L_D2S1,NHGX,60.0199080477,
stim/posf.jpg,stim/negf.jpg,stim/1.jpg,stim/5.jpg,stim/latef.jpg,AB,1,2,,,,,0,36,36,4,,,,,,,,,,,,,,2,1,1.08299046473,,,,,,2016_Aug_10_1300,P3,PLC_L_D2S1,NHGX,60.0199080477,
stim/posf.jpg,stim/negf.jpg,stim/2.jpg,stim/4.jpg,stim/latef.jpg,CD,1,2,,,,,0,37,37,25,,,,,,,,,,,,,,4,0,1.08299026624,,,,,,2016_Aug_10_1300,P3,PLC_L_D2S1,NHGX,60.0199080477,
stim/posf.jpg,stim/negf.jpg,stim/5.jpg,stim/1.jpg,stim/latef.jpg,AB,2,4,,,,,0,38,38,13,,,,,,,,,,,,,,4,1,0.949697175209,,,,,,2016_Aug_10_1300,P3,PLC_L_D2S1,NHGX,60.0199080477,
stim/negf.jpg,stim/posf.jpg,stim/1.jpg,stim/5.jpg,stim/latef.jpg,AB,1,2,,,,,0,39,39,8,,,,,,,,,,,,,,2,1,1.08296218224,,,,,,2016_Aug_10_1300,P3,PLC_L_D2S1,NHGX,60.0199080477,
stim/posf.jpg,stim/negf.jpg,stim/5.jpg,stim/1.jpg,stim/latef.jpg,AB,2,4,,,,,0,40,40,16,,,,,,,,,,,,,,4,1,0.966314839738,,,,,,2016_Aug_10_1300,P3,PLC_L_D2S1,NHGX,60.0199080477,
stim/negf.jpg,stim/posf.jpg,stim/5.jpg,stim/1.jpg,stim/latef.jpg,AB,2,4,,,,,0,41,41,18,,,,,,,,,,,,,,4,1,0.966312545018,,,,,,2016_Aug_10_1300,P3,PLC_L_D2S1,NHGX,60.0199080477,
stim/posf.jpg,stim/negf.jpg,stim/2.jpg,stim/4.jpg,stim/latef.jpg,CD,1,2,,,,,0,42,42,22,,,,,,,,,,,,,,2,1,0.883029047902,,,,,,2016_Aug_10_1300,P3,PLC_L_D2S1,NHGX,60.0199080477,
stim/posf.jpg,stim/negf.jpg,stim/3.jpg,stim/6.jpg,stim/latef.jpg,EF,2,4,,,,,0,43,43,52,,,,,,,,,,,,,,4,1,0.949681373824,,,,,,2016_Aug_10_1300,P3,PLC_L_D2S1,NHGX,60.0199080477,
stim/posf.jpg,stim/negf.jpg,stim/3.jpg,stim/6.jpg,stim/latef.jpg,EF,2,4,,,,,0,44,44,54,,,,,,,,,,,,,,4,1,0.883050593605,,,,,,2016_Aug_10_1300,P3,PLC_L_D2S1,NHGX,60.0199080477,
stim/negf.jpg,stim/posf.jpg,stim/3.jpg,stim/6.jpg,stim/latef.jpg,EF,2,4,,,,,0,45,45,58,,,,,,,,,,,,,,4,1,0.933079591883,,,,,,2016_Aug_10_1300,P3,PLC_L_D2S1,NHGX,60.0199080477,
stim/posf.jpg,stim/negf.jpg,stim/1.jpg,stim/5.jpg,stim/latef.jpg,AB,1,2,,,,,0,46,46,3,,,,,,,,,,,,,,2,1,1.48288863392,,,,,,2016_Aug_10_1300,P3,PLC_L_D2S1,NHGX,60.0199080477,
stim/posf.jpg,stim/negf.jpg,stim/6.jpg,stim/3.jpg,stim/latef.jpg,EF,1,2,,,,,0,47,47,42,,,,,,,,,,,,,,4,0,0.949677259569,,,,,,2016_Aug_10_1300,P3,PLC_L_D2S1,NHGX,60.0199080477,
stim/posf.jpg,stim/negf.jpg,stim/6.jpg,stim/3.jpg,stim/latef.jpg,EF,1,2,,,,,0,48,48,44,,,,,,,,,,,,,,2,1,1.18293606815,,,,,,2016_Aug_10_1300,P3,PLC_L_D2S1,NHGX,60.0199080477,
stim/posf.jpg,stim/negf.jpg,stim/2.jpg,stim/4.jpg,stim/latef.jpg,CD,1,2,,,,,0,49,49,21,,,,,,,,,,,,,,2,1,1.3162464192,,,,,,2016_Aug_10_1300,P3,PLC_L_D2S1,NHGX,60.0199080477,
stim/posf.jpg,stim/negf.jpg,stim/6.jpg,stim/3.jpg,stim/latef.jpg,EF,1,2,,,,,0,50,50,40,,,,,,,,,,,,,,2,1,1.14962140435,,,,,,2016_Aug_10_1300,P3,PLC_L_D2S1,NHGX,60.0199080477,
stim/negf.jpg,stim/posf.jpg,stim/2.jpg,stim/4.jpg,stim/latef.jpg,CD,1,2,,,,,0,51,51,27,,,,,,,,,,,,,,2,1,1.11627262351,,,,,,2016_Aug_10_1300,P3,PLC_L_D2S1,NHGX,60.0199080477,
stim/posf.jpg,stim/negf.jpg,stim/4.jpg,stim/2.jpg,stim/latef.jpg,CD,2,4,,,,,0,52,52,30,,,,,,,,,,,,,,4,1,1.63280337742,,,,,,2016_Aug_10_1300,P3,PLC_L_D2S1,NHGX,60.0199080477,
stim/negf.jpg,stim/posf.jpg,stim/2.jpg,stim/4.jpg,stim/latef.jpg,CD,1,2,,,,,0,53,53,28,,,,,,,,,,,,,,4,0,1.13301186608,,,,,,2016_Aug_10_1300,P3,PLC_L_D2S1,NHGX,60.0199080477,
stim/posf.jpg,stim/negf.jpg,stim/6.jpg,stim/3.jpg,stim/latef.jpg,EF,1,2,,,,,0,54,54,43,,,,,,,,,,,,,,2,1,0.94970844129,,,,,,2016_Aug_10_1300,P3,PLC_L_D2S1,NHGX,60.0199080477,
stim/posf.jpg,stim/negf.jpg,stim/1.jpg,stim/5.jpg,stim/latef.jpg,AB,1,2,,,,,0,55,55,5,,,,,,,,,,,,,,2,1,1.08304277111,,,,,,2016_Aug_10_1300,P3,PLC_L_D2S1,NHGX,60.0199080477,
stim/posf.jpg,stim/negf.jpg,stim/3.jpg,stim/6.jpg,stim/latef.jpg,EF,2,4,,,,,0,56,56,53,,,,,,,,,,,,,,4,1,1.2162726566,,,,,,2016_Aug_10_1300,P3,PLC_L_D2S1,NHGX,60.0199080477,
stim/posf.jpg,stim/negf.jpg,stim/5.jpg,stim/1.jpg,stim/latef.jpg,AB,2,4,,,,,0,57,57,11,,,,,,,,,,,,,,4,1,0.933016819422,,,,,,2016_Aug_10_1300,P3,PLC_L_D2S1,NHGX,60.0199080477,
stim/negf.jpg,stim/posf.jpg,stim/5.jpg,stim/1.jpg,stim/latef.jpg,AB,2,4,,,,,0,58,58,19,,,,,,,,,,,,,,4,1,0.899691494049,,,,,,2016_Aug_10_1300,P3,PLC_L_D2S1,NHGX,60.0199080477,
stim/negf.jpg,stim/posf.jpg,stim/3.jpg,stim/6.jpg,stim/latef.jpg,EF,2,4,,,,,0,59,59,59,,,,,,,,,,,,,,4,1,0.999680853527,,,,,,2016_Aug_10_1300,P3,PLC_L_D2S1,NHGX,60.0199080477,
,,,,,,,,,,,,,,,,,,,,,,,,,,,,,,,,0.9984375,-0.587890625,1,0,0,2016_Aug_10_1300,P3,PLC_L_D2S1,NHGX,60.0199080477,
stim/posf.jpg,stim/negf.jpg,stim/6.jpg,stim/3.jpg,stim/latef.jpg,EF,1,2,,,,,,,,,0,0,0,41,,,,,,,,,,2,1,1.01633370275,,,,,,2016_Aug_10_1300,P3,PLC_L_D2S1,NHGX,60.0199080477,
stim/posf.jpg,stim/negf.jpg,stim/2.jpg,stim/4.jpg,stim/latef.jpg,CD,1,2,,,,,,,,,0,1,1,23,,,,,,,,,,2,1,1.08299070834,,,,,,2016_Aug_10_1300,P3,PLC_L_D2S1,NHGX,60.0199080477,
stim/posf.jpg,stim/negf.jpg,stim/2.jpg,stim/4.jpg,stim/latef.jpg,CD,1,2,,,,,,,,,0,2,2,20,,,,,,,,,,2,1,0.699789069255,,,,,,2016_Aug_10_1300,P3,PLC_L_D2S1,NHGX,60.0199080477,
stim/posf.jpg,stim/negf.jpg,stim/1.jpg,stim/5.jpg,stim/latef.jpg,AB,1,2,,,,,,,,,0,3,3,6,,,,,,,,,,2,1,1.0996428478,,,,,,2016_Aug_10_1300,P3,PLC_L_D2S1,NHGX,60.0199080477,
stim/posf.jpg,stim/negf.jpg,stim/5.jpg,stim/1.jpg,stim/latef.jpg,AB,2,4,,,,,,,,,0,4,4,14,,,,,,,,,,4,1,0.783125266727,,,,,,2016_Aug_10_1300,P3,PLC_L_D2S1,NHGX,60.0199080477,
stim/negf.jpg,stim/posf.jpg,stim/6.jpg,stim/3.jpg,stim/latef.jpg,EF,1,2,,,,,,,,,0,5,5,47,,,,,,,,,,2,1,0.982992666221,,,,,,2016_Aug_10_1300,P3,PLC_L_D2S1,NHGX,60.0199080477,
stim/posf.jpg,stim/negf.jpg,stim/3.jpg,stim/6.jpg,stim/latef.jpg,EF,2,4,,,,,,,,,0,6,6,50,,,,,,,,,,4,1,1.11630848189,,,,,,2016_Aug_10_1300,P3,PLC_L_D2S1,NHGX,60.0199080477,
stim/posf.jpg,stim/negf.jpg,stim/1.jpg,stim/5.jpg,stim/latef.jpg,AB,1,2,,,,,,,,,0,7,7,0,,,,,,,,,,2,1,0.999649316922,,,,,,2016_Aug_10_1300,P3,PLC_L_D2S1,NHGX,60.0199080477,
stim/negf.jpg,stim/posf.jpg,stim/6.jpg,stim/3.jpg,stim/latef.jpg,EF,1,2,,,,,,,,,0,8,8,48,,,,,,,,,,2,1,0.833074647559,,,,,,2016_Aug_10_1300,P3,PLC_L_D2S1,NHGX,60.0199080477,
stim/posf.jpg,stim/negf.jpg,stim/4.jpg,stim/2.jpg,stim/latef.jpg,CD,2,4,,,,,,,,,0,9,9,31,,,,,,,,,,4,1,1.06631880663,,,,,,2016_Aug_10_1300,P3,PLC_L_D2S1,NHGX,60.0199080477,
stim/negf.jpg,stim/posf.jpg,stim/4.jpg,stim/2.jpg,stim/latef.jpg,CD,2,4,,,,,,,,,0,10,10,39,,,,,,,,,,4,1,1.28290999316,,,,,,2016_Aug_10_1300,P3,PLC_L_D2S1,NHGX,60.0199080477,
stim/negf.jpg,stim/posf.jpg,stim/2.jpg,stim/4.jpg,stim/latef.jpg,CD,1,2,,,,,,,,,0,11,11,28,,,,,,,,,,4,0,1.09953664409,,,,,,2016_Aug_10_1300,P3,PLC_L_D2S1,NHGX,60.0199080477,
stim/posf.jpg,stim/negf.jpg,stim/2.jpg,stim/4.jpg,stim/latef.jpg,CD,1,2,,,,,,,,,0,12,12,26,,,,,,,,,,4,0,0.849716943481,,,,,,2016_Aug_10_1300,P3,PLC_L_D2S1,NHGX,60.0199080477,
stim/posf.jpg,stim/negf.jpg,stim/6.jpg,stim/3.jpg,stim/latef.jpg,EF,1,2,,,,,,,,,0,13,13,45,,,,,,,,,,2,1,0.932981273825,,,,,,2016_Aug_10_1300,P3,PLC_L_D2S1,NHGX,60.0199080477,
stim/posf.jpg,stim/negf.jpg,stim/4.jpg,stim/2.jpg,stim/latef.jpg,CD,2,4,,,,,,,,,0,14,14,33,,,,,,,,,,4,1,0.89970633905,,,,,,2016_Aug_10_1300,P3,PLC_L_D2S1,NHGX,60.0199080477,
stim/posf.jpg,stim/negf.jpg,stim/6.jpg,stim/3.jpg,stim/latef.jpg,EF,1,2,,,,,,,,,0,15,15,42,,,,,,,,,,2,1,0.71643183134,,,,,,2016_Aug_10_1300,P3,PLC_L_D2S1,NHGX,60.0199080477,
stim/negf.jpg,stim/posf.jpg,stim/3.jpg,stim/6.jpg,stim/latef.jpg,EF,2,4,,,,,,,,,0,16,16,57,,,,,,,,,,4,1,1.06632324569,,,,,,2016_Aug_10_1300,P3,PLC_L_D2S1,NHGX,60.0199080477,
stim/negf.jpg,stim/posf.jpg,stim/6.jpg,stim/3.jpg,stim/latef.jpg,EF,1,2,,,,,,,,,0,17,17,46,,,,,,,,,,2,1,1.64946328524,,,,,,2016_Aug_10_1300,P3,PLC_L_D2S1,NHGX,60.0199080477,
stim/negf.jpg,stim/posf.jpg,stim/5.jpg,stim/1.jpg,stim/latef.jpg,AB,2,4,,,,,,,,,0,18,18,19,,,,,,,,,,4,1,0.899708826249,,,,,,2016_Aug_10_1300,P3,PLC_L_D2S1,NHGX,60.0199080477,
stim/posf.jpg,stim/negf.jpg,stim/3.jpg,stim/6.jpg,stim/latef.jpg,EF,2,4,,,,,,,,,0,19,19,54,,,,,,,,,,4,1,0.933010404433,,,,,,2016_Aug_10_1300,P3,PLC_L_D2S1,NHGX,60.0199080477,
stim/negf.jpg,stim/posf.jpg,stim/4.jpg,stim/2.jpg,stim/latef.jpg,CD,2,4,,,,,,,,,0,20,20,37,,,,,,,,,,4,1,1.09959614439,,,,,,2016_Aug_10_1300,P3,PLC_L_D2S1,NHGX,60.0199080477,
stim/posf.jpg,stim/negf.jpg,stim/5.jpg,stim/1.jpg,stim/latef.jpg,AB,2,4,,,,,,,,,0,21,21,11,,,,,,,,,,4,1,0.883045823716,,,,,,2016_Aug_10_1300,P3,PLC_L_D2S1,NHGX,60.0199080477,
stim/posf.jpg,stim/negf.jpg,stim/2.jpg,stim/4.jpg,stim/latef.jpg,CD,1,2,,,,,,,,,0,22,22,22,,,,,,,,,,2,1,1.13290365035,,,,,,2016_Aug_10_1300,P3,PLC_L_D2S1,NHGX,60.0199080477,
stim/posf.jpg,stim/negf.jpg,stim/2.jpg,stim/4.jpg,stim/latef.jpg,CD,1,2,,,,,,,,,0,23,23,21,,,,,,,,,,2,1,0.783080767814,,,,,,2016_Aug_10_1300,P3,PLC_L_D2S1,NHGX,60.0199080477,
stim/posf.jpg,stim/negf.jpg,stim/5.jpg,stim/1.jpg,stim/latef.jpg,AB,2,4,,,,,,,,,0,24,24,17,,,,,,,,,,4,1,0.816412039007,,,,,,2016_Aug_10_1300,P3,PLC_L_D2S1,NHGX,60.0199080477,
stim/posf.jpg,stim/negf.jpg,stim/5.jpg,stim/1.jpg,stim/latef.jpg,AB,2,4,,,,,,,,,0,25,25,16,,,,,,,,,,4,1,0.716424387787,,,,,,2016_Aug_10_1300,P3,PLC_L_D2S1,NHGX,60.0199080477,
stim/negf.jpg,stim/posf.jpg,stim/3.jpg,stim/6.jpg,stim/latef.jpg,EF,2,4,,,,,,,,,0,26,26,59,,,,,,,,,,4,1,0.799746588372,,,,,,2016_Aug_10_1300,P3,PLC_L_D2S1,NHGX,60.0199080477,
stim/negf.jpg,stim/posf.jpg,stim/2.jpg,stim/4.jpg,stim/latef.jpg,CD,1,2,,,,,,,,,0,27,27,29,,,,,,,,,,2,1,0.94968881437,,,,,,2016_Aug_10_1300,P3,PLC_L_D2S1,NHGX,60.0199080477,
stim/posf.jpg,stim/negf.jpg,stim/6.jpg,stim/3.jpg,stim/latef.jpg,EF,1,2,,,,,,,,,0,28,28,40,,,,,,,,,,2,1,0.983016644987,,,,,,2016_Aug_10_1300,P3,PLC_L_D2S1,NHGX,60.0199080477,
stim/posf.jpg,stim/negf.jpg,stim/4.jpg,stim/2.jpg,stim/latef.jpg,CD,2,4,,,,,,,,,0,29,29,30,,,,,,,,,,4,1,0.933021249465,,,,,,2016_Aug_10_1300,P3,PLC_L_D2S1,NHGX,60.0199080477,
stim/posf.jpg,stim/negf.jpg,stim/1.jpg,stim/5.jpg,stim/latef.jpg,AB,1,2,,,,,,,,,0,30,30,7,,,,,,,,,,2,1,0.949739060608,,,,,,2016_Aug_10_1300,P3,PLC_L_D2S1,NHGX,60.0199080477,
stim/posf.jpg,stim/negf.jpg,stim/5.jpg,stim/1.jpg,stim/latef.jpg,AB,2,4,,,,,,,,,0,31,31,13,,,,,,,,,,4,1,0.766409599928,,,,,,2016_Aug_10_1300,P3,PLC_L_D2S1,NHGX,60.0199080477,
stim/negf.jpg,stim/posf.jpg,stim/4.jpg,stim/2.jpg,stim/latef.jpg,CD,2,4,,,,,,,,,0,32,32,38,,,,,,,,,,4,1,0.783076590401,,,,,,2016_Aug_10_1300,P3,PLC_L_D2S1,NHGX,60.0199080477,
stim/posf.jpg,stim/negf.jpg,stim/1.jpg,stim/5.jpg,stim/latef.jpg,AB,1,2,,,,,,,,,0,33,33,4,,,,,,,,,,2,1,0.716450074811,,,,,,2016_Aug_10_1300,P3,PLC_L_D2S1,NHGX,60.0199080477,
stim/posf.jpg,stim/negf.jpg,stim/1.jpg,stim/5.jpg,stim/latef.jpg,AB,1,2,,,,,,,,,0,34,34,3,,,,,,,,,,2,1,0.833054217638,,,,,,2016_Aug_10_1300,P3,PLC_L_D2S1,NHGX,60.0199080477,
stim/negf.jpg,stim/posf.jpg,stim/3.jpg,stim/6.jpg,stim/latef.jpg,EF,2,4,,,,,,,,,0,35,35,58,,,,,,,,,,4,1,0.749780900896,,,,,,2016_Aug_10_1300,P3,PLC_L_D2S1,NHGX,60.0199080477,
stim/posf.jpg,stim/negf.jpg,stim/4.jpg,stim/2.jpg,stim/latef.jpg,CD,2,4,,,,,,,,,0,36,36,34,,,,,,,,,,4,1,0.899691981263,,,,,,2016_Aug_10_1300,P3,PLC_L_D2S1,NHGX,60.0199080477,
stim/posf.jpg,stim/negf.jpg,stim/3.jpg,stim/6.jpg,stim/latef.jpg,EF,2,4,,,,,,,,,0,37,37,51,,,,,,,,,,4,1,0.899700558643,,,,,,2016_Aug_10_1300,P3,PLC_L_D2S1,NHGX,60.0199080477,
stim/posf.jpg,stim/negf.jpg,stim/2.jpg,stim/4.jpg,stim/latef.jpg,CD,1,2,,,,,,,,,0,38,38,25,,,,,,,,,,2,1,0.816439762107,,,,,,2016_Aug_10_1300,P3,PLC_L_D2S1,NHGX,60.0199080477,
stim/negf.jpg,stim/posf.jpg,stim/2.jpg,stim/4.jpg,stim/latef.jpg,CD,1,2,,,,,,,,,0,39,39,27,,,,,,,,,,2,1,0.949682649003,,,,,,2016_Aug_10_1300,P3,PLC_L_D2S1,NHGX,60.0199080477,
stim/negf.jpg,stim/posf.jpg,stim/5.jpg,stim/1.jpg,stim/latef.jpg,AB,2,4,,,,,,,,,0,40,40,18,,,,,,,,,,4,1,1.14961984045,,,,,,2016_Aug_10_1300,P3,PLC_L_D2S1,NHGX,60.0199080477,
stim/negf.jpg,stim/posf.jpg,stim/1.jpg,stim/5.jpg,stim/latef.jpg,AB,1,2,,,,,,,,,0,41,41,8,,,,,,,,,,2,1,1.01633609071,,,,,,2016_Aug_10_1300,P3,PLC_L_D2S1,NHGX,60.0199080477,
stim/posf.jpg,stim/negf.jpg,stim/3.jpg,stim/6.jpg,stim/latef.jpg,EF,2,4,,,,,,,,,0,42,42,53,,,,,,,,,,4,1,0.849720853227,,,,,,2016_Aug_10_1300,P3,PLC_L_D2S1,NHGX,60.0199080477,
stim/posf.jpg,stim/negf.jpg,stim/6.jpg,stim/3.jpg,stim/latef.jpg,EF,1,2,,,,,,,,,0,43,43,43,,,,,,,,,,2,1,0.899701096984,,,,,,2016_Aug_10_1300,P3,PLC_L_D2S1,NHGX,60.0199080477,
stim/posf.jpg,stim/negf.jpg,stim/4.jpg,stim/2.jpg,stim/latef.jpg,CD,2,4,,,,,,,,,0,44,44,36,,,,,,,,,,4,1,1.09963609898,,,,,,2016_Aug_10_1300,P3,PLC_L_D2S1,NHGX,60.0199080477,
stim/negf.jpg,stim/posf.jpg,stim/3.jpg,stim/6.jpg,stim/latef.jpg,EF,2,4,,,,,,,,,0,45,45,56,,,,,,,,,,4,1,0.833076674612,,,,,,2016_Aug_10_1300,P3,PLC_L_D2S1,NHGX,60.0199080477,
stim/posf.jpg,stim/negf.jpg,stim/2.jpg,stim/4.jpg,stim/latef.jpg,CD,1,2,,,,,,,,,0,46,46,24,,,,,,,,,,4,0,1.38289079029,,,,,,2016_Aug_10_1300,P3,PLC_L_D2S1,NHGX,60.0199080477,
stim/posf.jpg,stim/negf.jpg,stim/1.jpg,stim/5.jpg,stim/latef.jpg,AB,1,2,,,,,,,,,0,47,47,1,,,,,,,,,,2,1,0.833063700273,,,,,,2016_Aug_10_1300,P3,PLC_L_D2S1,NHGX,60.0199080477,
stim/posf.jpg,stim/negf.jpg,stim/6.jpg,stim/3.jpg,stim/latef.jpg,EF,1,2,,,,,,,,,0,48,48,44,,,,,,,,,,2,1,0.96634682446,,,,,,2016_Aug_10_1300,P3,PLC_L_D2S1,NHGX,60.0199080477,
stim/posf.jpg,stim/negf.jpg,stim/5.jpg,stim/1.jpg,stim/latef.jpg,AB,2,4,,,,,,,,,0,49,49,10,,,,,,,,,,4,1,0.916330884731,,,,,,2016_Aug_10_1300,P3,PLC_L_D2S1,NHGX,60.0199080477,
stim/posf.jpg,stim/negf.jpg,stim/5.jpg,stim/1.jpg,stim/latef.jpg,AB,2,4,,,,,,,,,0,50,50,12,,,,,,,,,,4,1,0.74970982173,,,,,,2016_Aug_10_1300,P3,PLC_L_D2S1,NHGX,60.0199080477,
stim/posf.jpg,stim/negf.jpg,stim/1.jpg,stim/5.jpg,stim/latef.jpg,AB,1,2,,,,,,,,,0,51,51,5,,,,,,,,,,2,1,0.816320244209,,,,,,2016_Aug_10_1300,P3,PLC_L_D2S1,NHGX,60.0199080477,
stim/posf.jpg,stim/negf.jpg,stim/4.jpg,stim/2.jpg,stim/latef.jpg,CD,2,4,,,,,,,,,0,52,52,35,,,,,,,,,,4,1,0.799741238036,,,,,,2016_Aug_10_1300,P3,PLC_L_D2S1,NHGX,60.0199080477,
stim/posf.jpg,stim/negf.jpg,stim/5.jpg,stim/1.jpg,stim/latef.jpg,AB,2,4,,,,,,,,,0,53,53,15,,,,,,,,,,4,1,0.733104045834,,,,,,2016_Aug_10_1300,P3,PLC_L_D2S1,NHGX,60.0199080477,
stim/posf.jpg,stim/negf.jpg,stim/3.jpg,stim/6.jpg,stim/latef.jpg,EF,2,4,,,,,,,,,0,54,54,55,,,,,,,,,,4,1,1.09958539861,,,,,,2016_Aug_10_1300,P3,PLC_L_D2S1,NHGX,60.0199080477,
stim/posf.jpg,stim/negf.jpg,stim/1.jpg,stim/5.jpg,stim/latef.jpg,AB,1,2,,,,,,,,,0,55,55,2,,,,,,,,,,2,1,1.11630737513,,,,,,2016_Aug_10_1300,P3,PLC_L_D2S1,NHGX,60.0199080477,
stim/negf.jpg,stim/posf.jpg,stim/6.jpg,stim/3.jpg,stim/latef.jpg,EF,1,2,,,,,,,,,0,56,56,49,,,,,,,,,,2,1,0.983027826858,,,,,,2016_Aug_10_1300,P3,PLC_L_D2S1,NHGX,60.0199080477,
stim/posf.jpg,stim/negf.jpg,stim/3.jpg,stim/6.jpg,stim/latef.jpg,EF,2,4,,,,,,,,,0,57,57,52,,,,,,,,,,4,1,0.666441963594,,,,,,2016_Aug_10_1300,P3,PLC_L_D2S1,NHGX,60.0199080477,
stim/negf.jpg,stim/posf.jpg,stim/1.jpg,stim/5.jpg,stim/latef.jpg,AB,1,2,,,,,,,,,0,58,58,9,,,,,,,,,,2,1,0.916348430463,,,,,,2016_Aug_10_1300,P3,PLC_L_D2S1,NHGX,60.0199080477,
stim/posf.jpg,stim/negf.jpg,stim/4.jpg,stim/2.jpg,stim/latef.jpg,CD,2,4,,,,,,,,,0,59,59,32,,,,,,,,,,4,1,0.783059146924,,,,,,2016_Aug_10_1300,P3,PLC_L_D2S1,NHGX,60.0199080477,
,,,,,,,,,,,,,,,,,,,,,,,,,,,,,,,,0.9984375,-0.587890625,1,0,0,2016_Aug_10_1300,P3,PLC_L_D2S1,NHGX,60.0199080477,
stim/negf.jpg,stim/posf.jpg,stim/6.jpg,stim/3.jpg,stim/latef.jpg,EF,1,2,,,,,,,,,,,,,0,0,0,49,,,,,,2,1,1.0662834896,,,,,,2016_Aug_10_1300,P3,PLC_L_D2S1,NHGX,60.0199080477,
stim/negf.jpg,stim/posf.jpg,stim/5.jpg,stim/1.jpg,stim/latef.jpg,AB,2,4,,,,,,,,,,,,,0,1,1,19,,,,,,4,1,0.866389491808,,,,,,2016_Aug_10_1300,P3,PLC_L_D2S1,NHGX,60.0199080477,
stim/posf.jpg,stim/negf.jpg,stim/6.jpg,stim/3.jpg,stim/latef.jpg,EF,1,2,,,,,,,,,,,,,0,2,2,45,,,,,,2,1,0.916402866144,,,,,,2016_Aug_10_1300,P3,PLC_L_D2S1,NHGX,60.0199080477,
stim/negf.jpg,stim/posf.jpg,stim/4.jpg,stim/2.jpg,stim/latef.jpg,CD,2,4,,,,,,,,,,,,,0,3,3,39,,,,,,4,1,0.749763391253,,,,,,2016_Aug_10_1300,P3,PLC_L_D2S1,NHGX,60.0199080477,
stim/posf.jpg,stim/negf.jpg,stim/2.jpg,stim/4.jpg,stim/latef.jpg,CD,1,2,,,,,,,,,,,,,0,4,4,25,,,,,,2,1,0.849703087947,,,,,,2016_Aug_10_1300,P3,PLC_L_D2S1,NHGX,60.0199080477,
stim/posf.jpg,stim/negf.jpg,stim/1.jpg,stim/5.jpg,stim/latef.jpg,AB,1,2,,,,,,,,,,,,,0,5,5,3,,,,,,4,0,1.04965820107,,,,,,2016_Aug_10_1300,P3,PLC_L_D2S1,NHGX,60.0199080477,
stim/posf.jpg,stim/negf.jpg,stim/1.jpg,stim/5.jpg,stim/latef.jpg,AB,1,2,,,,,,,,,,,,,0,6,6,6,,,,,,2,1,0.733111351042,,,,,,2016_Aug_10_1300,P3,PLC_L_D2S1,NHGX,60.0199080477,
stim/negf.jpg,stim/posf.jpg,stim/6.jpg,stim/3.jpg,stim/latef.jpg,EF,1,2,,,,,,,,,,,,,0,7,7,48,,,,,,2,1,1.34956280329,,,,,,2016_Aug_10_1300,P3,PLC_L_D2S1,NHGX,60.0199080477,
stim/posf.jpg,stim/negf.jpg,stim/2.jpg,stim/4.jpg,stim/latef.jpg,CD,1,2,,,,,,,,,,,,,0,8,8,22,,,,,,2,1,0.999614667559,,,,,,2016_Aug_10_1300,P3,PLC_L_D2S1,NHGX,60.0199080477,
stim/posf.jpg,stim/negf.jpg,stim/3.jpg,stim/6.jpg,stim/latef.jpg,EF,2,4,,,,,,,,,,,,,0,9,9,53,,,,,,4,1,0.633139059105,,,,,,2016_Aug_10_1300,P3,PLC_L_D2S1,NHGX,60.0199080477,
stim/negf.jpg,stim/posf.jpg,stim/2.jpg,stim/4.jpg,stim/latef.jpg,CD,1,2,,,,,,,,,,,,,0,10,10,28,,,,,,2,1,0.866375146052,,,,,,2016_Aug_10_1300,P3,PLC_L_D2S1,NHGX,60.0199080477,
stim/posf.jpg,stim/negf.jpg,stim/2.jpg,stim/4.jpg,stim/latef.jpg,CD,1,2,,,,,,,,,,,,,0,11,11,26,,,,,,2,1,0.849715824693,,,,,,2016_Aug_10_1300,P3,PLC_L_D2S1,NHGX,60.0199080477,
stim/negf.jpg,stim/posf.jpg,stim/1.jpg,stim/5.jpg,stim/latef.jpg,AB,1,2,,,,,,,,,,,,,0,12,12,9,,,,,,2,1,0.866375711461,,,,,,2016_Aug_10_1300,P3,PLC_L_D2S1,NHGX,60.0199080477,
stim/posf.jpg,stim/negf.jpg,stim/2.jpg,stim/4.jpg,stim/latef.jpg,CD,1,2,,,,,,,,,,,,,0,13,13,23,,,,,,2,1,0.783081603898,,,,,,2016_Aug_10_1300,P3,PLC_L_D2S1,NHGX,60.0199080477,
stim/posf.jpg,stim/negf.jpg,stim/6.jpg,stim/3.jpg,stim/latef.jpg,EF,1,2,,,,,,,,,,,,,0,14,14,42,,,,,,2,1,0.866374803197,,,,,,2016_Aug_10_1300,P3,PLC_L_D2S1,NHGX,60.0199080477,
stim/negf.jpg,stim/posf.jpg,stim/2.jpg,stim/4.jpg,stim/latef.jpg,CD,1,2,,,,,,,,,,,,,0,15,15,29,,,,,,2,1,0.799659653687,,,,,,2016_Aug_10_1300,P3,PLC_L_D2S1,NHGX,60.0199080477,
stim/posf.jpg,stim/negf.jpg,stim/5.jpg,stim/1.jpg,stim/latef.jpg,AB,2,4,,,,,,,,,,,,,0,16,16,10,,,,,,4,1,0.983004196961,,,,,,2016_Aug_10_1300,P3,PLC_L_D2S1,NHGX,60.0199080477,
stim/posf.jpg,stim/negf.jpg,stim/4.jpg,stim/2.jpg,stim/latef.jpg,CD,2,4,,,,,,,,,,,,,0,17,17,35,,,,,,4,1,0.983003709746,,,,,,2016_Aug_10_1300,P3,PLC_L_D2S1,NHGX,60.0199080477,
stim/negf.jpg,stim/posf.jpg,stim/1.jpg,stim/5.jpg,stim/latef.jpg,AB,1,2,,,,,,,,,,,,,0,18,18,8,,,,,,2,1,1.01634649664,,,,,,2016_Aug_10_1300,P3,PLC_L_D2S1,NHGX,60.0199080477,
stim/posf.jpg,stim/negf.jpg,stim/5.jpg,stim/1.jpg,stim/latef.jpg,AB,2,4,,,,,,,,,,,,,0,19,19,15,,,,,,4,1,0.733119862257,,,,,,2016_Aug_10_1300,P3,PLC_L_D2S1,NHGX,60.0199080477,
stim/posf.jpg,stim/negf.jpg,stim/4.jpg,stim/2.jpg,stim/latef.jpg,CD,2,4,,,,,,,,,,,,,0,20,20,36,,,,,,4,1,0.783141925249,,,,,,2016_Aug_10_1300,P3,PLC_L_D2S1,NHGX,60.0199080477,
stim/negf.jpg,stim/posf.jpg,stim/2.jpg,stim/4.jpg,stim/latef.jpg,CD,1,2,,,,,,,,,,,,,0,21,21,27,,,,,,2,1,0.966349931204,,,,,,2016_Aug_10_1300,P3,PLC_L_D2S1,NHGX,60.0199080477,
stim/posf.jpg,stim/negf.jpg,stim/3.jpg,stim/6.jpg,stim/latef.jpg,EF,2,4,,,,,,,,,,,,,0,22,22,51,,,,,,4,1,0.816390806084,,,,,,2016_Aug_10_1300,P3,PLC_L_D2S1,NHGX,60.0199080477,
stim/negf.jpg,stim/posf.jpg,stim/3.jpg,stim/6.jpg,stim/latef.jpg,EF,2,4,,,,,,,,,,,,,0,23,23,59,,,,,,4,1,0.916354126661,,,,,,2016_Aug_10_1300,P3,PLC_L_D2S1,NHGX,60.0199080477,
stim/negf.jpg,stim/posf.jpg,stim/6.jpg,stim/3.jpg,stim/latef.jpg,EF,1,2,,,,,,,,,,,,,0,24,24,46,,,,,,2,1,0.683089300081,,,,,,2016_Aug_10_1300,P3,PLC_L_D2S1,NHGX,60.0199080477,
stim/posf.jpg,stim/negf.jpg,stim/6.jpg,stim/3.jpg,stim/latef.jpg,EF,1,2,,,,,,,,,,,,,0,25,25,44,,,,,,2,1,0.799690778265,,,,,,2016_Aug_10_1300,P3,PLC_L_D2S1,NHGX,60.0199080477,
stim/posf.jpg,stim/negf.jpg,stim/5.jpg,stim/1.jpg,stim/latef.jpg,AB,2,4,,,,,,,,,,,,,0,26,26,11,,,,,,4,1,0.699841333524,,,,,,2016_Aug_10_1300,P3,PLC_L_D2S1,NHGX,60.0199080477,
stim/posf.jpg,stim/negf.jpg,stim/3.jpg,stim/6.jpg,stim/latef.jpg,EF,2,4,,,,,,,,,,,,,0,27,27,54,,,,,,4,1,0.799756708596,,,,,,2016_Aug_10_1300,P3,PLC_L_D2S1,NHGX,60.0199080477,
stim/posf.jpg,stim/negf.jpg,stim/1.jpg,stim/5.jpg,stim/latef.jpg,AB,1,2,,,,,,,,,,,,,0,28,28,5,,,,,,2,1,0.833064557409,,,,,,2016_Aug_10_1300,P3,PLC_L_D2S1,NHGX,60.0199080477,
stim/posf.jpg,stim/negf.jpg,stim/6.jpg,stim/3.jpg,stim/latef.jpg,EF,1,2,,,,,,,,,,,,,0,29,29,41,,,,,,2,1,0.749695100037,,,,,,2016_Aug_10_1300,P3,PLC_L_D2S1,NHGX,60.0199080477,
stim/posf.jpg,stim/negf.jpg,stim/1.jpg,stim/5.jpg,stim/latef.jpg,AB,1,2,,,,,,,,,,,,,0,30,30,0,,,,,,2,1,0.933021162247,,,,,,2016_Aug_10_1300,P3,PLC_L_D2S1,NHGX,60.0199080477,
stim/posf.jpg,stim/negf.jpg,stim/5.jpg,stim/1.jpg,stim/latef.jpg,AB,2,4,,,,,,,,,,,,,0,31,31,17,,,,,,4,1,0.599810079624,,,,,,2016_Aug_10_1300,P3,PLC_L_D2S1,NHGX,60.0199080477,
stim/posf.jpg,stim/negf.jpg,stim/1.jpg,stim/5.jpg,stim/latef.jpg,AB,1,2,,,,,,,,,,,,,0,32,32,7,,,,,,2,1,0.583158622868,,,,,,2016_Aug_10_1300,P3,PLC_L_D2S1,NHGX,60.0199080477,
stim/posf.jpg,stim/negf.jpg,stim/5.jpg,stim/1.jpg,stim/latef.jpg,AB,2,4,,,,,,,,,,,,,0,33,33,12,,,,,,4,1,0.733086205367,,,,,,2016_Aug_10_1300,P3,PLC_L_D2S1,NHGX,60.0199080477,
stim/posf.jpg,stim/negf.jpg,stim/6.jpg,stim/3.jpg,stim/latef.jpg,EF,1,2,,,,,,,,,,,,,0,34,34,40,,,,,,2,1,0.866400896234,,,,,,2016_Aug_10_1300,P3,PLC_L_D2S1,NHGX,60.0199080477,
stim/negf.jpg,stim/posf.jpg,stim/4.jpg,stim/2.jpg,stim/latef.jpg,CD,2,4,,,,,,,,,,,,,0,35,35,37,,,,,,4,1,0.699759328125,,,,,,2016_Aug_10_1300,P3,PLC_L_D2S1,NHGX,60.0199080477,
stim/posf.jpg,stim/negf.jpg,stim/3.jpg,stim/6.jpg,stim/latef.jpg,EF,2,4,,,,,,,,,,,,,0,36,36,52,,,,,,4,1,0.716433070428,,,,,,2016_Aug_10_1300,P3,PLC_L_D2S1,NHGX,60.0199080477,
stim/negf.jpg,stim/posf.jpg,stim/5.jpg,stim/1.jpg,stim/latef.jpg,AB,2,4,,,,,,,,,,,,,0,37,37,18,,,,,,4,1,0.883040139548,,,,,,2016_Aug_10_1300,P3,PLC_L_D2S1,NHGX,60.0199080477,
stim/posf.jpg,stim/negf.jpg,stim/5.jpg,stim/1.jpg,stim/latef.jpg,AB,2,4,,,,,,,,,,,,,0,38,38,13,,,,,,4,1,0.966352607875,,,,,,2016_Aug_10_1300,P3,PLC_L_D2S1,NHGX,60.0199080477,
stim/posf.jpg,stim/negf.jpg,stim/5.jpg,stim/1.jpg,stim/latef.jpg,AB,2,4,,,,,,,,,,,,,0,39,39,16,,,,,,4,1,0.816408727754,,,,,,2016_Aug_10_1300,P3,PLC_L_D2S1,NHGX,60.0199080477,
stim/posf.jpg,stim/negf.jpg,stim/3.jpg,stim/6.jpg,stim/latef.jpg,EF,2,4,,,,,,,,,,,,,0,40,40,50,,,,,,4,1,0.916328190014,,,,,,2016_Aug_10_1300,P3,PLC_L_D2S1,NHGX,60.0199080477,
stim/posf.jpg,stim/negf.jpg,stim/3.jpg,stim/6.jpg,stim/latef.jpg,EF,2,4,,,,,,,,,,,,,0,41,41,55,,,,,,4,1,0.666435476425,,,,,,2016_Aug_10_1300,P3,PLC_L_D2S1,NHGX,60.0199080477,
stim/posf.jpg,stim/negf.jpg,stim/2.jpg,stim/4.jpg,stim/latef.jpg,CD,1,2,,,,,,,,,,,,,0,42,42,24,,,,,,2,1,0.91637419869,,,,,,2016_Aug_10_1300,P3,PLC_L_D2S1,NHGX,60.0199080477,
stim/posf.jpg,stim/negf.jpg,stim/4.jpg,stim/2.jpg,stim/latef.jpg,CD,2,4,,,,,,,,,,,,,0,43,43,32,,,,,,4,1,0.849686372283,,,,,,2016_Aug_10_1300,P3,PLC_L_D2S1,NHGX,60.0199080477,
stim/posf.jpg,stim/negf.jpg,stim/5.jpg,stim/1.jpg,stim/latef.jpg,AB,2,4,,,,,,,,,,,,,0,44,44,14,,,,,,2,0,0.83306801603,,,,,,2016_Aug_10_1300,P3,PLC_L_D2S1,NHGX,60.0199080477,
stim/posf.jpg,stim/negf.jpg,stim/2.jpg,stim/4.jpg,stim/latef.jpg,CD,1,2,,,,,,,,,,,,,0,45,45,20,,,,,,2,1,0.866380580597,,,,,,2016_Aug_10_1300,P3,PLC_L_D2S1,NHGX,60.0199080477,
stim/posf.jpg,stim/negf.jpg,stim/6.jpg,stim/3.jpg,stim/latef.jpg,EF,1,2,,,,,,,,,,,,,0,46,46,43,,,,,,2,1,0.949677196412,,,,,,2016_Aug_10_1300,P3,PLC_L_D2S1,NHGX,60.0199080477,
stim/negf.jpg,stim/posf.jpg,stim/3.jpg,stim/6.jpg,stim/latef.jpg,EF,2,4,,,,,,,,,,,,,0,47,47,57,,,,,,4,1,0.6164628687,,,,,,2016_Aug_10_1300,P3,PLC_L_D2S1,NHGX,60.0199080477,
stim/negf.jpg,stim/posf.jpg,stim/4.jpg,stim/2.jpg,stim/latef.jpg,CD,2,4,,,,,,,,,,,,,0,48,48,38,,,,,,4,1,0.933037135059,,,,,,2016_Aug_10_1300,P3,PLC_L_D2S1,NHGX,60.0199080477,
stim/posf.jpg,stim/negf.jpg,stim/1.jpg,stim/5.jpg,stim/latef.jpg,AB,1,2,,,,,,,,,,,,,0,49,49,1,,,,,,2,1,0.949686913632,,,,,,2016_Aug_10_1300,P3,PLC_L_D2S1,NHGX,60.0199080477,
stim/posf.jpg,stim/negf.jpg,stim/1.jpg,stim/5.jpg,stim/latef.jpg,AB,1,2,,,,,,,,,,,,,0,50,50,2,,,,,,2,1,0.799733923805,,,,,,2016_Aug_10_1300,P3,PLC_L_D2S1,NHGX,60.0199080477,
stim/negf.jpg,stim/posf.jpg,stim/6.jpg,stim/3.jpg,stim/latef.jpg,EF,1,2,,,,,,,,,,,,,0,51,51,47,,,,,,2,1,1.09964718461,,,,,,2016_Aug_10_1300,P3,PLC_L_D2S1,NHGX,60.0199080477,
stim/negf.jpg,stim/posf.jpg,stim/3.jpg,stim/6.jpg,stim/latef.jpg,EF,2,4,,,,,,,,,,,,,0,52,52,58,,,,,,4,1,0.983020266013,,,,,,2016_Aug_10_1300,P3,PLC_L_D2S1,NHGX,60.0199080477,
stim/posf.jpg,stim/negf.jpg,stim/4.jpg,stim/2.jpg,stim/latef.jpg,CD,2,4,,,,,,,,,,,,,0,53,53,33,,,,,,4,1,0.91636479425,,,,,,2016_Aug_10_1300,P3,PLC_L_D2S1,NHGX,60.0199080477,
stim/posf.jpg,stim/negf.jpg,stim/4.jpg,stim/2.jpg,stim/latef.jpg,CD,2,4,,,,,,,,,,,,,0,54,54,30,,,,,,4,1,0.899699692483,,,,,,2016_Aug_10_1300,P3,PLC_L_D2S1,NHGX,60.0199080477,
stim/posf.jpg,stim/negf.jpg,stim/1.jpg,stim/5.jpg,stim/latef.jpg,AB,1,2,,,,,,,,,,,,,0,55,55,4,,,,,,2,1,0.783085585823,,,,,,2016_Aug_10_1300,P3,PLC_L_D2S1,NHGX,60.0199080477,
stim/negf.jpg,stim/posf.jpg,stim/3.jpg,stim/6.jpg,stim/latef.jpg,EF,2,4,,,,,,,,,,,,,0,56,56,56,,,,,,4,1,0.699796506794,,,,,,2016_Aug_10_1300,P3,PLC_L_D2S1,NHGX,60.0199080477,
stim/posf.jpg,stim/negf.jpg,stim/4.jpg,stim/2.jpg,stim/latef.jpg,CD,2,4,,,,,,,,,,,,,0,57,57,34,,,,,,4,1,0.883042401185,,,,,,2016_Aug_10_1300,P3,PLC_L_D2S1,NHGX,60.0199080477,
stim/posf.jpg,stim/negf.jpg,stim/2.jpg,stim/4.jpg,stim/latef.jpg,CD,1,2,,,,,,,,,,,,,0,58,58,21,,,,,,4,0,1.39953092984,,,,,,2016_Aug_10_1300,P3,PLC_L_D2S1,NHGX,60.0199080477,
stim/posf.jpg,stim/negf.jpg,stim/4.jpg,stim/2.jpg,stim/latef.jpg,CD,2,4,,,,,,,,,,,,,0,59,59,31,,,,,,4,1,0.883009902182,,,,,,2016_Aug_10_1300,P3,PLC_L_D2S1,NHGX,60.0199080477,
