fb_corr,fb_incorr,symbol2,symbol1,fb_late,pair,position,correct,block_01.thisRepN,block_01.thisTrialN,block_01.thisN,block_01.thisIndex,block_02.thisRepN,block_02.thisTrialN,block_02.thisN,block_02.thisIndex,block_03.thisRepN,block_03.thisTrialN,block_03.thisN,block_03.thisIndex,block_04.thisRepN,block_04.thisTrialN,block_04.thisN,block_04.thisIndex,mouse.x,mouse.y,mouse.leftButton,mouse.midButton,mouse.rightButton,buttonBox_2.keys,buttonBox_2.corr,buttonBox_2.rt,mouse_2.x,mouse_2.y,mouse_2.leftButton,mouse_2.midButton,mouse_2.rightButton,date,Participant,expName,Group,frameRate,
,,,,,,,,,,,,,,,,,,,,,,,,-0.0046875,0.37890625,1,0,0,,,,,,,,,2016_Aug_19_1203,P4,PLC_L_D2S1,NHGX,60.0161588752,
stim/negf.jpg,stim/posf.jpg,stim/1.jpg,stim/4.jpg,stim/latef.jpg,EF,1,2,0,0,0,46,,,,,,,,,,,,,,,,,,4,0,1.16633572704,,,,,,2016_Aug_19_1203,P4,PLC_L_D2S1,NHGX,60.0161588752,
stim/negf.jpg,stim/posf.jpg,stim/2.jpg,stim/5.jpg,stim/latef.jpg,CD,2,4,0,1,1,39,,,,,,,,,,,,,,,,,,4,1,1.34962471852,,,,,,2016_Aug_19_1203,P4,PLC_L_D2S1,NHGX,60.0161588752,
stim/posf.jpg,stim/negf.jpg,stim/3.jpg,stim/6.jpg,stim/latef.jpg,AB,1,2,0,2,2,2,,,,,,,,,,,,,,,,,,2,1,1.18295750649,,,,,,2016_Aug_19_1203,P4,PLC_L_D2S1,NHGX,60.0161588752,
stim/negf.jpg,stim/posf.jpg,stim/2.jpg,stim/5.jpg,stim/latef.jpg,CD,2,4,0,3,3,37,,,,,,,,,,,,,,,,,,2,0,1.16632557076,,,,,,2016_Aug_19_1203,P4,PLC_L_D2S1,NHGX,60.0161588752,
stim/negf.jpg,stim/posf.jpg,stim/6.jpg,stim/3.jpg,stim/latef.jpg,AB,2,4,0,4,4,18,,,,,,,,,,,,,,,,,,4,1,1.01629523577,,,,,,2016_Aug_19_1203,P4,PLC_L_D2S1,NHGX,60.0161588752,
stim/posf.jpg,stim/negf.jpg,stim/2.jpg,stim/5.jpg,stim/latef.jpg,CD,2,4,0,5,5,36,,,,,,,,,,,,,,,,,,2,0,1.16626952328,,,,,,2016_Aug_19_1203,P4,PLC_L_D2S1,NHGX,60.0161588752,
stim/negf.jpg,stim/posf.jpg,stim/3.jpg,stim/6.jpg,stim/latef.jpg,AB,1,2,0,6,6,8,,,,,,,,,,,,,,,,,,4,0,1.39954776751,,,,,,2016_Aug_19_1203,P4,PLC_L_D2S1,NHGX,60.0161588752,
stim/negf.jpg,stim/posf.jpg,stim/5.jpg,stim/2.jpg,stim/latef.jpg,CD,1,2,0,7,7,28,,,,,,,,,,,,,,,,,,4,0,1.08294727804,,,,,,2016_Aug_19_1203,P4,PLC_L_D2S1,NHGX,60.0161588752,
stim/posf.jpg,stim/negf.jpg,stim/4.jpg,stim/1.jpg,stim/latef.jpg,EF,2,4,0,8,8,53,,,,,,,,,,,,,,,,,,4,1,1.11630692887,,,,,,2016_Aug_19_1203,P4,PLC_L_D2S1,NHGX,60.0161588752,
stim/posf.jpg,stim/negf.jpg,stim/1.jpg,stim/4.jpg,stim/latef.jpg,EF,1,2,0,9,9,44,,,,,,,,,,,,,,,,,,2,1,0.749756347109,,,,,,2016_Aug_19_1203,P4,PLC_L_D2S1,NHGX,60.0161588752,
stim/posf.jpg,stim/negf.jpg,stim/1.jpg,stim/4.jpg,stim/latef.jpg,EF,1,2,0,10,10,45,,,,,,,,,,,,,,,,,,4,0,1.48283413345,,,,,,2016_Aug_19_1203,P4,PLC_L_D2S1,NHGX,60.0161588752,
stim/posf.jpg,stim/negf.jpg,stim/1.jpg,stim/4.jpg,stim/latef.jpg,EF,1,2,0,11,11,41,,,,,,,,,,,,,,,,,,2,1,0.749756338086,,,,,,2016_Aug_19_1203,P4,PLC_L_D2S1,NHGX,60.0161588752,
stim/posf.jpg,stim/negf.jpg,stim/4.jpg,stim/1.jpg,stim/latef.jpg,EF,2,4,0,12,12,52,,,,,,,,,,,,,,,,,,4,1,1.13293889167,,,,,,2016_Aug_19_1203,P4,PLC_L_D2S1,NHGX,60.0161588752,
stim/posf.jpg,stim/negf.jpg,stim/3.jpg,stim/6.jpg,stim/latef.jpg,AB,1,2,0,13,13,3,,,,,,,,,,,,,,,,,,4,0,1.09963800108,,,,,,2016_Aug_19_1203,P4,PLC_L_D2S1,NHGX,60.0161588752,
stim/negf.jpg,stim/posf.jpg,stim/3.jpg,stim/6.jpg,stim/latef.jpg,AB,1,2,0,14,14,9,,,,,,,,,,,,,,,,,,2,1,0.783066711278,,,,,,2016_Aug_19_1203,P4,PLC_L_D2S1,NHGX,60.0161588752,
stim/posf.jpg,stim/negf.jpg,stim/1.jpg,stim/4.jpg,stim/latef.jpg,EF,1,2,0,15,15,40,,,,,,,,,,,,,,,,,,2,1,0.94968558099,,,,,,2016_Aug_19_1203,P4,PLC_L_D2S1,NHGX,60.0161588752,
stim/posf.jpg,stim/negf.jpg,stim/2.jpg,stim/5.jpg,stim/latef.jpg,CD,2,4,0,16,16,34,,,,,,,,,,,,,,,,,,2,0,1.09965085507,,,,,,2016_Aug_19_1203,P4,PLC_L_D2S1,NHGX,60.0161588752,
stim/negf.jpg,stim/posf.jpg,stim/6.jpg,stim/3.jpg,stim/latef.jpg,AB,2,4,0,17,17,19,,,,,,,,,,,,,,,,,,2,0,1.24957694462,,,,,,2016_Aug_19_1203,P4,PLC_L_D2S1,NHGX,60.0161588752,
stim/negf.jpg,stim/posf.jpg,stim/4.jpg,stim/1.jpg,stim/latef.jpg,EF,2,4,0,18,18,56,,,,,,,,,,,,,,,,,,4,1,0.816353460675,,,,,,2016_Aug_19_1203,P4,PLC_L_D2S1,NHGX,60.0161588752,
stim/posf.jpg,stim/negf.jpg,stim/5.jpg,stim/2.jpg,stim/latef.jpg,CD,1,2,0,19,19,22,,,,,,,,,,,,,,,,,,4,0,1.11627303151,,,,,,2016_Aug_19_1203,P4,PLC_L_D2S1,NHGX,60.0161588752,
stim/negf.jpg,stim/posf.jpg,stim/2.jpg,stim/5.jpg,stim/latef.jpg,CD,2,4,0,20,20,38,,,,,,,,,,,,,,,,,,4,1,0.899703958226,,,,,,2016_Aug_19_1203,P4,PLC_L_D2S1,NHGX,60.0161588752,
stim/posf.jpg,stim/negf.jpg,stim/3.jpg,stim/6.jpg,stim/latef.jpg,AB,1,2,0,21,21,6,,,,,,,,,,,,,,,,,,2,1,1.21626821953,,,,,,2016_Aug_19_1203,P4,PLC_L_D2S1,NHGX,60.0161588752,
stim/posf.jpg,stim/negf.jpg,stim/5.jpg,stim/2.jpg,stim/latef.jpg,CD,1,2,0,22,22,23,,,,,,,,,,,,,,,,,,2,1,1.03303294474,,,,,,2016_Aug_19_1203,P4,PLC_L_D2S1,NHGX,60.0161588752,
stim/posf.jpg,stim/negf.jpg,stim/2.jpg,stim/5.jpg,stim/latef.jpg,CD,2,4,0,23,23,30,,,,,,,,,,,,,,,,,,4,1,1.08298789412,,,,,,2016_Aug_19_1203,P4,PLC_L_D2S1,NHGX,60.0161588752,
stim/posf.jpg,stim/negf.jpg,stim/5.jpg,stim/2.jpg,stim/latef.jpg,CD,1,2,0,24,24,25,,,,,,,,,,,,,,,,,,4,0,1.01632616474,,,,,,2016_Aug_19_1203,P4,PLC_L_D2S1,NHGX,60.0161588752,
stim/posf.jpg,stim/negf.jpg,stim/6.jpg,stim/3.jpg,stim/latef.jpg,AB,2,4,0,25,25,14,,,,,,,,,,,,,,,,,,2,0,1.13289565907,,,,,,2016_Aug_19_1203,P4,PLC_L_D2S1,NHGX,60.0161588752,
stim/posf.jpg,stim/negf.jpg,stim/3.jpg,stim/6.jpg,stim/latef.jpg,AB,1,2,0,26,26,4,,,,,,,,,,,,,,,,,,4,0,1.04962771999,,,,,,2016_Aug_19_1203,P4,PLC_L_D2S1,NHGX,60.0161588752,
stim/posf.jpg,stim/negf.jpg,stim/4.jpg,stim/1.jpg,stim/latef.jpg,EF,2,4,0,27,27,55,,,,,,,,,,,,,,,,,,4,1,0.716405854069,,,,,,2016_Aug_19_1203,P4,PLC_L_D2S1,NHGX,60.0161588752,
stim/posf.jpg,stim/negf.jpg,stim/6.jpg,stim/3.jpg,stim/latef.jpg,AB,2,4,0,28,28,17,,,,,,,,,,,,,,,,,,2,0,0.899705594298,,,,,,2016_Aug_19_1203,P4,PLC_L_D2S1,NHGX,60.0161588752,
stim/negf.jpg,stim/posf.jpg,stim/4.jpg,stim/1.jpg,stim/latef.jpg,EF,2,4,0,29,29,57,,,,,,,,,,,,,,,,,,4,1,0.716415138175,,,,,,2016_Aug_19_1203,P4,PLC_L_D2S1,NHGX,60.0161588752,
stim/posf.jpg,stim/negf.jpg,stim/6.jpg,stim/3.jpg,stim/latef.jpg,AB,2,4,0,30,30,11,,,,,,,,,,,,,,,,,,4,1,1.14963096206,,,,,,2016_Aug_19_1203,P4,PLC_L_D2S1,NHGX,60.0161588752,
stim/posf.jpg,stim/negf.jpg,stim/3.jpg,stim/6.jpg,stim/latef.jpg,AB,1,2,0,31,31,1,,,,,,,,,,,,,,,,,,2,1,1.01633087446,,,,,,2016_Aug_19_1203,P4,PLC_L_D2S1,NHGX,60.0161588752,
stim/negf.jpg,stim/posf.jpg,stim/4.jpg,stim/1.jpg,stim/latef.jpg,EF,2,4,0,32,32,58,,,,,,,,,,,,,,,,,,4,1,0.799751022357,,,,,,2016_Aug_19_1203,P4,PLC_L_D2S1,NHGX,60.0161588752,
stim/posf.jpg,stim/negf.jpg,stim/2.jpg,stim/5.jpg,stim/latef.jpg,CD,2,4,0,33,33,32,,,,,,,,,,,,,,,,,,2,0,1.16628610053,,,,,,2016_Aug_19_1203,P4,PLC_L_D2S1,NHGX,60.0161588752,
stim/posf.jpg,stim/negf.jpg,stim/5.jpg,stim/2.jpg,stim/latef.jpg,CD,1,2,0,34,34,21,,,,,,,,,,,,,,,,,,4,0,0.983023406503,,,,,,2016_Aug_19_1203,P4,PLC_L_D2S1,NHGX,60.0161588752,
stim/posf.jpg,stim/negf.jpg,stim/6.jpg,stim/3.jpg,stim/latef.jpg,AB,2,4,0,35,35,12,,,,,,,,,,,,,,,,,,2,0,1.14958688737,,,,,,2016_Aug_19_1203,P4,PLC_L_D2S1,NHGX,60.0161588752,
stim/negf.jpg,stim/posf.jpg,stim/1.jpg,stim/4.jpg,stim/latef.jpg,EF,1,2,0,36,36,48,,,,,,,,,,,,,,,,,,2,1,0.716425126032,,,,,,2016_Aug_19_1203,P4,PLC_L_D2S1,NHGX,60.0161588752,
stim/posf.jpg,stim/negf.jpg,stim/4.jpg,stim/1.jpg,stim/latef.jpg,EF,2,4,0,37,37,51,,,,,,,,,,,,,,,,,,4,1,1.21625129942,,,,,,2016_Aug_19_1203,P4,PLC_L_D2S1,NHGX,60.0161588752,
stim/posf.jpg,stim/negf.jpg,stim/3.jpg,stim/6.jpg,stim/latef.jpg,AB,1,2,0,38,38,0,,,,,,,,,,,,,,,,,,4,0,1.11630948523,,,,,,2016_Aug_19_1203,P4,PLC_L_D2S1,NHGX,60.0161588752,
stim/posf.jpg,stim/negf.jpg,stim/4.jpg,stim/1.jpg,stim/latef.jpg,EF,2,4,0,39,39,50,,,,,,,,,,,,,,,,,,4,1,0.7997469412,,,,,,2016_Aug_19_1203,P4,PLC_L_D2S1,NHGX,60.0161588752,
stim/negf.jpg,stim/posf.jpg,stim/1.jpg,stim/4.jpg,stim/latef.jpg,EF,1,2,0,40,40,47,,,,,,,,,,,,,,,,,,2,1,0.733088162164,,,,,,2016_Aug_19_1203,P4,PLC_L_D2S1,NHGX,60.0161588752,
stim/posf.jpg,stim/negf.jpg,stim/2.jpg,stim/5.jpg,stim/latef.jpg,CD,2,4,0,41,41,31,,,,,,,,,,,,,,,,,,4,1,1.11629974399,,,,,,2016_Aug_19_1203,P4,PLC_L_D2S1,NHGX,60.0161588752,
stim/negf.jpg,stim/posf.jpg,stim/5.jpg,stim/2.jpg,stim/latef.jpg,CD,1,2,0,42,42,27,,,,,,,,,,,,,,,,,,2,1,1.0996344733,,,,,,2016_Aug_19_1203,P4,PLC_L_D2S1,NHGX,60.0161588752,
stim/posf.jpg,stim/negf.jpg,stim/3.jpg,stim/6.jpg,stim/latef.jpg,AB,1,2,0,43,43,5,,,,,,,,,,,,,,,,,,2,1,1.34960910967,,,,,,2016_Aug_19_1203,P4,PLC_L_D2S1,NHGX,60.0161588752,
stim/posf.jpg,stim/negf.jpg,stim/6.jpg,stim/3.jpg,stim/latef.jpg,AB,2,4,0,44,44,10,,,,,,,,,,,,,,,,,,4,1,1.2495650831,,,,,,2016_Aug_19_1203,P4,PLC_L_D2S1,NHGX,60.0161588752,
stim/posf.jpg,stim/negf.jpg,stim/2.jpg,stim/5.jpg,stim/latef.jpg,CD,2,4,0,45,45,33,,,,,,,,,,,,,,,,,,4,1,1.21627943144,,,,,,2016_Aug_19_1203,P4,PLC_L_D2S1,NHGX,60.0161588752,
stim/posf.jpg,stim/negf.jpg,stim/3.jpg,stim/6.jpg,stim/latef.jpg,AB,1,2,0,46,46,7,,,,,,,,,,,,,,,,,,2,1,1.2495397691,,,,,,2016_Aug_19_1203,P4,PLC_L_D2S1,NHGX,60.0161588752,
stim/negf.jpg,stim/posf.jpg,stim/4.jpg,stim/1.jpg,stim/latef.jpg,EF,2,4,0,47,47,59,,,,,,,,,,,,,,,,,,4,1,0.833064532355,,,,,,2016_Aug_19_1203,P4,PLC_L_D2S1,NHGX,60.0161588752,
stim/posf.jpg,stim/negf.jpg,stim/2.jpg,stim/5.jpg,stim/latef.jpg,CD,2,4,0,48,48,35,,,,,,,,,,,,,,,,,,2,0,1.13295459675,,,,,,2016_Aug_19_1203,P4,PLC_L_D2S1,NHGX,60.0161588752,
stim/posf.jpg,stim/negf.jpg,stim/4.jpg,stim/1.jpg,stim/latef.jpg,EF,2,4,0,49,49,54,,,,,,,,,,,,,,,,,,4,1,0.699742312681,,,,,,2016_Aug_19_1203,P4,PLC_L_D2S1,NHGX,60.0161588752,
stim/posf.jpg,stim/negf.jpg,stim/1.jpg,stim/4.jpg,stim/latef.jpg,EF,1,2,0,50,50,43,,,,,,,,,,,,,,,,,,2,1,0.783102981545,,,,,,2016_Aug_19_1203,P4,PLC_L_D2S1,NHGX,60.0161588752,
stim/posf.jpg,stim/negf.jpg,stim/5.jpg,stim/2.jpg,stim/latef.jpg,CD,1,2,0,51,51,20,,,,,,,,,,,,,,,,,,2,1,1.33289299143,,,,,,2016_Aug_19_1203,P4,PLC_L_D2S1,NHGX,60.0161588752,
stim/posf.jpg,stim/negf.jpg,stim/5.jpg,stim/2.jpg,stim/latef.jpg,CD,1,2,0,52,52,26,,,,,,,,,,,,,,,,,,2,1,1.34956453574,,,,,,2016_Aug_19_1203,P4,PLC_L_D2S1,NHGX,60.0161588752,
stim/posf.jpg,stim/negf.jpg,stim/6.jpg,stim/3.jpg,stim/latef.jpg,AB,2,4,0,53,53,13,,,,,,,,,,,,,,,,,,2,0,1.33283572291,,,,,,2016_Aug_19_1203,P4,PLC_L_D2S1,NHGX,60.0161588752,
stim/posf.jpg,stim/negf.jpg,stim/5.jpg,stim/2.jpg,stim/latef.jpg,CD,1,2,0,54,54,24,,,,,,,,,,,,,,,,,,2,1,1.19956916877,,,,,,2016_Aug_19_1203,P4,PLC_L_D2S1,NHGX,60.0161588752,
stim/negf.jpg,stim/posf.jpg,stim/1.jpg,stim/4.jpg,stim/latef.jpg,EF,1,2,0,55,55,49,,,,,,,,,,,,,,,,,,4,0,1.04967713898,,,,,,2016_Aug_19_1203,P4,PLC_L_D2S1,NHGX,60.0161588752,
stim/posf.jpg,stim/negf.jpg,stim/1.jpg,stim/4.jpg,stim/latef.jpg,EF,1,2,0,56,56,42,,,,,,,,,,,,,,,,,,4,0,1.09963124025,,,,,,2016_Aug_19_1203,P4,PLC_L_D2S1,NHGX,60.0161588752,
stim/negf.jpg,stim/posf.jpg,stim/5.jpg,stim/2.jpg,stim/latef.jpg,CD,1,2,0,57,57,29,,,,,,,,,,,,,,,,,,None,0,,,,,,,2016_Aug_19_1203,P4,PLC_L_D2S1,NHGX,60.0161588752,
stim/posf.jpg,stim/negf.jpg,stim/6.jpg,stim/3.jpg,stim/latef.jpg,AB,2,4,0,58,58,15,,,,,,,,,,,,,,,,,,4,1,0.966218338891,,,,,,2016_Aug_19_1203,P4,PLC_L_D2S1,NHGX,60.0161588752,
stim/posf.jpg,stim/negf.jpg,stim/6.jpg,stim/3.jpg,stim/latef.jpg,AB,2,4,0,59,59,16,,,,,,,,,,,,,,,,,,4,1,0.849650778375,,,,,,2016_Aug_19_1203,P4,PLC_L_D2S1,NHGX,60.0161588752,
,,,,,,,,,,,,,,,,,,,,,,,,,,,,,,,,0.575,0.623046875,1,0,0,2016_Aug_19_1203,P4,PLC_L_D2S1,NHGX,60.0161588752,
stim/posf.jpg,stim/negf.jpg,stim/4.jpg,stim/1.jpg,stim/latef.jpg,EF,2,4,,,,,0,0,0,55,,,,,,,,,,,,,,4,1,0.899696433499,,,,,,2016_Aug_19_1203,P4,PLC_L_D2S1,NHGX,60.0161588752,
stim/negf.jpg,stim/posf.jpg,stim/4.jpg,stim/1.jpg,stim/latef.jpg,EF,2,4,,,,,0,1,1,57,,,,,,,,,,,,,,4,1,1.09962574858,,,,,,2016_Aug_19_1203,P4,PLC_L_D2S1,NHGX,60.0161588752,
stim/posf.jpg,stim/negf.jpg,stim/3.jpg,stim/6.jpg,stim/latef.jpg,AB,1,2,,,,,0,2,2,6,,,,,,,,,,,,,,2,1,0.916441835618,,,,,,2016_Aug_19_1203,P4,PLC_L_D2S1,NHGX,60.0161588752,
stim/posf.jpg,stim/negf.jpg,stim/1.jpg,stim/4.jpg,stim/latef.jpg,EF,1,2,,,,,0,3,3,41,,,,,,,,,,,,,,4,0,0.849717096424,,,,,,2016_Aug_19_1203,P4,PLC_L_D2S1,NHGX,60.0161588752,
stim/negf.jpg,stim/posf.jpg,stim/5.jpg,stim/2.jpg,stim/latef.jpg,CD,1,2,,,,,0,4,4,28,,,,,,,,,,,,,,2,1,0.999652788878,,,,,,2016_Aug_19_1203,P4,PLC_L_D2S1,NHGX,60.0161588752,
stim/posf.jpg,stim/negf.jpg,stim/5.jpg,stim/2.jpg,stim/latef.jpg,CD,1,2,,,,,0,5,5,22,,,,,,,,,,,,,,4,0,0.999593075266,,,,,,2016_Aug_19_1203,P4,PLC_L_D2S1,NHGX,60.0161588752,
stim/posf.jpg,stim/negf.jpg,stim/3.jpg,stim/6.jpg,stim/latef.jpg,AB,1,2,,,,,0,6,6,3,,,,,,,,,,,,,,4,0,1.08295972301,,,,,,2016_Aug_19_1203,P4,PLC_L_D2S1,NHGX,60.0161588752,
stim/posf.jpg,stim/negf.jpg,stim/2.jpg,stim/5.jpg,stim/latef.jpg,CD,2,4,,,,,0,7,7,36,,,,,,,,,,,,,,4,1,1.04976616354,,,,,,2016_Aug_19_1203,P4,PLC_L_D2S1,NHGX,60.0161588752,
stim/posf.jpg,stim/negf.jpg,stim/6.jpg,stim/3.jpg,stim/latef.jpg,AB,2,4,,,,,0,8,8,13,,,,,,,,,,,,,,2,0,0.933098213178,,,,,,2016_Aug_19_1203,P4,PLC_L_D2S1,NHGX,60.0161588752,
stim/negf.jpg,stim/posf.jpg,stim/2.jpg,stim/5.jpg,stim/latef.jpg,CD,2,4,,,,,0,9,9,37,,,,,,,,,,,,,,4,1,1.09961250963,,,,,,2016_Aug_19_1203,P4,PLC_L_D2S1,NHGX,60.0161588752,
stim/posf.jpg,stim/negf.jpg,stim/3.jpg,stim/6.jpg,stim/latef.jpg,AB,1,2,,,,,0,10,10,5,,,,,,,,,,,,,,4,0,0.933126624888,,,,,,2016_Aug_19_1203,P4,PLC_L_D2S1,NHGX,60.0161588752,
stim/negf.jpg,stim/posf.jpg,stim/6.jpg,stim/3.jpg,stim/latef.jpg,AB,2,4,,,,,0,11,11,18,,,,,,,,,,,,,,2,0,1.11630730781,,,,,,2016_Aug_19_1203,P4,PLC_L_D2S1,NHGX,60.0161588752,
stim/posf.jpg,stim/negf.jpg,stim/1.jpg,stim/4.jpg,stim/latef.jpg,EF,1,2,,,,,0,12,12,40,,,,,,,,,,,,,,2,1,0.649806000684,,,,,,2016_Aug_19_1203,P4,PLC_L_D2S1,NHGX,60.0161588752,
stim/posf.jpg,stim/negf.jpg,stim/1.jpg,stim/4.jpg,stim/latef.jpg,EF,1,2,,,,,0,13,13,44,,,,,,,,,,,,,,2,1,0.783054705398,,,,,,2016_Aug_19_1203,P4,PLC_L_D2S1,NHGX,60.0161588752,
stim/posf.jpg,stim/negf.jpg,stim/6.jpg,stim/3.jpg,stim/latef.jpg,AB,2,4,,,,,0,14,14,11,,,,,,,,,,,,,,4,1,0.983120274583,,,,,,2016_Aug_19_1203,P4,PLC_L_D2S1,NHGX,60.0161588752,
stim/posf.jpg,stim/negf.jpg,stim/2.jpg,stim/5.jpg,stim/latef.jpg,CD,2,4,,,,,0,15,15,32,,,,,,,,,,,,,,2,0,0.999577505517,,,,,,2016_Aug_19_1203,P4,PLC_L_D2S1,NHGX,60.0161588752,
stim/posf.jpg,stim/negf.jpg,stim/6.jpg,stim/3.jpg,stim/latef.jpg,AB,2,4,,,,,0,16,16,17,,,,,,,,,,,,,,2,0,1.08295849295,,,,,,2016_Aug_19_1203,P4,PLC_L_D2S1,NHGX,60.0161588752,
stim/posf.jpg,stim/negf.jpg,stim/2.jpg,stim/5.jpg,stim/latef.jpg,CD,2,4,,,,,0,17,17,30,,,,,,,,,,,,,,2,0,1.03308227652,,,,,,2016_Aug_19_1203,P4,PLC_L_D2S1,NHGX,60.0161588752,
stim/negf.jpg,stim/posf.jpg,stim/3.jpg,stim/6.jpg,stim/latef.jpg,AB,1,2,,,,,0,18,18,9,,,,,,,,,,,,,,4,0,0.883004892426,,,,,,2016_Aug_19_1203,P4,PLC_L_D2S1,NHGX,60.0161588752,
stim/negf.jpg,stim/posf.jpg,stim/5.jpg,stim/2.jpg,stim/latef.jpg,CD,1,2,,,,,0,19,19,29,,,,,,,,,,,,,,2,1,0.916262357943,,,,,,2016_Aug_19_1203,P4,PLC_L_D2S1,NHGX,60.0161588752,
stim/negf.jpg,stim/posf.jpg,stim/2.jpg,stim/5.jpg,stim/latef.jpg,CD,2,4,,,,,0,20,20,39,,,,,,,,,,,,,,2,0,0.966386352034,,,,,,2016_Aug_19_1203,P4,PLC_L_D2S1,NHGX,60.0161588752,
stim/posf.jpg,stim/negf.jpg,stim/2.jpg,stim/5.jpg,stim/latef.jpg,CD,2,4,,,,,0,21,21,31,,,,,,,,,,,,,,4,1,1.08286887291,,,,,,2016_Aug_19_1203,P4,PLC_L_D2S1,NHGX,60.0161588752,
stim/negf.jpg,stim/posf.jpg,stim/2.jpg,stim/5.jpg,stim/latef.jpg,CD,2,4,,,,,0,22,22,38,,,,,,,,,,,,,,4,1,1.01642781472,,,,,,2016_Aug_19_1203,P4,PLC_L_D2S1,NHGX,60.0161588752,
stim/negf.jpg,stim/posf.jpg,stim/1.jpg,stim/4.jpg,stim/latef.jpg,EF,1,2,,,,,0,23,23,48,,,,,,,,,,,,,,2,1,1.03297311083,,,,,,2016_Aug_19_1203,P4,PLC_L_D2S1,NHGX,60.0161588752,
stim/negf.jpg,stim/posf.jpg,stim/3.jpg,stim/6.jpg,stim/latef.jpg,AB,1,2,,,,,0,24,24,8,,,,,,,,,,,,,,4,0,0.783165104153,,,,,,2016_Aug_19_1203,P4,PLC_L_D2S1,NHGX,60.0161588752,
stim/negf.jpg,stim/posf.jpg,stim/6.jpg,stim/3.jpg,stim/latef.jpg,AB,2,4,,,,,0,25,25,19,,,,,,,,,,,,,,2,0,0.899719347526,,,,,,2016_Aug_19_1203,P4,PLC_L_D2S1,NHGX,60.0161588752,
stim/negf.jpg,stim/posf.jpg,stim/1.jpg,stim/4.jpg,stim/latef.jpg,EF,1,2,,,,,0,26,26,47,,,,,,,,,,,,,,2,1,0.833024165893,,,,,,2016_Aug_19_1203,P4,PLC_L_D2S1,NHGX,60.0161588752,
stim/posf.jpg,stim/negf.jpg,stim/6.jpg,stim/3.jpg,stim/latef.jpg,AB,2,4,,,,,0,27,27,15,,,,,,,,,,,,,,4,1,0.782991644455,,,,,,2016_Aug_19_1203,P4,PLC_L_D2S1,NHGX,60.0161588752,
stim/posf.jpg,stim/negf.jpg,stim/3.jpg,stim/6.jpg,stim/latef.jpg,AB,1,2,,,,,0,28,28,2,,,,,,,,,,,,,,2,1,0.716425832791,,,,,,2016_Aug_19_1203,P4,PLC_L_D2S1,NHGX,60.0161588752,
stim/posf.jpg,stim/negf.jpg,stim/4.jpg,stim/1.jpg,stim/latef.jpg,EF,2,4,,,,,0,29,29,54,,,,,,,,,,,,,,2,0,1.03310043571,,,,,,2016_Aug_19_1203,P4,PLC_L_D2S1,NHGX,60.0161588752,
stim/posf.jpg,stim/negf.jpg,stim/5.jpg,stim/2.jpg,stim/latef.jpg,CD,1,2,,,,,0,30,30,21,,,,,,,,,,,,,,2,1,0.983001496976,,,,,,2016_Aug_19_1203,P4,PLC_L_D2S1,NHGX,60.0161588752,
stim/posf.jpg,stim/negf.jpg,stim/1.jpg,stim/4.jpg,stim/latef.jpg,EF,1,2,,,,,0,31,31,45,,,,,,,,,,,,,,4,0,0.949693346316,,,,,,2016_Aug_19_1203,P4,PLC_L_D2S1,NHGX,60.0161588752,
stim/posf.jpg,stim/negf.jpg,stim/2.jpg,stim/5.jpg,stim/latef.jpg,CD,2,4,,,,,0,32,32,33,,,,,,,,,,,,,,4,1,1.11637472359,,,,,,2016_Aug_19_1203,P4,PLC_L_D2S1,NHGX,60.0161588752,
stim/posf.jpg,stim/negf.jpg,stim/5.jpg,stim/2.jpg,stim/latef.jpg,CD,1,2,,,,,0,33,33,24,,,,,,,,,,,,,,2,1,0.883072915719,,,,,,2016_Aug_19_1203,P4,PLC_L_D2S1,NHGX,60.0161588752,
stim/posf.jpg,stim/negf.jpg,stim/4.jpg,stim/1.jpg,stim/latef.jpg,EF,2,4,,,,,0,34,34,52,,,,,,,,,,,,,,2,0,1.01631644154,,,,,,2016_Aug_19_1203,P4,PLC_L_D2S1,NHGX,60.0161588752,
stim/posf.jpg,stim/negf.jpg,stim/5.jpg,stim/2.jpg,stim/latef.jpg,CD,1,2,,,,,0,35,35,23,,,,,,,,,,,,,,4,0,1.08308237727,,,,,,2016_Aug_19_1203,P4,PLC_L_D2S1,NHGX,60.0161588752,
stim/posf.jpg,stim/negf.jpg,stim/3.jpg,stim/6.jpg,stim/latef.jpg,AB,1,2,,,,,0,36,36,1,,,,,,,,,,,,,,2,1,1.04955782303,,,,,,2016_Aug_19_1203,P4,PLC_L_D2S1,NHGX,60.0161588752,
stim/negf.jpg,stim/posf.jpg,stim/1.jpg,stim/4.jpg,stim/latef.jpg,EF,1,2,,,,,0,37,37,46,,,,,,,,,,,,,,4,0,0.916494310214,,,,,,2016_Aug_19_1203,P4,PLC_L_D2S1,NHGX,60.0161588752,
stim/posf.jpg,stim/negf.jpg,stim/3.jpg,stim/6.jpg,stim/latef.jpg,AB,1,2,,,,,0,38,38,4,,,,,,,,,,,,,,4,0,1.0996338327,,,,,,2016_Aug_19_1203,P4,PLC_L_D2S1,NHGX,60.0161588752,
stim/negf.jpg,stim/posf.jpg,stim/4.jpg,stim/1.jpg,stim/latef.jpg,EF,2,4,,,,,0,39,39,58,,,,,,,,,,,,,,2,0,1.06631223858,,,,,,2016_Aug_19_1203,P4,PLC_L_D2S1,NHGX,60.0161588752,
stim/posf.jpg,stim/negf.jpg,stim/4.jpg,stim/1.jpg,stim/latef.jpg,EF,2,4,,,,,0,40,40,51,,,,,,,,,,,,,,2,0,0.816298122953,,,,,,2016_Aug_19_1203,P4,PLC_L_D2S1,NHGX,60.0161588752,
stim/negf.jpg,stim/posf.jpg,stim/1.jpg,stim/4.jpg,stim/latef.jpg,EF,1,2,,,,,0,41,41,49,,,,,,,,,,,,,,4,0,0.866489845603,,,,,,2016_Aug_19_1203,P4,PLC_L_D2S1,NHGX,60.0161588752,
stim/posf.jpg,stim/negf.jpg,stim/5.jpg,stim/2.jpg,stim/latef.jpg,CD,1,2,,,,,0,42,42,26,,,,,,,,,,,,,,2,1,1.24957422585,,,,,,2016_Aug_19_1203,P4,PLC_L_D2S1,NHGX,60.0161588752,
stim/posf.jpg,stim/negf.jpg,stim/6.jpg,stim/3.jpg,stim/latef.jpg,AB,2,4,,,,,0,43,43,12,,,,,,,,,,,,,,4,1,1.04967128641,,,,,,2016_Aug_19_1203,P4,PLC_L_D2S1,NHGX,60.0161588752,
stim/posf.jpg,stim/negf.jpg,stim/5.jpg,stim/2.jpg,stim/latef.jpg,CD,1,2,,,,,0,44,44,25,,,,,,,,,,,,,,2,1,0.999645342346,,,,,,2016_Aug_19_1203,P4,PLC_L_D2S1,NHGX,60.0161588752,
stim/posf.jpg,stim/negf.jpg,stim/4.jpg,stim/1.jpg,stim/latef.jpg,EF,2,4,,,,,0,45,45,53,,,,,,,,,,,,,,2,0,1.04964870622,,,,,,2016_Aug_19_1203,P4,PLC_L_D2S1,NHGX,60.0161588752,
stim/negf.jpg,stim/posf.jpg,stim/4.jpg,stim/1.jpg,stim/latef.jpg,EF,2,4,,,,,0,46,46,56,,,,,,,,,,,,,,4,1,1.03308492912,,,,,,2016_Aug_19_1203,P4,PLC_L_D2S1,NHGX,60.0161588752,
stim/negf.jpg,stim/posf.jpg,stim/5.jpg,stim/2.jpg,stim/latef.jpg,CD,1,2,,,,,0,47,47,27,,,,,,,,,,,,,,2,1,0.766433774055,,,,,,2016_Aug_19_1203,P4,PLC_L_D2S1,NHGX,60.0161588752,
stim/posf.jpg,stim/negf.jpg,stim/6.jpg,stim/3.jpg,stim/latef.jpg,AB,2,4,,,,,0,48,48,16,,,,,,,,,,,,,,4,1,0.916258863246,,,,,,2016_Aug_19_1203,P4,PLC_L_D2S1,NHGX,60.0161588752,
stim/posf.jpg,stim/negf.jpg,stim/6.jpg,stim/3.jpg,stim/latef.jpg,AB,2,4,,,,,0,49,49,14,,,,,,,,,,,,,,4,1,0.749753986233,,,,,,2016_Aug_19_1203,P4,PLC_L_D2S1,NHGX,60.0161588752,
stim/posf.jpg,stim/negf.jpg,stim/5.jpg,stim/2.jpg,stim/latef.jpg,CD,1,2,,,,,0,50,50,20,,,,,,,,,,,,,,4,0,1.03299738123,,,,,,2016_Aug_19_1203,P4,PLC_L_D2S1,NHGX,60.0161588752,
stim/posf.jpg,stim/negf.jpg,stim/1.jpg,stim/4.jpg,stim/latef.jpg,EF,1,2,,,,,0,51,51,43,,,,,,,,,,,,,,2,1,0.833028746292,,,,,,2016_Aug_19_1203,P4,PLC_L_D2S1,NHGX,60.0161588752,
stim/negf.jpg,stim/posf.jpg,stim/4.jpg,stim/1.jpg,stim/latef.jpg,EF,2,4,,,,,0,52,52,59,,,,,,,,,,,,,,4,1,0.733197403037,,,,,,2016_Aug_19_1203,P4,PLC_L_D2S1,NHGX,60.0161588752,
stim/posf.jpg,stim/negf.jpg,stim/2.jpg,stim/5.jpg,stim/latef.jpg,CD,2,4,,,,,0,53,53,34,,,,,,,,,,,,,,4,1,0.716524625662,,,,,,2016_Aug_19_1203,P4,PLC_L_D2S1,NHGX,60.0161588752,
stim/posf.jpg,stim/negf.jpg,stim/3.jpg,stim/6.jpg,stim/latef.jpg,AB,1,2,,,,,0,54,54,0,,,,,,,,,,,,,,2,1,0.866281856972,,,,,,2016_Aug_19_1203,P4,PLC_L_D2S1,NHGX,60.0161588752,
stim/posf.jpg,stim/negf.jpg,stim/1.jpg,stim/4.jpg,stim/latef.jpg,EF,1,2,,,,,0,55,55,42,,,,,,,,,,,,,,2,1,0.949737646568,,,,,,2016_Aug_19_1203,P4,PLC_L_D2S1,NHGX,60.0161588752,
stim/posf.jpg,stim/negf.jpg,stim/3.jpg,stim/6.jpg,stim/latef.jpg,AB,1,2,,,,,0,56,56,7,,,,,,,,,,,,,,2,1,0.866386718947,,,,,,2016_Aug_19_1203,P4,PLC_L_D2S1,NHGX,60.0161588752,
stim/posf.jpg,stim/negf.jpg,stim/2.jpg,stim/5.jpg,stim/latef.jpg,CD,2,4,,,,,0,57,57,35,,,,,,,,,,,,,,4,1,1.0496728082,,,,,,2016_Aug_19_1203,P4,PLC_L_D2S1,NHGX,60.0161588752,
stim/posf.jpg,stim/negf.jpg,stim/6.jpg,stim/3.jpg,stim/latef.jpg,AB,2,4,,,,,0,58,58,10,,,,,,,,,,,,,,2,0,0.749736013504,,,,,,2016_Aug_19_1203,P4,PLC_L_D2S1,NHGX,60.0161588752,
stim/posf.jpg,stim/negf.jpg,stim/4.jpg,stim/1.jpg,stim/latef.jpg,EF,2,4,,,,,0,59,59,50,,,,,,,,,,,,,,4,1,0.78306474739,,,,,,2016_Aug_19_1203,P4,PLC_L_D2S1,NHGX,60.0161588752,
,,,,,,,,,,,,,,,,,,,,,,,,,,,,,,,,0.9984375,0.533203125,1,0,0,2016_Aug_19_1203,P4,PLC_L_D2S1,NHGX,60.0161588752,
stim/posf.jpg,stim/negf.jpg,stim/4.jpg,stim/1.jpg,stim/latef.jpg,EF,2,4,,,,,,,,,0,0,0,53,,,,,,,,,,4,1,0.699760541047,,,,,,2016_Aug_19_1203,P4,PLC_L_D2S1,NHGX,60.0161588752,
stim/posf.jpg,stim/negf.jpg,stim/4.jpg,stim/1.jpg,stim/latef.jpg,EF,2,4,,,,,,,,,0,1,1,52,,,,,,,,,,2,0,0.649741306677,,,,,,2016_Aug_19_1203,P4,PLC_L_D2S1,NHGX,60.0161588752,
stim/posf.jpg,stim/negf.jpg,stim/5.jpg,stim/2.jpg,stim/latef.jpg,CD,1,2,,,,,,,,,0,2,2,24,,,,,,,,,,4,0,0.716409959286,,,,,,2016_Aug_19_1203,P4,PLC_L_D2S1,NHGX,60.0161588752,
stim/posf.jpg,stim/negf.jpg,stim/3.jpg,stim/6.jpg,stim/latef.jpg,AB,1,2,,,,,,,,,0,3,3,5,,,,,,,,,,2,1,1.08295904332,,,,,,2016_Aug_19_1203,P4,PLC_L_D2S1,NHGX,60.0161588752,
stim/posf.jpg,stim/negf.jpg,stim/6.jpg,stim/3.jpg,stim/latef.jpg,AB,2,4,,,,,,,,,0,4,4,13,,,,,,,,,,2,0,1.0496822096,,,,,,2016_Aug_19_1203,P4,PLC_L_D2S1,NHGX,60.0161588752,
stim/posf.jpg,stim/negf.jpg,stim/3.jpg,stim/6.jpg,stim/latef.jpg,AB,1,2,,,,,,,,,0,5,5,1,,,,,,,,,,2,1,0.816409688613,,,,,,2016_Aug_19_1203,P4,PLC_L_D2S1,NHGX,60.0161588752,
stim/posf.jpg,stim/negf.jpg,stim/1.jpg,stim/4.jpg,stim/latef.jpg,EF,1,2,,,,,,,,,0,6,6,43,,,,,,,,,,2,1,1.16631635583,,,,,,2016_Aug_19_1203,P4,PLC_L_D2S1,NHGX,60.0161588752,
stim/posf.jpg,stim/negf.jpg,stim/6.jpg,stim/3.jpg,stim/latef.jpg,AB,2,4,,,,,,,,,0,7,7,12,,,,,,,,,,2,0,0.933013919392,,,,,,2016_Aug_19_1203,P4,PLC_L_D2S1,NHGX,60.0161588752,
stim/negf.jpg,stim/posf.jpg,stim/4.jpg,stim/1.jpg,stim/latef.jpg,EF,2,4,,,,,,,,,0,8,8,58,,,,,,,,,,2,0,0.983060509844,,,,,,2016_Aug_19_1203,P4,PLC_L_D2S1,NHGX,60.0161588752,
stim/posf.jpg,stim/negf.jpg,stim/2.jpg,stim/5.jpg,stim/latef.jpg,CD,2,4,,,,,,,,,0,9,9,36,,,,,,,,,,4,1,1.08300380973,,,,,,2016_Aug_19_1203,P4,PLC_L_D2S1,NHGX,60.0161588752,
stim/posf.jpg,stim/negf.jpg,stim/6.jpg,stim/3.jpg,stim/latef.jpg,AB,2,4,,,,,,,,,0,10,10,16,,,,,,,,,,4,1,0.982999863911,,,,,,2016_Aug_19_1203,P4,PLC_L_D2S1,NHGX,60.0161588752,
stim/posf.jpg,stim/negf.jpg,stim/3.jpg,stim/6.jpg,stim/latef.jpg,AB,1,2,,,,,,,,,0,11,11,0,,,,,,,,,,2,1,0.933022692225,,,,,,2016_Aug_19_1203,P4,PLC_L_D2S1,NHGX,60.0161588752,
stim/negf.jpg,stim/posf.jpg,stim/5.jpg,stim/2.jpg,stim/latef.jpg,CD,1,2,,,,,,,,,0,12,12,27,,,,,,,,,,4,0,0.716443044627,,,,,,2016_Aug_19_1203,P4,PLC_L_D2S1,NHGX,60.0161588752,
stim/negf.jpg,stim/posf.jpg,stim/2.jpg,stim/5.jpg,stim/latef.jpg,CD,2,4,,,,,,,,,0,13,13,39,,,,,,,,,,4,1,1.18288548625,,,,,,2016_Aug_19_1203,P4,PLC_L_D2S1,NHGX,60.0161588752,
stim/posf.jpg,stim/negf.jpg,stim/3.jpg,stim/6.jpg,stim/latef.jpg,AB,1,2,,,,,,,,,0,14,14,3,,,,,,,,,,2,1,1.03298385056,,,,,,2016_Aug_19_1203,P4,PLC_L_D2S1,NHGX,60.0161588752,
stim/negf.jpg,stim/posf.jpg,stim/3.jpg,stim/6.jpg,stim/latef.jpg,AB,1,2,,,,,,,,,0,15,15,9,,,,,,,,,,2,1,0.533115319752,,,,,,2016_Aug_19_1203,P4,PLC_L_D2S1,NHGX,60.0161588752,
stim/posf.jpg,stim/negf.jpg,stim/1.jpg,stim/4.jpg,stim/latef.jpg,EF,1,2,,,,,,,,,0,16,16,44,,,,,,,,,,2,1,0.899684138901,,,,,,2016_Aug_19_1203,P4,PLC_L_D2S1,NHGX,60.0161588752,
stim/negf.jpg,stim/posf.jpg,stim/4.jpg,stim/1.jpg,stim/latef.jpg,EF,2,4,,,,,,,,,0,17,17,56,,,,,,,,,,4,1,0.816384308448,,,,,,2016_Aug_19_1203,P4,PLC_L_D2S1,NHGX,60.0161588752,
stim/negf.jpg,stim/posf.jpg,stim/3.jpg,stim/6.jpg,stim/latef.jpg,AB,1,2,,,,,,,,,0,18,18,8,,,,,,,,,,2,1,0.883033277068,,,,,,2016_Aug_19_1203,P4,PLC_L_D2S1,NHGX,60.0161588752,
stim/posf.jpg,stim/negf.jpg,stim/5.jpg,stim/2.jpg,stim/latef.jpg,CD,1,2,,,,,,,,,0,19,19,25,,,,,,,,,,2,1,0.849720479844,,,,,,2016_Aug_19_1203,P4,PLC_L_D2S1,NHGX,60.0161588752,
stim/posf.jpg,stim/negf.jpg,stim/3.jpg,stim/6.jpg,stim/latef.jpg,AB,1,2,,,,,,,,,0,20,20,7,,,,,,,,,,2,1,0.949681099837,,,,,,2016_Aug_19_1203,P4,PLC_L_D2S1,NHGX,60.0161588752,
stim/posf.jpg,stim/negf.jpg,stim/1.jpg,stim/4.jpg,stim/latef.jpg,EF,1,2,,,,,,,,,0,21,21,40,,,,,,,,,,4,0,0.91636003203,,,,,,2016_Aug_19_1203,P4,PLC_L_D2S1,NHGX,60.0161588752,
stim/posf.jpg,stim/negf.jpg,stim/2.jpg,stim/5.jpg,stim/latef.jpg,CD,2,4,,,,,,,,,0,22,22,30,,,,,,,,,,2,0,0.883044022812,,,,,,2016_Aug_19_1203,P4,PLC_L_D2S1,NHGX,60.0161588752,
stim/negf.jpg,stim/posf.jpg,stim/6.jpg,stim/3.jpg,stim/latef.jpg,AB,2,4,,,,,,,,,0,23,23,18,,,,,,,,,,4,1,0.899707416834,,,,,,2016_Aug_19_1203,P4,PLC_L_D2S1,NHGX,60.0161588752,
stim/posf.jpg,stim/negf.jpg,stim/2.jpg,stim/5.jpg,stim/latef.jpg,CD,2,4,,,,,,,,,0,24,24,31,,,,,,,,,,4,1,0.982962008699,,,,,,2016_Aug_19_1203,P4,PLC_L_D2S1,NHGX,60.0161588752,
stim/posf.jpg,stim/negf.jpg,stim/2.jpg,stim/5.jpg,stim/latef.jpg,CD,2,4,,,,,,,,,0,25,25,33,,,,,,,,,,4,1,0.916351472728,,,,,,2016_Aug_19_1203,P4,PLC_L_D2S1,NHGX,60.0161588752,
stim/posf.jpg,stim/negf.jpg,stim/6.jpg,stim/3.jpg,stim/latef.jpg,AB,2,4,,,,,,,,,0,26,26,17,,,,,,,,,,2,0,1.01631294083,,,,,,2016_Aug_19_1203,P4,PLC_L_D2S1,NHGX,60.0161588752,
stim/posf.jpg,stim/negf.jpg,stim/3.jpg,stim/6.jpg,stim/latef.jpg,AB,1,2,,,,,,,,,0,27,27,2,,,,,,,,,,2,1,0.849659761732,,,,,,2016_Aug_19_1203,P4,PLC_L_D2S1,NHGX,60.0161588752,
stim/posf.jpg,stim/negf.jpg,stim/2.jpg,stim/5.jpg,stim/latef.jpg,CD,2,4,,,,,,,,,0,28,28,32,,,,,,,,,,4,1,0.949689090725,,,,,,2016_Aug_19_1203,P4,PLC_L_D2S1,NHGX,60.0161588752,
stim/posf.jpg,stim/negf.jpg,stim/4.jpg,stim/1.jpg,stim/latef.jpg,EF,2,4,,,,,,,,,0,29,29,51,,,,,,,,,,4,1,1.06629274407,,,,,,2016_Aug_19_1203,P4,PLC_L_D2S1,NHGX,60.0161588752,
stim/posf.jpg,stim/negf.jpg,stim/5.jpg,stim/2.jpg,stim/latef.jpg,CD,1,2,,,,,,,,,0,30,30,20,,,,,,,,,,2,1,1.18288805765,,,,,,2016_Aug_19_1203,P4,PLC_L_D2S1,NHGX,60.0161588752,
stim/posf.jpg,stim/negf.jpg,stim/1.jpg,stim/4.jpg,stim/latef.jpg,EF,1,2,,,,,,,,,0,31,31,41,,,,,,,,,,2,1,0.783081914114,,,,,,2016_Aug_19_1203,P4,PLC_L_D2S1,NHGX,60.0161588752,
stim/posf.jpg,stim/negf.jpg,stim/3.jpg,stim/6.jpg,stim/latef.jpg,AB,1,2,,,,,,,,,0,32,32,6,,,,,,,,,,4,0,0.816427995173,,,,,,2016_Aug_19_1203,P4,PLC_L_D2S1,NHGX,60.0161588752,
stim/negf.jpg,stim/posf.jpg,stim/1.jpg,stim/4.jpg,stim/latef.jpg,EF,1,2,,,,,,,,,0,33,33,48,,,,,,,,,,4,0,0.916302351477,,,,,,2016_Aug_19_1203,P4,PLC_L_D2S1,NHGX,60.0161588752,
stim/posf.jpg,stim/negf.jpg,stim/6.jpg,stim/3.jpg,stim/latef.jpg,AB,2,4,,,,,,,,,0,34,34,15,,,,,,,,,,2,0,0.949634213148,,,,,,2016_Aug_19_1203,P4,PLC_L_D2S1,NHGX,60.0161588752,
stim/posf.jpg,stim/negf.jpg,stim/2.jpg,stim/5.jpg,stim/latef.jpg,CD,2,4,,,,,,,,,0,35,35,35,,,,,,,,,,4,1,0.916426283914,,,,,,2016_Aug_19_1203,P4,PLC_L_D2S1,NHGX,60.0161588752,
stim/posf.jpg,stim/negf.jpg,stim/6.jpg,stim/3.jpg,stim/latef.jpg,AB,2,4,,,,,,,,,0,36,36,14,,,,,,,,,,2,0,0.866283384774,,,,,,2016_Aug_19_1203,P4,PLC_L_D2S1,NHGX,60.0161588752,
stim/posf.jpg,stim/negf.jpg,stim/4.jpg,stim/1.jpg,stim/latef.jpg,EF,2,4,,,,,,,,,0,37,37,50,,,,,,,,,,4,1,0.882977918294,,,,,,2016_Aug_19_1203,P4,PLC_L_D2S1,NHGX,60.0161588752,
stim/posf.jpg,stim/negf.jpg,stim/5.jpg,stim/2.jpg,stim/latef.jpg,CD,1,2,,,,,,,,,0,38,38,23,,,,,,,,,,2,1,0.833039269482,,,,,,2016_Aug_19_1203,P4,PLC_L_D2S1,NHGX,60.0161588752,
stim/posf.jpg,stim/negf.jpg,stim/1.jpg,stim/4.jpg,stim/latef.jpg,EF,1,2,,,,,,,,,0,39,39,42,,,,,,,,,,4,0,0.91636340342,,,,,,2016_Aug_19_1203,P4,PLC_L_D2S1,NHGX,60.0161588752,
stim/posf.jpg,stim/negf.jpg,stim/5.jpg,stim/2.jpg,stim/latef.jpg,CD,1,2,,,,,,,,,0,40,40,22,,,,,,,,,,2,1,0.883013502855,,,,,,2016_Aug_19_1203,P4,PLC_L_D2S1,NHGX,60.0161588752,
stim/negf.jpg,stim/posf.jpg,stim/1.jpg,stim/4.jpg,stim/latef.jpg,EF,1,2,,,,,,,,,0,41,41,49,,,,,,,,,,2,1,0.88308610354,,,,,,2016_Aug_19_1203,P4,PLC_L_D2S1,NHGX,60.0161588752,
stim/posf.jpg,stim/negf.jpg,stim/5.jpg,stim/2.jpg,stim/latef.jpg,CD,1,2,,,,,,,,,0,42,42,21,,,,,,,,,,2,1,1.03296739661,,,,,,2016_Aug_19_1203,P4,PLC_L_D2S1,NHGX,60.0161588752,
stim/posf.jpg,stim/negf.jpg,stim/3.jpg,stim/6.jpg,stim/latef.jpg,AB,1,2,,,,,,,,,0,43,43,4,,,,,,,,,,4,0,0.933040743149,,,,,,2016_Aug_19_1203,P4,PLC_L_D2S1,NHGX,60.0161588752,
stim/negf.jpg,stim/posf.jpg,stim/1.jpg,stim/4.jpg,stim/latef.jpg,EF,1,2,,,,,,,,,0,44,44,46,,,,,,,,,,4,0,0.982979337827,,,,,,2016_Aug_19_1203,P4,PLC_L_D2S1,NHGX,60.0161588752,
stim/negf.jpg,stim/posf.jpg,stim/1.jpg,stim/4.jpg,stim/latef.jpg,EF,1,2,,,,,,,,,0,45,45,47,,,,,,,,,,4,0,0.999664644384,,,,,,2016_Aug_19_1203,P4,PLC_L_D2S1,NHGX,60.0161588752,
stim/posf.jpg,stim/negf.jpg,stim/4.jpg,stim/1.jpg,stim/latef.jpg,EF,2,4,,,,,,,,,0,46,46,55,,,,,,,,,,2,0,0.983007593147,,,,,,2016_Aug_19_1203,P4,PLC_L_D2S1,NHGX,60.0161588752,
stim/posf.jpg,stim/negf.jpg,stim/2.jpg,stim/5.jpg,stim/latef.jpg,CD,2,4,,,,,,,,,0,47,47,34,,,,,,,,,,4,1,0.949676293877,,,,,,2016_Aug_19_1203,P4,PLC_L_D2S1,NHGX,60.0161588752,
stim/negf.jpg,stim/posf.jpg,stim/6.jpg,stim/3.jpg,stim/latef.jpg,AB,2,4,,,,,,,,,0,48,48,19,,,,,,,,,,4,1,0.883026762856,,,,,,2016_Aug_19_1203,P4,PLC_L_D2S1,NHGX,60.0161588752,
stim/posf.jpg,stim/negf.jpg,stim/5.jpg,stim/2.jpg,stim/latef.jpg,CD,1,2,,,,,,,,,0,49,49,26,,,,,,,,,,2,1,0.816343785596,,,,,,2016_Aug_19_1203,P4,PLC_L_D2S1,NHGX,60.0161588752,
stim/posf.jpg,stim/negf.jpg,stim/1.jpg,stim/4.jpg,stim/latef.jpg,EF,1,2,,,,,,,,,0,50,50,45,,,,,,,,,,2,1,1.14962890494,,,,,,2016_Aug_19_1203,P4,PLC_L_D2S1,NHGX,60.0161588752,
stim/negf.jpg,stim/posf.jpg,stim/4.jpg,stim/1.jpg,stim/latef.jpg,EF,2,4,,,,,,,,,0,51,51,57,,,,,,,,,,4,1,0.816343250264,,,,,,2016_Aug_19_1203,P4,PLC_L_D2S1,NHGX,60.0161588752,
stim/negf.jpg,stim/posf.jpg,stim/2.jpg,stim/5.jpg,stim/latef.jpg,CD,2,4,,,,,,,,,0,52,52,37,,,,,,,,,,4,1,0.866379852859,,,,,,2016_Aug_19_1203,P4,PLC_L_D2S1,NHGX,60.0161588752,
stim/negf.jpg,stim/posf.jpg,stim/2.jpg,stim/5.jpg,stim/latef.jpg,CD,2,4,,,,,,,,,0,53,53,38,,,,,,,,,,2,0,0.933029474104,,,,,,2016_Aug_19_1203,P4,PLC_L_D2S1,NHGX,60.0161588752,
stim/negf.jpg,stim/posf.jpg,stim/4.jpg,stim/1.jpg,stim/latef.jpg,EF,2,4,,,,,,,,,0,54,54,59,,,,,,,,,,4,1,1.24957861979,,,,,,2016_Aug_19_1203,P4,PLC_L_D2S1,NHGX,60.0161588752,
stim/posf.jpg,stim/negf.jpg,stim/6.jpg,stim/3.jpg,stim/latef.jpg,AB,2,4,,,,,,,,,0,55,55,11,,,,,,,,,,2,0,0.949692654594,,,,,,2016_Aug_19_1203,P4,PLC_L_D2S1,NHGX,60.0161588752,
stim/negf.jpg,stim/posf.jpg,stim/5.jpg,stim/2.jpg,stim/latef.jpg,CD,1,2,,,,,,,,,0,56,56,28,,,,,,,,,,2,1,0.966340090901,,,,,,2016_Aug_19_1203,P4,PLC_L_D2S1,NHGX,60.0161588752,
stim/posf.jpg,stim/negf.jpg,stim/6.jpg,stim/3.jpg,stim/latef.jpg,AB,2,4,,,,,,,,,0,57,57,10,,,,,,,,,,4,1,0.98299509404,,,,,,2016_Aug_19_1203,P4,PLC_L_D2S1,NHGX,60.0161588752,
stim/posf.jpg,stim/negf.jpg,stim/4.jpg,stim/1.jpg,stim/latef.jpg,EF,2,4,,,,,,,,,0,58,58,54,,,,,,,,,,4,1,1.0996332312,,,,,,2016_Aug_19_1203,P4,PLC_L_D2S1,NHGX,60.0161588752,
stim/negf.jpg,stim/posf.jpg,stim/5.jpg,stim/2.jpg,stim/latef.jpg,CD,1,2,,,,,,,,,0,59,59,29,,,,,,,,,,4,0,0.916402407492,,,,,,2016_Aug_19_1203,P4,PLC_L_D2S1,NHGX,60.0161588752,
,,,,,,,,,,,,,,,,,,,,,,,,,,,,,,,,0.9984375,0.533203125,1,0,0,2016_Aug_19_1203,P4,PLC_L_D2S1,NHGX,60.0161588752,
stim/negf.jpg,stim/posf.jpg,stim/5.jpg,stim/2.jpg,stim/latef.jpg,CD,1,2,,,,,,,,,,,,,0,0,0,29,,,,,,4,0,0.81638635053,,,,,,2016_Aug_19_1203,P4,PLC_L_D2S1,NHGX,60.0161588752,
stim/posf.jpg,stim/negf.jpg,stim/3.jpg,stim/6.jpg,stim/latef.jpg,AB,1,2,,,,,,,,,,,,,0,1,1,7,,,,,,2,1,0.932999251888,,,,,,2016_Aug_19_1203,P4,PLC_L_D2S1,NHGX,60.0161588752,
stim/posf.jpg,stim/negf.jpg,stim/4.jpg,stim/1.jpg,stim/latef.jpg,EF,2,4,,,,,,,,,,,,,0,2,2,52,,,,,,4,1,0.883040777736,,,,,,2016_Aug_19_1203,P4,PLC_L_D2S1,NHGX,60.0161588752,
stim/negf.jpg,stim/posf.jpg,stim/6.jpg,stim/3.jpg,stim/latef.jpg,AB,2,4,,,,,,,,,,,,,0,3,3,18,,,,,,4,1,0.999720776082,,,,,,2016_Aug_19_1203,P4,PLC_L_D2S1,NHGX,60.0161588752,
stim/posf.jpg,stim/negf.jpg,stim/3.jpg,stim/6.jpg,stim/latef.jpg,AB,1,2,,,,,,,,,,,,,0,4,4,4,,,,,,2,1,0.916368263516,,,,,,2016_Aug_19_1203,P4,PLC_L_D2S1,NHGX,60.0161588752,
stim/negf.jpg,stim/posf.jpg,stim/3.jpg,stim/6.jpg,stim/latef.jpg,AB,1,2,,,,,,,,,,,,,0,5,5,9,,,,,,2,1,1.01632730759,,,,,,2016_Aug_19_1203,P4,PLC_L_D2S1,NHGX,60.0161588752,
stim/posf.jpg,stim/negf.jpg,stim/5.jpg,stim/2.jpg,stim/latef.jpg,CD,1,2,,,,,,,,,,,,,0,6,6,25,,,,,,2,1,1.04959397601,,,,,,2016_Aug_19_1203,P4,PLC_L_D2S1,NHGX,60.0161588752,
stim/posf.jpg,stim/negf.jpg,stim/3.jpg,stim/6.jpg,stim/latef.jpg,AB,1,2,,,,,,,,,,,,,0,7,7,6,,,,,,4,0,0.949672874366,,,,,,2016_Aug_19_1203,P4,PLC_L_D2S1,NHGX,60.0161588752,
stim/negf.jpg,stim/posf.jpg,stim/1.jpg,stim/4.jpg,stim/latef.jpg,EF,1,2,,,,,,,,,,,,,0,8,8,48,,,,,,2,1,0.899701795845,,,,,,2016_Aug_19_1203,P4,PLC_L_D2S1,NHGX,60.0161588752,
stim/negf.jpg,stim/posf.jpg,stim/1.jpg,stim/4.jpg,stim/latef.jpg,EF,1,2,,,,,,,,,,,,,0,9,9,49,,,,,,2,1,0.932974193524,,,,,,2016_Aug_19_1203,P4,PLC_L_D2S1,NHGX,60.0161588752,
stim/negf.jpg,stim/posf.jpg,stim/1.jpg,stim/4.jpg,stim/latef.jpg,EF,1,2,,,,,,,,,,,,,0,10,10,46,,,,,,2,1,1.08297026725,,,,,,2016_Aug_19_1203,P4,PLC_L_D2S1,NHGX,60.0161588752,
stim/posf.jpg,stim/negf.jpg,stim/4.jpg,stim/1.jpg,stim/latef.jpg,EF,2,4,,,,,,,,,,,,,0,11,11,55,,,,,,4,1,0.832961504945,,,,,,2016_Aug_19_1203,P4,PLC_L_D2S1,NHGX,60.0161588752,
stim/posf.jpg,stim/negf.jpg,stim/3.jpg,stim/6.jpg,stim/latef.jpg,AB,1,2,,,,,,,,,,,,,0,12,12,2,,,,,,2,1,0.883020660669,,,,,,2016_Aug_19_1203,P4,PLC_L_D2S1,NHGX,60.0161588752,
stim/posf.jpg,stim/negf.jpg,stim/2.jpg,stim/5.jpg,stim/latef.jpg,CD,2,4,,,,,,,,,,,,,0,13,13,33,,,,,,4,1,0.89969582298,,,,,,2016_Aug_19_1203,P4,PLC_L_D2S1,NHGX,60.0161588752,
stim/posf.jpg,stim/negf.jpg,stim/5.jpg,stim/2.jpg,stim/latef.jpg,CD,1,2,,,,,,,,,,,,,0,14,14,23,,,,,,2,1,1.01631940091,,,,,,2016_Aug_19_1203,P4,PLC_L_D2S1,NHGX,60.0161588752,
stim/negf.jpg,stim/posf.jpg,stim/2.jpg,stim/5.jpg,stim/latef.jpg,CD,2,4,,,,,,,,,,,,,0,15,15,38,,,,,,4,1,0.933044691977,,,,,,2016_Aug_19_1203,P4,PLC_L_D2S1,NHGX,60.0161588752,
stim/negf.jpg,stim/posf.jpg,stim/3.jpg,stim/6.jpg,stim/latef.jpg,AB,1,2,,,,,,,,,,,,,0,16,16,8,,,,,,2,1,0.949631271828,,,,,,2016_Aug_19_1203,P4,PLC_L_D2S1,NHGX,60.0161588752,
stim/posf.jpg,stim/negf.jpg,stim/5.jpg,stim/2.jpg,stim/latef.jpg,CD,1,2,,,,,,,,,,,,,0,17,17,26,,,,,,2,1,1.03298666256,,,,,,2016_Aug_19_1203,P4,PLC_L_D2S1,NHGX,60.0161588752,
stim/posf.jpg,stim/negf.jpg,stim/3.jpg,stim/6.jpg,stim/latef.jpg,AB,1,2,,,,,,,,,,,,,0,18,18,3,,,,,,2,1,1.21625453548,,,,,,2016_Aug_19_1203,P4,PLC_L_D2S1,NHGX,60.0161588752,
stim/posf.jpg,stim/negf.jpg,stim/4.jpg,stim/1.jpg,stim/latef.jpg,EF,2,4,,,,,,,,,,,,,0,19,19,51,,,,,,4,1,0.766394087285,,,,,,2016_Aug_19_1203,P4,PLC_L_D2S1,NHGX,60.0161588752,
stim/posf.jpg,stim/negf.jpg,stim/6.jpg,stim/3.jpg,stim/latef.jpg,AB,2,4,,,,,,,,,,,,,0,20,20,10,,,,,,2,0,1.08297642658,,,,,,2016_Aug_19_1203,P4,PLC_L_D2S1,NHGX,60.0161588752,
stim/posf.jpg,stim/negf.jpg,stim/4.jpg,stim/1.jpg,stim/latef.jpg,EF,2,4,,,,,,,,,,,,,0,21,21,50,,,,,,4,1,0.68309010951,,,,,,2016_Aug_19_1203,P4,PLC_L_D2S1,NHGX,60.0161588752,
stim/posf.jpg,stim/negf.jpg,stim/4.jpg,stim/1.jpg,stim/latef.jpg,EF,2,4,,,,,,,,,,,,,0,22,22,53,,,,,,4,1,0.749745553246,,,,,,2016_Aug_19_1203,P4,PLC_L_D2S1,NHGX,60.0161588752,
stim/negf.jpg,stim/posf.jpg,stim/6.jpg,stim/3.jpg,stim/latef.jpg,AB,2,4,,,,,,,,,,,,,0,23,23,19,,,,,,2,0,0.982997912054,,,,,,2016_Aug_19_1203,P4,PLC_L_D2S1,NHGX,60.0161588752,
stim/negf.jpg,stim/posf.jpg,stim/4.jpg,stim/1.jpg,stim/latef.jpg,EF,2,4,,,,,,,,,,,,,0,24,24,57,,,,,,4,1,1.04964527768,,,,,,2016_Aug_19_1203,P4,PLC_L_D2S1,NHGX,60.0161588752,
stim/posf.jpg,stim/negf.jpg,stim/6.jpg,stim/3.jpg,stim/latef.jpg,AB,2,4,,,,,,,,,,,,,0,25,25,12,,,,,,4,1,1.24958257163,,,,,,2016_Aug_19_1203,P4,PLC_L_D2S1,NHGX,60.0161588752,
stim/posf.jpg,stim/negf.jpg,stim/5.jpg,stim/2.jpg,stim/latef.jpg,CD,1,2,,,,,,,,,,,,,0,26,26,22,,,,,,2,1,1.23289425758,,,,,,2016_Aug_19_1203,P4,PLC_L_D2S1,NHGX,60.0161588752,
stim/posf.jpg,stim/negf.jpg,stim/2.jpg,stim/5.jpg,stim/latef.jpg,CD,2,4,,,,,,,,,,,,,0,27,27,31,,,,,,4,1,1.1495980722,,,,,,2016_Aug_19_1203,P4,PLC_L_D2S1,NHGX,60.0161588752,
stim/posf.jpg,stim/negf.jpg,stim/2.jpg,stim/5.jpg,stim/latef.jpg,CD,2,4,,,,,,,,,,,,,0,28,28,32,,,,,,4,1,1.06632009113,,,,,,2016_Aug_19_1203,P4,PLC_L_D2S1,NHGX,60.0161588752,
stim/posf.jpg,stim/negf.jpg,stim/2.jpg,stim/5.jpg,stim/latef.jpg,CD,2,4,,,,,,,,,,,,,0,29,29,34,,,,,,4,1,1.01634034804,,,,,,2016_Aug_19_1203,P4,PLC_L_D2S1,NHGX,60.0161588752,
stim/negf.jpg,stim/posf.jpg,stim/2.jpg,stim/5.jpg,stim/latef.jpg,CD,2,4,,,,,,,,,,,,,0,30,30,37,,,,,,4,1,0.932993757213,,,,,,2016_Aug_19_1203,P4,PLC_L_D2S1,NHGX,60.0161588752,
stim/posf.jpg,stim/negf.jpg,stim/5.jpg,stim/2.jpg,stim/latef.jpg,CD,1,2,,,,,,,,,,,,,0,31,31,20,,,,,,2,1,1.06631752273,,,,,,2016_Aug_19_1203,P4,PLC_L_D2S1,NHGX,60.0161588752,
stim/negf.jpg,stim/posf.jpg,stim/1.jpg,stim/4.jpg,stim/latef.jpg,EF,1,2,,,,,,,,,,,,,0,32,32,47,,,,,,2,1,1.04959669778,,,,,,2016_Aug_19_1203,P4,PLC_L_D2S1,NHGX,60.0161588752,
stim/posf.jpg,stim/negf.jpg,stim/3.jpg,stim/6.jpg,stim/latef.jpg,AB,1,2,,,,,,,,,,,,,0,33,33,1,,,,,,4,0,1.09961984188,,,,,,2016_Aug_19_1203,P4,PLC_L_D2S1,NHGX,60.0161588752,
stim/posf.jpg,stim/negf.jpg,stim/1.jpg,stim/4.jpg,stim/latef.jpg,EF,1,2,,,,,,,,,,,,,0,34,34,40,,,,,,2,1,1.34948173968,,,,,,2016_Aug_19_1203,P4,PLC_L_D2S1,NHGX,60.0161588752,
stim/posf.jpg,stim/negf.jpg,stim/1.jpg,stim/4.jpg,stim/latef.jpg,EF,1,2,,,,,,,,,,,,,0,35,35,41,,,,,,2,1,0.816410648,,,,,,2016_Aug_19_1203,P4,PLC_L_D2S1,NHGX,60.0161588752,
stim/posf.jpg,stim/negf.jpg,stim/6.jpg,stim/3.jpg,stim/latef.jpg,AB,2,4,,,,,,,,,,,,,0,36,36,11,,,,,,4,1,1.06629304482,,,,,,2016_Aug_19_1203,P4,PLC_L_D2S1,NHGX,60.0161588752,
stim/negf.jpg,stim/posf.jpg,stim/5.jpg,stim/2.jpg,stim/latef.jpg,CD,1,2,,,,,,,,,,,,,0,37,37,27,,,,,,2,1,0.999682283283,,,,,,2016_Aug_19_1203,P4,PLC_L_D2S1,NHGX,60.0161588752,
stim/negf.jpg,stim/posf.jpg,stim/4.jpg,stim/1.jpg,stim/latef.jpg,EF,2,4,,,,,,,,,,,,,0,38,38,56,,,,,,4,1,0.966365236482,,,,,,2016_Aug_19_1203,P4,PLC_L_D2S1,NHGX,60.0161588752,
stim/posf.jpg,stim/negf.jpg,stim/5.jpg,stim/2.jpg,stim/latef.jpg,CD,1,2,,,,,,,,,,,,,0,39,39,21,,,,,,2,1,1.14954323974,,,,,,2016_Aug_19_1203,P4,PLC_L_D2S1,NHGX,60.0161588752,
stim/posf.jpg,stim/negf.jpg,stim/5.jpg,stim/2.jpg,stim/latef.jpg,CD,1,2,,,,,,,,,,,,,0,40,40,24,,,,,,4,0,0.916341361564,,,,,,2016_Aug_19_1203,P4,PLC_L_D2S1,NHGX,60.0161588752,
stim/posf.jpg,stim/negf.jpg,stim/1.jpg,stim/4.jpg,stim/latef.jpg,EF,1,2,,,,,,,,,,,,,0,41,41,42,,,,,,2,1,1.03295912302,,,,,,2016_Aug_19_1203,P4,PLC_L_D2S1,NHGX,60.0161588752,
stim/posf.jpg,stim/negf.jpg,stim/6.jpg,stim/3.jpg,stim/latef.jpg,AB,2,4,,,,,,,,,,,,,0,42,42,13,,,,,,2,0,0.983012675797,,,,,,2016_Aug_19_1203,P4,PLC_L_D2S1,NHGX,60.0161588752,
stim/posf.jpg,stim/negf.jpg,stim/6.jpg,stim/3.jpg,stim/latef.jpg,AB,2,4,,,,,,,,,,,,,0,43,43,17,,,,,,2,0,1.26623824543,,,,,,2016_Aug_19_1203,P4,PLC_L_D2S1,NHGX,60.0161588752,
stim/posf.jpg,stim/negf.jpg,stim/2.jpg,stim/5.jpg,stim/latef.jpg,CD,2,4,,,,,,,,,,,,,0,44,44,30,,,,,,4,1,0.899681787047,,,,,,2016_Aug_19_1203,P4,PLC_L_D2S1,NHGX,60.0161588752,
stim/posf.jpg,stim/negf.jpg,stim/3.jpg,stim/6.jpg,stim/latef.jpg,AB,1,2,,,,,,,,,,,,,0,45,45,5,,,,,,4,0,0.982992609858,,,,,,2016_Aug_19_1203,P4,PLC_L_D2S1,NHGX,60.0161588752,
stim/posf.jpg,stim/negf.jpg,stim/2.jpg,stim/5.jpg,stim/latef.jpg,CD,2,4,,,,,,,,,,,,,0,46,46,36,,,,,,2,0,1.19960250373,,,,,,2016_Aug_19_1203,P4,PLC_L_D2S1,NHGX,60.0161588752,
stim/negf.jpg,stim/posf.jpg,stim/2.jpg,stim/5.jpg,stim/latef.jpg,CD,2,4,,,,,,,,,,,,,0,47,47,39,,,,,,4,1,1.08298300395,,,,,,2016_Aug_19_1203,P4,PLC_L_D2S1,NHGX,60.0161588752,
stim/posf.jpg,stim/negf.jpg,stim/2.jpg,stim/5.jpg,stim/latef.jpg,CD,2,4,,,,,,,,,,,,,0,48,48,35,,,,,,4,1,1.08294724496,,,,,,2016_Aug_19_1203,P4,PLC_L_D2S1,NHGX,60.0161588752,
stim/posf.jpg,stim/negf.jpg,stim/1.jpg,stim/4.jpg,stim/latef.jpg,EF,1,2,,,,,,,,,,,,,0,49,49,43,,,,,,2,1,0.799734535325,,,,,,2016_Aug_19_1203,P4,PLC_L_D2S1,NHGX,60.0161588752,
stim/posf.jpg,stim/negf.jpg,stim/6.jpg,stim/3.jpg,stim/latef.jpg,AB,2,4,,,,,,,,,,,,,0,50,50,15,,,,,,4,1,1.04957471307,,,,,,2016_Aug_19_1203,P4,PLC_L_D2S1,NHGX,60.0161588752,
stim/posf.jpg,stim/negf.jpg,stim/6.jpg,stim/3.jpg,stim/latef.jpg,AB,2,4,,,,,,,,,,,,,0,51,51,16,,,,,,4,1,0.666433930445,,,,,,2016_Aug_19_1203,P4,PLC_L_D2S1,NHGX,60.0161588752,
stim/negf.jpg,stim/posf.jpg,stim/4.jpg,stim/1.jpg,stim/latef.jpg,EF,2,4,,,,,,,,,,,,,0,52,52,58,,,,,,4,1,1.11630618602,,,,,,2016_Aug_19_1203,P4,PLC_L_D2S1,NHGX,60.0161588752,
stim/negf.jpg,stim/posf.jpg,stim/4.jpg,stim/1.jpg,stim/latef.jpg,EF,2,4,,,,,,,,,,,,,0,53,53,59,,,,,,4,1,0.716476650264,,,,,,2016_Aug_19_1203,P4,PLC_L_D2S1,NHGX,60.0161588752,
stim/posf.jpg,stim/negf.jpg,stim/1.jpg,stim/4.jpg,stim/latef.jpg,EF,1,2,,,,,,,,,,,,,0,54,54,45,,,,,,2,1,0.932986124217,,,,,,2016_Aug_19_1203,P4,PLC_L_D2S1,NHGX,60.0161588752,
stim/negf.jpg,stim/posf.jpg,stim/5.jpg,stim/2.jpg,stim/latef.jpg,CD,1,2,,,,,,,,,,,,,0,55,55,28,,,,,,2,1,0.932972569482,,,,,,2016_Aug_19_1203,P4,PLC_L_D2S1,NHGX,60.0161588752,
stim/posf.jpg,stim/negf.jpg,stim/1.jpg,stim/4.jpg,stim/latef.jpg,EF,1,2,,,,,,,,,,,,,0,56,56,44,,,,,,2,1,1.06630114698,,,,,,2016_Aug_19_1203,P4,PLC_L_D2S1,NHGX,60.0161588752,
stim/posf.jpg,stim/negf.jpg,stim/3.jpg,stim/6.jpg,stim/latef.jpg,AB,1,2,,,,,,,,,,,,,0,57,57,0,,,,,,2,1,1.19957995662,,,,,,2016_Aug_19_1203,P4,PLC_L_D2S1,NHGX,60.0161588752,
stim/posf.jpg,stim/negf.jpg,stim/4.jpg,stim/1.jpg,stim/latef.jpg,EF,2,4,,,,,,,,,,,,,0,58,58,54,,,,,,4,1,0.982985593396,,,,,,2016_Aug_19_1203,P4,PLC_L_D2S1,NHGX,60.0161588752,
stim/posf.jpg,stim/negf.jpg,stim/6.jpg,stim/3.jpg,stim/latef.jpg,AB,2,4,,,,,,,,,,,,,0,59,59,14,,,,,,2,0,1.23292672038,,,,,,2016_Aug_19_1203,P4,PLC_L_D2S1,NHGX,60.0161588752,
