fb_corr,fb_incorr,symbol2,symbol1,fb_late,pair,position,correct,block_01.thisRepN,block_01.thisTrialN,block_01.thisN,block_01.thisIndex,block_02.thisRepN,block_02.thisTrialN,block_02.thisN,block_02.thisIndex,block_03.thisRepN,block_03.thisTrialN,block_03.thisN,block_03.thisIndex,block_04.thisRepN,block_04.thisTrialN,block_04.thisN,block_04.thisIndex,mouse.x,mouse.y,mouse.leftButton,mouse.midButton,mouse.rightButton,buttonBox_2.keys,buttonBox_2.corr,buttonBox_2.rt,mouse_2.x,mouse_2.y,mouse_2.leftButton,mouse_2.midButton,mouse_2.rightButton,date,Participant,expName,Group,frameRate,
,,,,,,,,,,,,,,,,,,,,,,,,-0.3859375,0.865234375,1,0,0,,,,,,,,,2016_Aug_20_1210,P5,PLC_L_D2S1,NHGX,60.0271520842,
stim/posf.jpg,stim/negf.jpg,stim/5.jpg,stim/1.jpg,stim/latef.jpg,EF,2,4,0,0,0,52,,,,,,,,,,,,,,,,,,4,1,0.999722795146,,,,,,2016_Aug_20_1210,P5,PLC_L_D2S1,NHGX,60.0271520842,
stim/posf.jpg,stim/negf.jpg,stim/5.jpg,stim/1.jpg,stim/latef.jpg,EF,2,4,0,1,1,54,,,,,,,,,,,,,,,,,,4,1,0.78306373438,,,,,,2016_Aug_20_1210,P5,PLC_L_D2S1,NHGX,60.0271520842,
stim/posf.jpg,stim/negf.jpg,stim/5.jpg,stim/1.jpg,stim/latef.jpg,EF,2,4,0,2,2,51,,,,,,,,,,,,,,,,,,4,1,0.666411638923,,,,,,2016_Aug_20_1210,P5,PLC_L_D2S1,NHGX,60.0271520842,
stim/negf.jpg,stim/posf.jpg,stim/2.jpg,stim/3.jpg,stim/latef.jpg,AB,1,2,0,3,3,8,,,,,,,,,,,,,,,,,,2,1,1.01629966467,,,,,,2016_Aug_20_1210,P5,PLC_L_D2S1,NHGX,60.0271520842,
stim/posf.jpg,stim/negf.jpg,stim/6.jpg,stim/4.jpg,stim/latef.jpg,CD,1,2,0,4,4,23,,,,,,,,,,,,,,,,,,2,1,1.21630201952,,,,,,2016_Aug_20_1210,P5,PLC_L_D2S1,NHGX,60.0271520842,
stim/posf.jpg,stim/negf.jpg,stim/2.jpg,stim/3.jpg,stim/latef.jpg,AB,1,2,0,5,5,3,,,,,,,,,,,,,,,,,,4,0,0.866346716591,,,,,,2016_Aug_20_1210,P5,PLC_L_D2S1,NHGX,60.0271520842,
stim/negf.jpg,stim/posf.jpg,stim/1.jpg,stim/5.jpg,stim/latef.jpg,EF,1,2,0,6,6,49,,,,,,,,,,,,,,,,,,2,1,0.799721944031,,,,,,2016_Aug_20_1210,P5,PLC_L_D2S1,NHGX,60.0271520842,
stim/posf.jpg,stim/negf.jpg,stim/2.jpg,stim/3.jpg,stim/latef.jpg,AB,1,2,0,7,7,0,,,,,,,,,,,,,,,,,,4,0,1.01633843702,,,,,,2016_Aug_20_1210,P5,PLC_L_D2S1,NHGX,60.0271520842,
stim/posf.jpg,stim/negf.jpg,stim/4.jpg,stim/6.jpg,stim/latef.jpg,CD,2,4,0,8,8,32,,,,,,,,,,,,,,,,,,4,1,1.11630845852,,,,,,2016_Aug_20_1210,P5,PLC_L_D2S1,NHGX,60.0271520842,
stim/posf.jpg,stim/negf.jpg,stim/3.jpg,stim/2.jpg,stim/latef.jpg,AB,2,4,0,9,9,16,,,,,,,,,,,,,,,,,,4,1,0.949683962647,,,,,,2016_Aug_20_1210,P5,PLC_L_D2S1,NHGX,60.0271520842,
stim/posf.jpg,stim/negf.jpg,stim/2.jpg,stim/3.jpg,stim/latef.jpg,AB,1,2,0,10,10,6,,,,,,,,,,,,,,,,,,2,1,0.683179101066,,,,,,2016_Aug_20_1210,P5,PLC_L_D2S1,NHGX,60.0271520842,
stim/negf.jpg,stim/posf.jpg,stim/1.jpg,stim/5.jpg,stim/latef.jpg,EF,1,2,0,11,11,46,,,,,,,,,,,,,,,,,,2,1,0.666444991804,,,,,,2016_Aug_20_1210,P5,PLC_L_D2S1,NHGX,60.0271520842,
stim/posf.jpg,stim/negf.jpg,stim/1.jpg,stim/5.jpg,stim/latef.jpg,EF,1,2,0,12,12,45,,,,,,,,,,,,,,,,,,2,1,0.483161260733,,,,,,2016_Aug_20_1210,P5,PLC_L_D2S1,NHGX,60.0271520842,
stim/posf.jpg,stim/negf.jpg,stim/6.jpg,stim/4.jpg,stim/latef.jpg,CD,1,2,0,13,13,21,,,,,,,,,,,,,,,,,,2,1,1.24957004857,,,,,,2016_Aug_20_1210,P5,PLC_L_D2S1,NHGX,60.0271520842,
stim/posf.jpg,stim/negf.jpg,stim/6.jpg,stim/4.jpg,stim/latef.jpg,CD,1,2,0,14,14,24,,,,,,,,,,,,,,,,,,2,1,0.666415073458,,,,,,2016_Aug_20_1210,P5,PLC_L_D2S1,NHGX,60.0271520842,
stim/negf.jpg,stim/posf.jpg,stim/5.jpg,stim/1.jpg,stim/latef.jpg,EF,2,4,0,15,15,59,,,,,,,,,,,,,,,,,,4,1,0.749741853506,,,,,,2016_Aug_20_1210,P5,PLC_L_D2S1,NHGX,60.0271520842,
stim/posf.jpg,stim/negf.jpg,stim/4.jpg,stim/6.jpg,stim/latef.jpg,CD,2,4,0,16,16,30,,,,,,,,,,,,,,,,,,4,1,0.866368150855,,,,,,2016_Aug_20_1210,P5,PLC_L_D2S1,NHGX,60.0271520842,
stim/negf.jpg,stim/posf.jpg,stim/1.jpg,stim/5.jpg,stim/latef.jpg,EF,1,2,0,17,17,48,,,,,,,,,,,,,,,,,,2,1,0.499835349844,,,,,,2016_Aug_20_1210,P5,PLC_L_D2S1,NHGX,60.0271520842,
stim/posf.jpg,stim/negf.jpg,stim/5.jpg,stim/1.jpg,stim/latef.jpg,EF,2,4,0,18,18,53,,,,,,,,,,,,,,,,,,4,1,0.616437500188,,,,,,2016_Aug_20_1210,P5,PLC_L_D2S1,NHGX,60.0271520842,
stim/posf.jpg,stim/negf.jpg,stim/1.jpg,stim/5.jpg,stim/latef.jpg,EF,1,2,0,19,19,43,,,,,,,,,,,,,,,,,,2,1,0.599720440294,,,,,,2016_Aug_20_1210,P5,PLC_L_D2S1,NHGX,60.0271520842,
stim/posf.jpg,stim/negf.jpg,stim/1.jpg,stim/5.jpg,stim/latef.jpg,EF,1,2,0,20,20,42,,,,,,,,,,,,,,,,,,2,1,0.583145438414,,,,,,2016_Aug_20_1210,P5,PLC_L_D2S1,NHGX,60.0271520842,
stim/negf.jpg,stim/posf.jpg,stim/6.jpg,stim/4.jpg,stim/latef.jpg,CD,1,2,0,21,21,28,,,,,,,,,,,,,,,,,,2,1,0.849714458429,,,,,,2016_Aug_20_1210,P5,PLC_L_D2S1,NHGX,60.0271520842,
stim/posf.jpg,stim/negf.jpg,stim/1.jpg,stim/5.jpg,stim/latef.jpg,EF,1,2,0,22,22,40,,,,,,,,,,,,,,,,,,2,1,0.416529534894,,,,,,2016_Aug_20_1210,P5,PLC_L_D2S1,NHGX,60.0271520842,
stim/posf.jpg,stim/negf.jpg,stim/3.jpg,stim/2.jpg,stim/latef.jpg,AB,2,4,0,23,23,17,,,,,,,,,,,,,,,,,,4,1,0.833054140539,,,,,,2016_Aug_20_1210,P5,PLC_L_D2S1,NHGX,60.0271520842,
stim/posf.jpg,stim/negf.jpg,stim/3.jpg,stim/2.jpg,stim/latef.jpg,AB,2,4,0,24,24,11,,,,,,,,,,,,,,,,,,4,1,0.599810408866,,,,,,2016_Aug_20_1210,P5,PLC_L_D2S1,NHGX,60.0271520842,
stim/negf.jpg,stim/posf.jpg,stim/6.jpg,stim/4.jpg,stim/latef.jpg,CD,1,2,0,25,25,27,,,,,,,,,,,,,,,,,,2,1,0.649780716079,,,,,,2016_Aug_20_1210,P5,PLC_L_D2S1,NHGX,60.0271520842,
stim/negf.jpg,stim/posf.jpg,stim/4.jpg,stim/6.jpg,stim/latef.jpg,CD,2,4,0,26,26,38,,,,,,,,,,,,,,,,,,4,1,0.683044137682,,,,,,2016_Aug_20_1210,P5,PLC_L_D2S1,NHGX,60.0271520842,
stim/posf.jpg,stim/negf.jpg,stim/2.jpg,stim/3.jpg,stim/latef.jpg,AB,1,2,0,27,27,7,,,,,,,,,,,,,,,,,,2,1,0.616503670622,,,,,,2016_Aug_20_1210,P5,PLC_L_D2S1,NHGX,60.0271520842,
stim/posf.jpg,stim/negf.jpg,stim/4.jpg,stim/6.jpg,stim/latef.jpg,CD,2,4,0,28,28,35,,,,,,,,,,,,,,,,,,4,1,0.583145916602,,,,,,2016_Aug_20_1210,P5,PLC_L_D2S1,NHGX,60.0271520842,
stim/negf.jpg,stim/posf.jpg,stim/6.jpg,stim/4.jpg,stim/latef.jpg,CD,1,2,0,29,29,29,,,,,,,,,,,,,,,,,,2,1,0.583142725673,,,,,,2016_Aug_20_1210,P5,PLC_L_D2S1,NHGX,60.0271520842,
stim/negf.jpg,stim/posf.jpg,stim/4.jpg,stim/6.jpg,stim/latef.jpg,CD,2,4,0,30,30,37,,,,,,,,,,,,,,,,,,4,1,0.566460750966,,,,,,2016_Aug_20_1210,P5,PLC_L_D2S1,NHGX,60.0271520842,
stim/posf.jpg,stim/negf.jpg,stim/1.jpg,stim/5.jpg,stim/latef.jpg,EF,1,2,0,31,31,41,,,,,,,,,,,,,,,,,,2,1,0.683100542849,,,,,,2016_Aug_20_1210,P5,PLC_L_D2S1,NHGX,60.0271520842,
stim/posf.jpg,stim/negf.jpg,stim/6.jpg,stim/4.jpg,stim/latef.jpg,CD,1,2,0,32,32,26,,,,,,,,,,,,,,,,,,2,1,0.549824387603,,,,,,2016_Aug_20_1210,P5,PLC_L_D2S1,NHGX,60.0271520842,
stim/posf.jpg,stim/negf.jpg,stim/6.jpg,stim/4.jpg,stim/latef.jpg,CD,1,2,0,33,33,20,,,,,,,,,,,,,,,,,,2,1,0.733037930257,,,,,,2016_Aug_20_1210,P5,PLC_L_D2S1,NHGX,60.0271520842,
stim/negf.jpg,stim/posf.jpg,stim/1.jpg,stim/5.jpg,stim/latef.jpg,EF,1,2,0,34,34,47,,,,,,,,,,,,,,,,,,2,1,0.683095481271,,,,,,2016_Aug_20_1210,P5,PLC_L_D2S1,NHGX,60.0271520842,
stim/posf.jpg,stim/negf.jpg,stim/5.jpg,stim/1.jpg,stim/latef.jpg,EF,2,4,0,35,35,55,,,,,,,,,,,,,,,,,,4,1,0.783066432084,,,,,,2016_Aug_20_1210,P5,PLC_L_D2S1,NHGX,60.0271520842,
stim/posf.jpg,stim/negf.jpg,stim/3.jpg,stim/2.jpg,stim/latef.jpg,AB,2,4,0,36,36,10,,,,,,,,,,,,,,,,,,4,1,0.866366214042,,,,,,2016_Aug_20_1210,P5,PLC_L_D2S1,NHGX,60.0271520842,
stim/posf.jpg,stim/negf.jpg,stim/2.jpg,stim/3.jpg,stim/latef.jpg,AB,1,2,0,37,37,2,,,,,,,,,,,,,,,,,,2,1,0.7330907445,,,,,,2016_Aug_20_1210,P5,PLC_L_D2S1,NHGX,60.0271520842,
stim/posf.jpg,stim/negf.jpg,stim/4.jpg,stim/6.jpg,stim/latef.jpg,CD,2,4,0,38,38,33,,,,,,,,,,,,,,,,,,4,1,0.949660753974,,,,,,2016_Aug_20_1210,P5,PLC_L_D2S1,NHGX,60.0271520842,
stim/posf.jpg,stim/negf.jpg,stim/6.jpg,stim/4.jpg,stim/latef.jpg,CD,1,2,0,39,39,25,,,,,,,,,,,,,,,,,,2,1,0.716397771462,,,,,,2016_Aug_20_1210,P5,PLC_L_D2S1,NHGX,60.0271520842,
stim/negf.jpg,stim/posf.jpg,stim/5.jpg,stim/1.jpg,stim/latef.jpg,EF,2,4,0,40,40,56,,,,,,,,,,,,,,,,,,4,1,0.66643785507,,,,,,2016_Aug_20_1210,P5,PLC_L_D2S1,NHGX,60.0271520842,
stim/posf.jpg,stim/negf.jpg,stim/2.jpg,stim/3.jpg,stim/latef.jpg,AB,1,2,0,41,41,1,,,,,,,,,,,,,,,,,,2,1,0.583143327168,,,,,,2016_Aug_20_1210,P5,PLC_L_D2S1,NHGX,60.0271520842,
stim/posf.jpg,stim/negf.jpg,stim/4.jpg,stim/6.jpg,stim/latef.jpg,CD,2,4,0,42,42,31,,,,,,,,,,,,,,,,,,4,1,0.649783991218,,,,,,2016_Aug_20_1210,P5,PLC_L_D2S1,NHGX,60.0271520842,
stim/posf.jpg,stim/negf.jpg,stim/4.jpg,stim/6.jpg,stim/latef.jpg,CD,2,4,0,43,43,36,,,,,,,,,,,,,,,,,,4,1,0.816391876814,,,,,,2016_Aug_20_1210,P5,PLC_L_D2S1,NHGX,60.0271520842,
stim/posf.jpg,stim/negf.jpg,stim/1.jpg,stim/5.jpg,stim/latef.jpg,EF,1,2,0,44,44,44,,,,,,,,,,,,,,,,,,2,1,0.783062396054,,,,,,2016_Aug_20_1210,P5,PLC_L_D2S1,NHGX,60.0271520842,
stim/posf.jpg,stim/negf.jpg,stim/3.jpg,stim/2.jpg,stim/latef.jpg,AB,2,4,0,45,45,14,,,,,,,,,,,,,,,,,,4,1,0.733096326371,,,,,,2016_Aug_20_1210,P5,PLC_L_D2S1,NHGX,60.0271520842,
stim/negf.jpg,stim/posf.jpg,stim/3.jpg,stim/2.jpg,stim/latef.jpg,AB,2,4,0,46,46,18,,,,,,,,,,,,,,,,,,4,1,0.633160292326,,,,,,2016_Aug_20_1210,P5,PLC_L_D2S1,NHGX,60.0271520842,
stim/negf.jpg,stim/posf.jpg,stim/5.jpg,stim/1.jpg,stim/latef.jpg,EF,2,4,0,47,47,58,,,,,,,,,,,,,,,,,,4,1,0.649681968692,,,,,,2016_Aug_20_1210,P5,PLC_L_D2S1,NHGX,60.0271520842,
stim/negf.jpg,stim/posf.jpg,stim/2.jpg,stim/3.jpg,stim/latef.jpg,AB,1,2,0,48,48,9,,,,,,,,,,,,,,,,,,2,1,0.566478735658,,,,,,2016_Aug_20_1210,P5,PLC_L_D2S1,NHGX,60.0271520842,
stim/posf.jpg,stim/negf.jpg,stim/3.jpg,stim/2.jpg,stim/latef.jpg,AB,2,4,0,49,49,15,,,,,,,,,,,,,,,,,,4,1,0.599773657539,,,,,,2016_Aug_20_1210,P5,PLC_L_D2S1,NHGX,60.0271520842,
stim/posf.jpg,stim/negf.jpg,stim/4.jpg,stim/6.jpg,stim/latef.jpg,CD,2,4,0,50,50,34,,,,,,,,,,,,,,,,,,4,1,0.699744557225,,,,,,2016_Aug_20_1210,P5,PLC_L_D2S1,NHGX,60.0271520842,
stim/negf.jpg,stim/posf.jpg,stim/4.jpg,stim/6.jpg,stim/latef.jpg,CD,2,4,0,51,51,39,,,,,,,,,,,,,,,,,,4,1,0.549781365694,,,,,,2016_Aug_20_1210,P5,PLC_L_D2S1,NHGX,60.0271520842,
stim/posf.jpg,stim/negf.jpg,stim/2.jpg,stim/3.jpg,stim/latef.jpg,AB,1,2,0,52,52,5,,,,,,,,,,,,,,,,,,2,1,0.583150779687,,,,,,2016_Aug_20_1210,P5,PLC_L_D2S1,NHGX,60.0271520842,
stim/posf.jpg,stim/negf.jpg,stim/3.jpg,stim/2.jpg,stim/latef.jpg,AB,2,4,0,53,53,12,,,,,,,,,,,,,,,,,,4,1,0.58315990737,,,,,,2016_Aug_20_1210,P5,PLC_L_D2S1,NHGX,60.0271520842,
stim/negf.jpg,stim/posf.jpg,stim/3.jpg,stim/2.jpg,stim/latef.jpg,AB,2,4,0,54,54,19,,,,,,,,,,,,,,,,,,4,1,0.599702930783,,,,,,2016_Aug_20_1210,P5,PLC_L_D2S1,NHGX,60.0271520842,
stim/posf.jpg,stim/negf.jpg,stim/3.jpg,stim/2.jpg,stim/latef.jpg,AB,2,4,0,55,55,13,,,,,,,,,,,,,,,,,,4,1,0.416492500864,,,,,,2016_Aug_20_1210,P5,PLC_L_D2S1,NHGX,60.0271520842,
stim/posf.jpg,stim/negf.jpg,stim/5.jpg,stim/1.jpg,stim/latef.jpg,EF,2,4,0,56,56,50,,,,,,,,,,,,,,,,,,4,1,0.999658402129,,,,,,2016_Aug_20_1210,P5,PLC_L_D2S1,NHGX,60.0271520842,
stim/posf.jpg,stim/negf.jpg,stim/6.jpg,stim/4.jpg,stim/latef.jpg,CD,1,2,0,57,57,22,,,,,,,,,,,,,,,,,,2,1,0.649808727688,,,,,,2016_Aug_20_1210,P5,PLC_L_D2S1,NHGX,60.0271520842,
stim/negf.jpg,stim/posf.jpg,stim/5.jpg,stim/1.jpg,stim/latef.jpg,EF,2,4,0,58,58,57,,,,,,,,,,,,,,,,,,4,1,0.883035443076,,,,,,2016_Aug_20_1210,P5,PLC_L_D2S1,NHGX,60.0271520842,
stim/posf.jpg,stim/negf.jpg,stim/2.jpg,stim/3.jpg,stim/latef.jpg,AB,1,2,0,59,59,4,,,,,,,,,,,,,,,,,,2,1,0.549816095999,,,,,,2016_Aug_20_1210,P5,PLC_L_D2S1,NHGX,60.0271520842,
,,,,,,,,,,,,,,,,,,,,,,,,,,,,,,,,0.9984375,0.822265625,1,0,0,2016_Aug_20_1210,P5,PLC_L_D2S1,NHGX,60.0271520842,
stim/posf.jpg,stim/negf.jpg,stim/2.jpg,stim/3.jpg,stim/latef.jpg,AB,1,2,,,,,0,0,0,4,,,,,,,,,,,,,,2,1,0.699764328356,,,,,,2016_Aug_20_1210,P5,PLC_L_D2S1,NHGX,60.0271520842,
stim/posf.jpg,stim/negf.jpg,stim/5.jpg,stim/1.jpg,stim/latef.jpg,EF,2,4,,,,,0,1,1,54,,,,,,,,,,,,,,4,1,0.833063590021,,,,,,2016_Aug_20_1210,P5,PLC_L_D2S1,NHGX,60.0271520842,
stim/posf.jpg,stim/negf.jpg,stim/1.jpg,stim/5.jpg,stim/latef.jpg,EF,1,2,,,,,0,2,2,42,,,,,,,,,,,,,,2,1,0.633153188674,,,,,,2016_Aug_20_1210,P5,PLC_L_D2S1,NHGX,60.0271520842,
stim/posf.jpg,stim/negf.jpg,stim/6.jpg,stim/4.jpg,stim/latef.jpg,CD,1,2,,,,,0,3,3,21,,,,,,,,,,,,,,2,1,0.666356806664,,,,,,2016_Aug_20_1210,P5,PLC_L_D2S1,NHGX,60.0271520842,
stim/posf.jpg,stim/negf.jpg,stim/3.jpg,stim/2.jpg,stim/latef.jpg,AB,2,4,,,,,0,4,4,16,,,,,,,,,,,,,,4,1,0.599795362476,,,,,,2016_Aug_20_1210,P5,PLC_L_D2S1,NHGX,60.0271520842,
stim/posf.jpg,stim/negf.jpg,stim/2.jpg,stim/3.jpg,stim/latef.jpg,AB,1,2,,,,,0,5,5,6,,,,,,,,,,,,,,2,1,0.566477129667,,,,,,2016_Aug_20_1210,P5,PLC_L_D2S1,NHGX,60.0271520842,
stim/posf.jpg,stim/negf.jpg,stim/5.jpg,stim/1.jpg,stim/latef.jpg,EF,2,4,,,,,0,6,6,51,,,,,,,,,,,,,,4,1,0.533073809416,,,,,,2016_Aug_20_1210,P5,PLC_L_D2S1,NHGX,60.0271520842,
stim/posf.jpg,stim/negf.jpg,stim/6.jpg,stim/4.jpg,stim/latef.jpg,CD,1,2,,,,,0,7,7,22,,,,,,,,,,,,,,2,1,0.483237984392,,,,,,2016_Aug_20_1210,P5,PLC_L_D2S1,NHGX,60.0271520842,
stim/posf.jpg,stim/negf.jpg,stim/6.jpg,stim/4.jpg,stim/latef.jpg,CD,1,2,,,,,0,8,8,26,,,,,,,,,,,,,,2,1,0.616464423092,,,,,,2016_Aug_20_1210,P5,PLC_L_D2S1,NHGX,60.0271520842,
stim/posf.jpg,stim/negf.jpg,stim/4.jpg,stim/6.jpg,stim/latef.jpg,CD,2,4,,,,,0,9,9,34,,,,,,,,,,,,,,4,1,0.683117129066,,,,,,2016_Aug_20_1210,P5,PLC_L_D2S1,NHGX,60.0271520842,
stim/negf.jpg,stim/posf.jpg,stim/1.jpg,stim/5.jpg,stim/latef.jpg,EF,1,2,,,,,0,10,10,46,,,,,,,,,,,,,,2,1,0.59977071623,,,,,,2016_Aug_20_1210,P5,PLC_L_D2S1,NHGX,60.0271520842,
stim/negf.jpg,stim/posf.jpg,stim/3.jpg,stim/2.jpg,stim/latef.jpg,AB,2,4,,,,,0,11,11,19,,,,,,,,,,,,,,4,1,0.616449779703,,,,,,2016_Aug_20_1210,P5,PLC_L_D2S1,NHGX,60.0271520842,
stim/posf.jpg,stim/negf.jpg,stim/3.jpg,stim/2.jpg,stim/latef.jpg,AB,2,4,,,,,0,12,12,10,,,,,,,,,,,,,,4,1,0.616468642577,,,,,,2016_Aug_20_1210,P5,PLC_L_D2S1,NHGX,60.0271520842,
stim/posf.jpg,stim/negf.jpg,stim/4.jpg,stim/6.jpg,stim/latef.jpg,CD,2,4,,,,,0,13,13,31,,,,,,,,,,,,,,4,1,0.649769774891,,,,,,2016_Aug_20_1210,P5,PLC_L_D2S1,NHGX,60.0271520842,
stim/negf.jpg,stim/posf.jpg,stim/6.jpg,stim/4.jpg,stim/latef.jpg,CD,1,2,,,,,0,14,14,27,,,,,,,,,,,,,,2,1,0.699771684636,,,,,,2016_Aug_20_1210,P5,PLC_L_D2S1,NHGX,60.0271520842,
stim/negf.jpg,stim/posf.jpg,stim/4.jpg,stim/6.jpg,stim/latef.jpg,CD,2,4,,,,,0,15,15,39,,,,,,,,,,,,,,4,1,0.533115438865,,,,,,2016_Aug_20_1210,P5,PLC_L_D2S1,NHGX,60.0271520842,
stim/posf.jpg,stim/negf.jpg,stim/4.jpg,stim/6.jpg,stim/latef.jpg,CD,2,4,,,,,0,16,16,32,,,,,,,,,,,,,,4,1,0.599813341153,,,,,,2016_Aug_20_1210,P5,PLC_L_D2S1,NHGX,60.0271520842,
stim/posf.jpg,stim/negf.jpg,stim/5.jpg,stim/1.jpg,stim/latef.jpg,EF,2,4,,,,,0,17,17,50,,,,,,,,,,,,,,4,1,0.616462402069,,,,,,2016_Aug_20_1210,P5,PLC_L_D2S1,NHGX,60.0271520842,
stim/posf.jpg,stim/negf.jpg,stim/5.jpg,stim/1.jpg,stim/latef.jpg,EF,2,4,,,,,0,18,18,55,,,,,,,,,,,,,,4,1,0.533148021834,,,,,,2016_Aug_20_1210,P5,PLC_L_D2S1,NHGX,60.0271520842,
stim/posf.jpg,stim/negf.jpg,stim/6.jpg,stim/4.jpg,stim/latef.jpg,CD,1,2,,,,,0,19,19,23,,,,,,,,,,,,,,2,1,0.598802661614,,,,,,2016_Aug_20_1210,P5,PLC_L_D2S1,NHGX,60.0271520842,
stim/negf.jpg,stim/posf.jpg,stim/1.jpg,stim/5.jpg,stim/latef.jpg,EF,1,2,,,,,0,20,20,49,,,,,,,,,,,,,,2,1,0.783093045217,,,,,,2016_Aug_20_1210,P5,PLC_L_D2S1,NHGX,60.0271520842,
stim/posf.jpg,stim/negf.jpg,stim/1.jpg,stim/5.jpg,stim/latef.jpg,EF,1,2,,,,,0,21,21,45,,,,,,,,,,,,,,2,1,0.549817139592,,,,,,2016_Aug_20_1210,P5,PLC_L_D2S1,NHGX,60.0271520842,
stim/negf.jpg,stim/posf.jpg,stim/3.jpg,stim/2.jpg,stim/latef.jpg,AB,2,4,,,,,0,22,22,18,,,,,,,,,,,,,,4,1,0.683149618803,,,,,,2016_Aug_20_1210,P5,PLC_L_D2S1,NHGX,60.0271520842,
stim/negf.jpg,stim/posf.jpg,stim/2.jpg,stim/3.jpg,stim/latef.jpg,AB,1,2,,,,,0,23,23,9,,,,,,,,,,,,,,2,1,0.649781825837,,,,,,2016_Aug_20_1210,P5,PLC_L_D2S1,NHGX,60.0271520842,
stim/posf.jpg,stim/negf.jpg,stim/2.jpg,stim/3.jpg,stim/latef.jpg,AB,1,2,,,,,0,24,24,1,,,,,,,,,,,,,,2,1,0.633104166855,,,,,,2016_Aug_20_1210,P5,PLC_L_D2S1,NHGX,60.0271520842,
stim/posf.jpg,stim/negf.jpg,stim/3.jpg,stim/2.jpg,stim/latef.jpg,AB,2,4,,,,,0,25,25,12,,,,,,,,,,,,,,4,1,0.533233476188,,,,,,2016_Aug_20_1210,P5,PLC_L_D2S1,NHGX,60.0271520842,
stim/posf.jpg,stim/negf.jpg,stim/2.jpg,stim/3.jpg,stim/latef.jpg,AB,1,2,,,,,0,26,26,7,,,,,,,,,,,,,,2,1,0.499839635494,,,,,,2016_Aug_20_1210,P5,PLC_L_D2S1,NHGX,60.0271520842,
stim/negf.jpg,stim/posf.jpg,stim/6.jpg,stim/4.jpg,stim/latef.jpg,CD,1,2,,,,,0,27,27,29,,,,,,,,,,,,,,2,1,0.816385085939,,,,,,2016_Aug_20_1210,P5,PLC_L_D2S1,NHGX,60.0271520842,
stim/negf.jpg,stim/posf.jpg,stim/5.jpg,stim/1.jpg,stim/latef.jpg,EF,2,4,,,,,0,28,28,56,,,,,,,,,,,,,,4,1,0.899655268342,,,,,,2016_Aug_20_1210,P5,PLC_L_D2S1,NHGX,60.0271520842,
stim/posf.jpg,stim/negf.jpg,stim/1.jpg,stim/5.jpg,stim/latef.jpg,EF,1,2,,,,,0,29,29,40,,,,,,,,,,,,,,2,1,0.716338061082,,,,,,2016_Aug_20_1210,P5,PLC_L_D2S1,NHGX,60.0271520842,
stim/posf.jpg,stim/negf.jpg,stim/3.jpg,stim/2.jpg,stim/latef.jpg,AB,2,4,,,,,0,30,30,13,,,,,,,,,,,,,,4,1,0.616464393016,,,,,,2016_Aug_20_1210,P5,PLC_L_D2S1,NHGX,60.0271520842,
stim/negf.jpg,stim/posf.jpg,stim/4.jpg,stim/6.jpg,stim/latef.jpg,CD,2,4,,,,,0,31,31,38,,,,,,,,,,,,,,4,1,0.599766150885,,,,,,2016_Aug_20_1210,P5,PLC_L_D2S1,NHGX,60.0271520842,
stim/negf.jpg,stim/posf.jpg,stim/1.jpg,stim/5.jpg,stim/latef.jpg,EF,1,2,,,,,0,32,32,48,,,,,,,,,,,,,,2,1,0.982990418189,,,,,,2016_Aug_20_1210,P5,PLC_L_D2S1,NHGX,60.0271520842,
stim/posf.jpg,stim/negf.jpg,stim/5.jpg,stim/1.jpg,stim/latef.jpg,EF,2,4,,,,,0,33,33,53,,,,,,,,,,,,,,4,1,0.933025783071,,,,,,2016_Aug_20_1210,P5,PLC_L_D2S1,NHGX,60.0271520842,
stim/posf.jpg,stim/negf.jpg,stim/3.jpg,stim/2.jpg,stim/latef.jpg,AB,2,4,,,,,0,34,34,14,,,,,,,,,,,,,,4,1,0.549798174463,,,,,,2016_Aug_20_1210,P5,PLC_L_D2S1,NHGX,60.0271520842,
stim/negf.jpg,stim/posf.jpg,stim/1.jpg,stim/5.jpg,stim/latef.jpg,EF,1,2,,,,,0,35,35,47,,,,,,,,,,,,,,2,1,0.583116058405,,,,,,2016_Aug_20_1210,P5,PLC_L_D2S1,NHGX,60.0271520842,
stim/posf.jpg,stim/negf.jpg,stim/1.jpg,stim/5.jpg,stim/latef.jpg,EF,1,2,,,,,0,36,36,44,,,,,,,,,,,,,,2,1,0.549807323198,,,,,,2016_Aug_20_1210,P5,PLC_L_D2S1,NHGX,60.0271520842,
stim/posf.jpg,stim/negf.jpg,stim/1.jpg,stim/5.jpg,stim/latef.jpg,EF,1,2,,,,,0,37,37,43,,,,,,,,,,,,,,2,1,0.499818565134,,,,,,2016_Aug_20_1210,P5,PLC_L_D2S1,NHGX,60.0271520842,
stim/negf.jpg,stim/posf.jpg,stim/5.jpg,stim/1.jpg,stim/latef.jpg,EF,2,4,,,,,0,38,38,58,,,,,,,,,,,,,,4,1,0.566469842559,,,,,,2016_Aug_20_1210,P5,PLC_L_D2S1,NHGX,60.0271520842,
stim/posf.jpg,stim/negf.jpg,stim/4.jpg,stim/6.jpg,stim/latef.jpg,CD,2,4,,,,,0,39,39,33,,,,,,,,,,,,,,4,1,0.583122728982,,,,,,2016_Aug_20_1210,P5,PLC_L_D2S1,NHGX,60.0271520842,
stim/posf.jpg,stim/negf.jpg,stim/2.jpg,stim/3.jpg,stim/latef.jpg,AB,1,2,,,,,0,40,40,5,,,,,,,,,,,,,,2,1,0.583134593465,,,,,,2016_Aug_20_1210,P5,PLC_L_D2S1,NHGX,60.0271520842,
stim/negf.jpg,stim/posf.jpg,stim/4.jpg,stim/6.jpg,stim/latef.jpg,CD,2,4,,,,,0,41,41,37,,,,,,,,,,,,,,4,1,0.466495646682,,,,,,2016_Aug_20_1210,P5,PLC_L_D2S1,NHGX,60.0271520842,
stim/posf.jpg,stim/negf.jpg,stim/3.jpg,stim/2.jpg,stim/latef.jpg,AB,2,4,,,,,0,42,42,17,,,,,,,,,,,,,,4,1,0.549833226568,,,,,,2016_Aug_20_1210,P5,PLC_L_D2S1,NHGX,60.0271520842,
stim/posf.jpg,stim/negf.jpg,stim/4.jpg,stim/6.jpg,stim/latef.jpg,CD,2,4,,,,,0,43,43,35,,,,,,,,,,,,,,4,1,0.716434086706,,,,,,2016_Aug_20_1210,P5,PLC_L_D2S1,NHGX,60.0271520842,
stim/negf.jpg,stim/posf.jpg,stim/5.jpg,stim/1.jpg,stim/latef.jpg,EF,2,4,,,,,0,44,44,57,,,,,,,,,,,,,,4,1,0.666460017143,,,,,,2016_Aug_20_1210,P5,PLC_L_D2S1,NHGX,60.0271520842,
stim/posf.jpg,stim/negf.jpg,stim/6.jpg,stim/4.jpg,stim/latef.jpg,CD,1,2,,,,,0,45,45,24,,,,,,,,,,,,,,2,1,0.73308259124,,,,,,2016_Aug_20_1210,P5,PLC_L_D2S1,NHGX,60.0271520842,
stim/posf.jpg,stim/negf.jpg,stim/6.jpg,stim/4.jpg,stim/latef.jpg,CD,1,2,,,,,0,46,46,25,,,,,,,,,,,,,,2,1,0.499815073458,,,,,,2016_Aug_20_1210,P5,PLC_L_D2S1,NHGX,60.0271520842,
stim/posf.jpg,stim/negf.jpg,stim/2.jpg,stim/3.jpg,stim/latef.jpg,AB,1,2,,,,,0,47,47,0,,,,,,,,,,,,,,2,1,0.549809377302,,,,,,2016_Aug_20_1210,P5,PLC_L_D2S1,NHGX,60.0271520842,
stim/posf.jpg,stim/negf.jpg,stim/2.jpg,stim/3.jpg,stim/latef.jpg,AB,1,2,,,,,0,48,48,3,,,,,,,,,,,,,,2,1,0.383208829942,,,,,,2016_Aug_20_1210,P5,PLC_L_D2S1,NHGX,60.0271520842,
stim/posf.jpg,stim/negf.jpg,stim/1.jpg,stim/5.jpg,stim/latef.jpg,EF,1,2,,,,,0,49,49,41,,,,,,,,,,,,,,2,1,0.783030757432,,,,,,2016_Aug_20_1210,P5,PLC_L_D2S1,NHGX,60.0271520842,
stim/posf.jpg,stim/negf.jpg,stim/5.jpg,stim/1.jpg,stim/latef.jpg,EF,2,4,,,,,0,50,50,52,,,,,,,,,,,,,,4,1,0.516496452685,,,,,,2016_Aug_20_1210,P5,PLC_L_D2S1,NHGX,60.0271520842,
stim/posf.jpg,stim/negf.jpg,stim/4.jpg,stim/6.jpg,stim/latef.jpg,CD,2,4,,,,,0,51,51,36,,,,,,,,,,,,,,4,1,0.716415235861,,,,,,2016_Aug_20_1210,P5,PLC_L_D2S1,NHGX,60.0271520842,
stim/posf.jpg,stim/negf.jpg,stim/3.jpg,stim/2.jpg,stim/latef.jpg,AB,2,4,,,,,0,52,52,15,,,,,,,,,,,,,,4,1,0.549774980827,,,,,,2016_Aug_20_1210,P5,PLC_L_D2S1,NHGX,60.0271520842,
stim/negf.jpg,stim/posf.jpg,stim/2.jpg,stim/3.jpg,stim/latef.jpg,AB,1,2,,,,,0,53,53,8,,,,,,,,,,,,,,2,1,0.58313130329,,,,,,2016_Aug_20_1210,P5,PLC_L_D2S1,NHGX,60.0271520842,
stim/posf.jpg,stim/negf.jpg,stim/3.jpg,stim/2.jpg,stim/latef.jpg,AB,2,4,,,,,0,54,54,11,,,,,,,,,,,,,,4,1,0.43318639419,,,,,,2016_Aug_20_1210,P5,PLC_L_D2S1,NHGX,60.0271520842,
stim/negf.jpg,stim/posf.jpg,stim/5.jpg,stim/1.jpg,stim/latef.jpg,EF,2,4,,,,,0,55,55,59,,,,,,,,,,,,,,4,1,0.466492070796,,,,,,2016_Aug_20_1210,P5,PLC_L_D2S1,NHGX,60.0271520842,
stim/posf.jpg,stim/negf.jpg,stim/4.jpg,stim/6.jpg,stim/latef.jpg,CD,2,4,,,,,0,56,56,30,,,,,,,,,,,,,,4,1,0.416520846304,,,,,,2016_Aug_20_1210,P5,PLC_L_D2S1,NHGX,60.0271520842,
stim/posf.jpg,stim/negf.jpg,stim/2.jpg,stim/3.jpg,stim/latef.jpg,AB,1,2,,,,,0,57,57,2,,,,,,,,,,,,,,2,1,0.583145591796,,,,,,2016_Aug_20_1210,P5,PLC_L_D2S1,NHGX,60.0271520842,
stim/negf.jpg,stim/posf.jpg,stim/6.jpg,stim/4.jpg,stim/latef.jpg,CD,1,2,,,,,0,58,58,28,,,,,,,,,,,,,,2,1,0.849669451587,,,,,,2016_Aug_20_1210,P5,PLC_L_D2S1,NHGX,60.0271520842,
stim/posf.jpg,stim/negf.jpg,stim/6.jpg,stim/4.jpg,stim/latef.jpg,CD,1,2,,,,,0,59,59,20,,,,,,,,,,,,,,2,1,0.799700762394,,,,,,2016_Aug_20_1210,P5,PLC_L_D2S1,NHGX,60.0271520842,
,,,,,,,,,,,,,,,,,,,,,,,,,,,,,,,,0.8828125,0.771484375,1,0,0,2016_Aug_20_1210,P5,PLC_L_D2S1,NHGX,60.0271520842,
stim/negf.jpg,stim/posf.jpg,stim/6.jpg,stim/4.jpg,stim/latef.jpg,CD,1,2,,,,,,,,,0,0,0,28,,,,,,,,,,2,1,0.766387013728,,,,,,2016_Aug_20_1210,P5,PLC_L_D2S1,NHGX,60.0271520842,
stim/posf.jpg,stim/negf.jpg,stim/2.jpg,stim/3.jpg,stim/latef.jpg,AB,1,2,,,,,,,,,0,1,1,5,,,,,,,,,,2,1,0.516435930287,,,,,,2016_Aug_20_1210,P5,PLC_L_D2S1,NHGX,60.0271520842,
stim/posf.jpg,stim/negf.jpg,stim/1.jpg,stim/5.jpg,stim/latef.jpg,EF,1,2,,,,,,,,,0,2,2,43,,,,,,,,,,2,1,0.583132936347,,,,,,2016_Aug_20_1210,P5,PLC_L_D2S1,NHGX,60.0271520842,
stim/posf.jpg,stim/negf.jpg,stim/6.jpg,stim/4.jpg,stim/latef.jpg,CD,1,2,,,,,,,,,0,3,3,20,,,,,,,,,,2,1,0.549827996571,,,,,,2016_Aug_20_1210,P5,PLC_L_D2S1,NHGX,60.0271520842,
stim/posf.jpg,stim/negf.jpg,stim/3.jpg,stim/2.jpg,stim/latef.jpg,AB,2,4,,,,,,,,,0,4,4,11,,,,,,,,,,4,1,0.766416829822,,,,,,2016_Aug_20_1210,P5,PLC_L_D2S1,NHGX,60.0271520842,
stim/posf.jpg,stim/negf.jpg,stim/2.jpg,stim/3.jpg,stim/latef.jpg,AB,1,2,,,,,,,,,0,5,5,1,,,,,,,,,,2,1,0.616471731252,,,,,,2016_Aug_20_1210,P5,PLC_L_D2S1,NHGX,60.0271520842,
stim/posf.jpg,stim/negf.jpg,stim/4.jpg,stim/6.jpg,stim/latef.jpg,CD,2,4,,,,,,,,,0,6,6,34,,,,,,,,,,4,1,0.649759787071,,,,,,2016_Aug_20_1210,P5,PLC_L_D2S1,NHGX,60.0271520842,
stim/posf.jpg,stim/negf.jpg,stim/5.jpg,stim/1.jpg,stim/latef.jpg,EF,2,4,,,,,,,,,0,7,7,54,,,,,,,,,,4,1,0.949658808138,,,,,,2016_Aug_20_1210,P5,PLC_L_D2S1,NHGX,60.0271520842,
stim/posf.jpg,stim/negf.jpg,stim/5.jpg,stim/1.jpg,stim/latef.jpg,EF,2,4,,,,,,,,,0,8,8,53,,,,,,,,,,4,1,0.79974227756,,,,,,2016_Aug_20_1210,P5,PLC_L_D2S1,NHGX,60.0271520842,
stim/posf.jpg,stim/negf.jpg,stim/3.jpg,stim/2.jpg,stim/latef.jpg,AB,2,4,,,,,,,,,0,9,9,12,,,,,,,,,,4,1,0.883041978316,,,,,,2016_Aug_20_1210,P5,PLC_L_D2S1,NHGX,60.0271520842,
stim/posf.jpg,stim/negf.jpg,stim/1.jpg,stim/5.jpg,stim/latef.jpg,EF,1,2,,,,,,,,,0,10,10,44,,,,,,,,,,2,1,0.649775579314,,,,,,2016_Aug_20_1210,P5,PLC_L_D2S1,NHGX,60.0271520842,
stim/posf.jpg,stim/negf.jpg,stim/4.jpg,stim/6.jpg,stim/latef.jpg,CD,2,4,,,,,,,,,0,11,11,33,,,,,,,,,,4,1,0.849700004511,,,,,,2016_Aug_20_1210,P5,PLC_L_D2S1,NHGX,60.0271520842,
stim/negf.jpg,stim/posf.jpg,stim/1.jpg,stim/5.jpg,stim/latef.jpg,EF,1,2,,,,,,,,,0,12,12,49,,,,,,,,,,2,1,0.699819978647,,,,,,2016_Aug_20_1210,P5,PLC_L_D2S1,NHGX,60.0271520842,
stim/posf.jpg,stim/negf.jpg,stim/3.jpg,stim/2.jpg,stim/latef.jpg,AB,2,4,,,,,,,,,0,13,13,10,,,,,,,,,,4,1,0.566472597405,,,,,,2016_Aug_20_1210,P5,PLC_L_D2S1,NHGX,60.0271520842,
stim/negf.jpg,stim/posf.jpg,stim/5.jpg,stim/1.jpg,stim/latef.jpg,EF,2,4,,,,,,,,,0,14,14,59,,,,,,,,,,4,1,0.649779678501,,,,,,2016_Aug_20_1210,P5,PLC_L_D2S1,NHGX,60.0271520842,
stim/negf.jpg,stim/posf.jpg,stim/3.jpg,stim/2.jpg,stim/latef.jpg,AB,2,4,,,,,,,,,0,15,15,19,,,,,,,,,,4,1,0.483129697298,,,,,,2016_Aug_20_1210,P5,PLC_L_D2S1,NHGX,60.0271520842,
stim/posf.jpg,stim/negf.jpg,stim/3.jpg,stim/2.jpg,stim/latef.jpg,AB,2,4,,,,,,,,,0,16,16,13,,,,,,,,,,4,1,0.483152505977,,,,,,2016_Aug_20_1210,P5,PLC_L_D2S1,NHGX,60.0271520842,
stim/posf.jpg,stim/negf.jpg,stim/4.jpg,stim/6.jpg,stim/latef.jpg,CD,2,4,,,,,,,,,0,17,17,30,,,,,,,,,,4,1,0.666415398265,,,,,,2016_Aug_20_1210,P5,PLC_L_D2S1,NHGX,60.0271520842,
stim/negf.jpg,stim/posf.jpg,stim/4.jpg,stim/6.jpg,stim/latef.jpg,CD,2,4,,,,,,,,,0,18,18,39,,,,,,,,,,4,1,0.599779985263,,,,,,2016_Aug_20_1210,P5,PLC_L_D2S1,NHGX,60.0271520842,
stim/posf.jpg,stim/negf.jpg,stim/6.jpg,stim/4.jpg,stim/latef.jpg,CD,1,2,,,,,,,,,0,19,19,22,,,,,,,,,,2,1,0.649807085608,,,,,,2016_Aug_20_1210,P5,PLC_L_D2S1,NHGX,60.0271520842,
stim/posf.jpg,stim/negf.jpg,stim/4.jpg,stim/6.jpg,stim/latef.jpg,CD,2,4,,,,,,,,,0,20,20,31,,,,,,,,,,4,1,0.53317434625,,,,,,2016_Aug_20_1210,P5,PLC_L_D2S1,NHGX,60.0271520842,
stim/posf.jpg,stim/negf.jpg,stim/4.jpg,stim/6.jpg,stim/latef.jpg,CD,2,4,,,,,,,,,0,21,21,35,,,,,,,,,,4,1,0.59979971429,,,,,,2016_Aug_20_1210,P5,PLC_L_D2S1,NHGX,60.0271520842,
stim/posf.jpg,stim/negf.jpg,stim/1.jpg,stim/5.jpg,stim/latef.jpg,EF,1,2,,,,,,,,,0,22,22,41,,,,,,,,,,2,1,0.716357738982,,,,,,2016_Aug_20_1210,P5,PLC_L_D2S1,NHGX,60.0271520842,
stim/posf.jpg,stim/negf.jpg,stim/6.jpg,stim/4.jpg,stim/latef.jpg,CD,1,2,,,,,,,,,0,23,23,25,,,,,,,,,,2,1,0.533212760711,,,,,,2016_Aug_20_1210,P5,PLC_L_D2S1,NHGX,60.0271520842,
stim/posf.jpg,stim/negf.jpg,stim/2.jpg,stim/3.jpg,stim/latef.jpg,AB,1,2,,,,,,,,,0,24,24,4,,,,,,,,,,2,1,0.549833220553,,,,,,2016_Aug_20_1210,P5,PLC_L_D2S1,NHGX,60.0271520842,
stim/posf.jpg,stim/negf.jpg,stim/2.jpg,stim/3.jpg,stim/latef.jpg,AB,1,2,,,,,,,,,0,25,25,7,,,,,,,,,,2,1,0.499898930842,,,,,,2016_Aug_20_1210,P5,PLC_L_D2S1,NHGX,60.0271520842,
stim/posf.jpg,stim/negf.jpg,stim/6.jpg,stim/4.jpg,stim/latef.jpg,CD,1,2,,,,,,,,,0,26,26,23,,,,,,,,,,2,1,0.583172659058,,,,,,2016_Aug_20_1210,P5,PLC_L_D2S1,NHGX,60.0271520842,
stim/posf.jpg,stim/negf.jpg,stim/4.jpg,stim/6.jpg,stim/latef.jpg,CD,2,4,,,,,,,,,0,27,27,32,,,,,,,,,,4,1,0.633080248418,,,,,,2016_Aug_20_1210,P5,PLC_L_D2S1,NHGX,60.0271520842,
stim/posf.jpg,stim/negf.jpg,stim/2.jpg,stim/3.jpg,stim/latef.jpg,AB,1,2,,,,,,,,,0,28,28,6,,,,,,,,,,2,1,0.583135447587,,,,,,2016_Aug_20_1210,P5,PLC_L_D2S1,NHGX,60.0271520842,
stim/posf.jpg,stim/negf.jpg,stim/2.jpg,stim/3.jpg,stim/latef.jpg,AB,1,2,,,,,,,,,0,29,29,0,,,,,,,,,,2,1,0.44983010481,,,,,,2016_Aug_20_1210,P5,PLC_L_D2S1,NHGX,60.0271520842,
stim/posf.jpg,stim/negf.jpg,stim/6.jpg,stim/4.jpg,stim/latef.jpg,CD,1,2,,,,,,,,,0,30,30,24,,,,,,,,,,2,1,0.49983414084,,,,,,2016_Aug_20_1210,P5,PLC_L_D2S1,NHGX,60.0271520842,
stim/negf.jpg,stim/posf.jpg,stim/2.jpg,stim/3.jpg,stim/latef.jpg,AB,1,2,,,,,,,,,0,31,31,9,,,,,,,,,,2,1,0.533157687853,,,,,,2016_Aug_20_1210,P5,PLC_L_D2S1,NHGX,60.0271520842,
stim/negf.jpg,stim/posf.jpg,stim/6.jpg,stim/4.jpg,stim/latef.jpg,CD,1,2,,,,,,,,,0,32,32,27,,,,,,,,,,2,1,0.616461668245,,,,,,2016_Aug_20_1210,P5,PLC_L_D2S1,NHGX,60.0271520842,
stim/negf.jpg,stim/posf.jpg,stim/3.jpg,stim/2.jpg,stim/latef.jpg,AB,2,4,,,,,,,,,0,33,33,18,,,,,,,,,,4,1,0.73307715072,,,,,,2016_Aug_20_1210,P5,PLC_L_D2S1,NHGX,60.0271520842,
stim/negf.jpg,stim/posf.jpg,stim/4.jpg,stim/6.jpg,stim/latef.jpg,CD,2,4,,,,,,,,,0,34,34,38,,,,,,,,,,4,1,0.766410243455,,,,,,2016_Aug_20_1210,P5,PLC_L_D2S1,NHGX,60.0271520842,
stim/posf.jpg,stim/negf.jpg,stim/5.jpg,stim/1.jpg,stim/latef.jpg,EF,2,4,,,,,,,,,0,35,35,55,,,,,,,,,,4,1,0.683107634472,,,,,,2016_Aug_20_1210,P5,PLC_L_D2S1,NHGX,60.0271520842,
stim/posf.jpg,stim/negf.jpg,stim/3.jpg,stim/2.jpg,stim/latef.jpg,AB,2,4,,,,,,,,,0,36,36,16,,,,,,,,,,4,1,0.566419545571,,,,,,2016_Aug_20_1210,P5,PLC_L_D2S1,NHGX,60.0271520842,
stim/negf.jpg,stim/posf.jpg,stim/1.jpg,stim/5.jpg,stim/latef.jpg,EF,1,2,,,,,,,,,0,37,37,47,,,,,,,,,,2,1,0.633007969805,,,,,,2016_Aug_20_1210,P5,PLC_L_D2S1,NHGX,60.0271520842,
stim/posf.jpg,stim/negf.jpg,stim/6.jpg,stim/4.jpg,stim/latef.jpg,CD,1,2,,,,,,,,,0,38,38,26,,,,,,,,,,2,1,0.816396854183,,,,,,2016_Aug_20_1210,P5,PLC_L_D2S1,NHGX,60.0271520842,
stim/posf.jpg,stim/negf.jpg,stim/1.jpg,stim/5.jpg,stim/latef.jpg,EF,1,2,,,,,,,,,0,39,39,42,,,,,,,,,,2,1,0.733091595614,,,,,,2016_Aug_20_1210,P5,PLC_L_D2S1,NHGX,60.0271520842,
stim/negf.jpg,stim/posf.jpg,stim/2.jpg,stim/3.jpg,stim/latef.jpg,AB,1,2,,,,,,,,,0,40,40,8,,,,,,,,,,2,1,0.649794276777,,,,,,2016_Aug_20_1210,P5,PLC_L_D2S1,NHGX,60.0271520842,
stim/posf.jpg,stim/negf.jpg,stim/2.jpg,stim/3.jpg,stim/latef.jpg,AB,1,2,,,,,,,,,0,41,41,2,,,,,,,,,,2,1,0.483163570473,,,,,,2016_Aug_20_1210,P5,PLC_L_D2S1,NHGX,60.0271520842,
stim/posf.jpg,stim/negf.jpg,stim/1.jpg,stim/5.jpg,stim/latef.jpg,EF,1,2,,,,,,,,,0,42,42,45,,,,,,,,,,2,1,0.583101670652,,,,,,2016_Aug_20_1210,P5,PLC_L_D2S1,NHGX,60.0271520842,
stim/negf.jpg,stim/posf.jpg,stim/5.jpg,stim/1.jpg,stim/latef.jpg,EF,2,4,,,,,,,,,0,43,43,57,,,,,,,,,,4,1,0.616451361633,,,,,,2016_Aug_20_1210,P5,PLC_L_D2S1,NHGX,60.0271520842,
stim/negf.jpg,stim/posf.jpg,stim/6.jpg,stim/4.jpg,stim/latef.jpg,CD,1,2,,,,,,,,,0,44,44,29,,,,,,,,,,2,1,0.733101799973,,,,,,2016_Aug_20_1210,P5,PLC_L_D2S1,NHGX,60.0271520842,
stim/posf.jpg,stim/negf.jpg,stim/1.jpg,stim/5.jpg,stim/latef.jpg,EF,1,2,,,,,,,,,0,45,45,40,,,,,,,,,,2,1,0.68310149321,,,,,,2016_Aug_20_1210,P5,PLC_L_D2S1,NHGX,60.0271520842,
stim/posf.jpg,stim/negf.jpg,stim/2.jpg,stim/3.jpg,stim/latef.jpg,AB,1,2,,,,,,,,,0,46,46,3,,,,,,,,,,2,1,0.516499312792,,,,,,2016_Aug_20_1210,P5,PLC_L_D2S1,NHGX,60.0271520842,
stim/posf.jpg,stim/negf.jpg,stim/5.jpg,stim/1.jpg,stim/latef.jpg,EF,2,4,,,,,,,,,0,47,47,51,,,,,,,,,,4,1,0.666453114991,,,,,,2016_Aug_20_1210,P5,PLC_L_D2S1,NHGX,60.0271520842,
stim/posf.jpg,stim/negf.jpg,stim/4.jpg,stim/6.jpg,stim/latef.jpg,CD,2,4,,,,,,,,,0,48,48,36,,,,,,,,,,4,1,0.599804411963,,,,,,2016_Aug_20_1210,P5,PLC_L_D2S1,NHGX,60.0271520842,
stim/negf.jpg,stim/posf.jpg,stim/5.jpg,stim/1.jpg,stim/latef.jpg,EF,2,4,,,,,,,,,0,49,49,56,,,,,,,,,,4,1,0.633091502383,,,,,,2016_Aug_20_1210,P5,PLC_L_D2S1,NHGX,60.0271520842,
stim/negf.jpg,stim/posf.jpg,stim/1.jpg,stim/5.jpg,stim/latef.jpg,EF,1,2,,,,,,,,,0,50,50,46,,,,,,,,,,2,1,0.666502317258,,,,,,2016_Aug_20_1210,P5,PLC_L_D2S1,NHGX,60.0271520842,
stim/posf.jpg,stim/negf.jpg,stim/3.jpg,stim/2.jpg,stim/latef.jpg,AB,2,4,,,,,,,,,0,51,51,17,,,,,,,,,,4,1,0.683088648291,,,,,,2016_Aug_20_1210,P5,PLC_L_D2S1,NHGX,60.0271520842,
stim/posf.jpg,stim/negf.jpg,stim/5.jpg,stim/1.jpg,stim/latef.jpg,EF,2,4,,,,,,,,,0,52,52,52,,,,,,,,,,4,1,0.583140545255,,,,,,2016_Aug_20_1210,P5,PLC_L_D2S1,NHGX,60.0271520842,
stim/negf.jpg,stim/posf.jpg,stim/5.jpg,stim/1.jpg,stim/latef.jpg,EF,2,4,,,,,,,,,0,53,53,58,,,,,,,,,,4,1,0.749768827537,,,,,,2016_Aug_20_1210,P5,PLC_L_D2S1,NHGX,60.0271520842,
stim/posf.jpg,stim/negf.jpg,stim/3.jpg,stim/2.jpg,stim/latef.jpg,AB,2,4,,,,,,,,,0,54,54,14,,,,,,,,,,4,1,0.415491234719,,,,,,2016_Aug_20_1210,P5,PLC_L_D2S1,NHGX,60.0271520842,
stim/negf.jpg,stim/posf.jpg,stim/4.jpg,stim/6.jpg,stim/latef.jpg,CD,2,4,,,,,,,,,0,55,55,37,,,,,,,,,,4,1,0.533122172599,,,,,,2016_Aug_20_1210,P5,PLC_L_D2S1,NHGX,60.0271520842,
stim/negf.jpg,stim/posf.jpg,stim/1.jpg,stim/5.jpg,stim/latef.jpg,EF,1,2,,,,,,,,,0,56,56,48,,,,,,,,,,2,1,0.849716262914,,,,,,2016_Aug_20_1210,P5,PLC_L_D2S1,NHGX,60.0271520842,
stim/posf.jpg,stim/negf.jpg,stim/5.jpg,stim/1.jpg,stim/latef.jpg,EF,2,4,,,,,,,,,0,57,57,50,,,,,,,,,,4,1,0.633118789191,,,,,,2016_Aug_20_1210,P5,PLC_L_D2S1,NHGX,60.0271520842,
stim/posf.jpg,stim/negf.jpg,stim/6.jpg,stim/4.jpg,stim/latef.jpg,CD,1,2,,,,,,,,,0,58,58,21,,,,,,,,,,2,1,0.716413187772,,,,,,2016_Aug_20_1210,P5,PLC_L_D2S1,NHGX,60.0271520842,
stim/posf.jpg,stim/negf.jpg,stim/3.jpg,stim/2.jpg,stim/latef.jpg,AB,2,4,,,,,,,,,0,59,59,15,,,,,,,,,,4,1,0.516463605059,,,,,,2016_Aug_20_1210,P5,PLC_L_D2S1,NHGX,60.0271520842,
,,,,,,,,,,,,,,,,,,,,,,,,,,,,,,,,0.775,0.69140625,1,0,0,2016_Aug_20_1210,P5,PLC_L_D2S1,NHGX,60.0271520842,
stim/negf.jpg,stim/posf.jpg,stim/6.jpg,stim/4.jpg,stim/latef.jpg,CD,1,2,,,,,,,,,,,,,0,0,0,28,,,,,,2,1,0.633115270447,,,,,,2016_Aug_20_1210,P5,PLC_L_D2S1,NHGX,60.0271520842,
stim/negf.jpg,stim/posf.jpg,stim/3.jpg,stim/2.jpg,stim/latef.jpg,AB,2,4,,,,,,,,,,,,,0,1,1,19,,,,,,4,1,0.583122407182,,,,,,2016_Aug_20_1210,P5,PLC_L_D2S1,NHGX,60.0271520842,
stim/negf.jpg,stim/posf.jpg,stim/1.jpg,stim/5.jpg,stim/latef.jpg,EF,1,2,,,,,,,,,,,,,0,2,2,49,,,,,,2,1,0.499830342402,,,,,,2016_Aug_20_1210,P5,PLC_L_D2S1,NHGX,60.0271520842,
stim/posf.jpg,stim/negf.jpg,stim/4.jpg,stim/6.jpg,stim/latef.jpg,CD,2,4,,,,,,,,,,,,,0,3,3,33,,,,,,4,1,0.583126473286,,,,,,2016_Aug_20_1210,P5,PLC_L_D2S1,NHGX,60.0271520842,
stim/negf.jpg,stim/posf.jpg,stim/1.jpg,stim/5.jpg,stim/latef.jpg,EF,1,2,,,,,,,,,,,,,0,4,4,48,,,,,,2,1,0.616426646216,,,,,,2016_Aug_20_1210,P5,PLC_L_D2S1,NHGX,60.0271520842,
stim/posf.jpg,stim/negf.jpg,stim/1.jpg,stim/5.jpg,stim/latef.jpg,EF,1,2,,,,,,,,,,,,,0,5,5,40,,,,,,2,1,0.69981105848,,,,,,2016_Aug_20_1210,P5,PLC_L_D2S1,NHGX,60.0271520842,
stim/posf.jpg,stim/negf.jpg,stim/1.jpg,stim/5.jpg,stim/latef.jpg,EF,1,2,,,,,,,,,,,,,0,6,6,45,,,,,,2,1,0.599800989459,,,,,,2016_Aug_20_1210,P5,PLC_L_D2S1,NHGX,60.0271520842,
stim/negf.jpg,stim/posf.jpg,stim/1.jpg,stim/5.jpg,stim/latef.jpg,EF,1,2,,,,,,,,,,,,,0,7,7,47,,,,,,2,1,0.433196093291,,,,,,2016_Aug_20_1210,P5,PLC_L_D2S1,NHGX,60.0271520842,
stim/posf.jpg,stim/negf.jpg,stim/2.jpg,stim/3.jpg,stim/latef.jpg,AB,1,2,,,,,,,,,,,,,0,8,8,0,,,,,,2,1,0.766389413693,,,,,,2016_Aug_20_1210,P5,PLC_L_D2S1,NHGX,60.0271520842,
stim/posf.jpg,stim/negf.jpg,stim/6.jpg,stim/4.jpg,stim/latef.jpg,CD,1,2,,,,,,,,,,,,,0,9,9,23,,,,,,2,1,0.816372803417,,,,,,2016_Aug_20_1210,P5,PLC_L_D2S1,NHGX,60.0271520842,
stim/posf.jpg,stim/negf.jpg,stim/5.jpg,stim/1.jpg,stim/latef.jpg,EF,2,4,,,,,,,,,,,,,0,10,10,52,,,,,,4,1,0.866372707177,,,,,,2016_Aug_20_1210,P5,PLC_L_D2S1,NHGX,60.0271520842,
stim/posf.jpg,stim/negf.jpg,stim/5.jpg,stim/1.jpg,stim/latef.jpg,EF,2,4,,,,,,,,,,,,,0,11,11,53,,,,,,4,1,0.648795849686,,,,,,2016_Aug_20_1210,P5,PLC_L_D2S1,NHGX,60.0271520842,
stim/posf.jpg,stim/negf.jpg,stim/4.jpg,stim/6.jpg,stim/latef.jpg,CD,2,4,,,,,,,,,,,,,0,12,12,30,,,,,,4,1,0.649771456068,,,,,,2016_Aug_20_1210,P5,PLC_L_D2S1,NHGX,60.0271520842,
stim/negf.jpg,stim/posf.jpg,stim/5.jpg,stim/1.jpg,stim/latef.jpg,EF,2,4,,,,,,,,,,,,,0,13,13,57,,,,,,4,1,0.749758087848,,,,,,2016_Aug_20_1210,P5,PLC_L_D2S1,NHGX,60.0271520842,
stim/posf.jpg,stim/negf.jpg,stim/3.jpg,stim/2.jpg,stim/latef.jpg,AB,2,4,,,,,,,,,,,,,0,14,14,14,,,,,,4,1,0.583129889776,,,,,,2016_Aug_20_1210,P5,PLC_L_D2S1,NHGX,60.0271520842,
stim/posf.jpg,stim/negf.jpg,stim/1.jpg,stim/5.jpg,stim/latef.jpg,EF,1,2,,,,,,,,,,,,,0,15,15,44,,,,,,2,1,0.716333438595,,,,,,2016_Aug_20_1210,P5,PLC_L_D2S1,NHGX,60.0271520842,
stim/posf.jpg,stim/negf.jpg,stim/2.jpg,stim/3.jpg,stim/latef.jpg,AB,1,2,,,,,,,,,,,,,0,16,16,3,,,,,,2,1,0.633140650516,,,,,,2016_Aug_20_1210,P5,PLC_L_D2S1,NHGX,60.0271520842,
stim/negf.jpg,stim/posf.jpg,stim/5.jpg,stim/1.jpg,stim/latef.jpg,EF,2,4,,,,,,,,,,,,,0,17,17,59,,,,,,4,1,0.599767008015,,,,,,2016_Aug_20_1210,P5,PLC_L_D2S1,NHGX,60.0271520842,
stim/posf.jpg,stim/negf.jpg,stim/4.jpg,stim/6.jpg,stim/latef.jpg,CD,2,4,,,,,,,,,,,,,0,18,18,34,,,,,,4,1,0.599825584578,,,,,,2016_Aug_20_1210,P5,PLC_L_D2S1,NHGX,60.0271520842,
stim/posf.jpg,stim/negf.jpg,stim/2.jpg,stim/3.jpg,stim/latef.jpg,AB,1,2,,,,,,,,,,,,,0,19,19,4,,,,,,2,1,0.583176674036,,,,,,2016_Aug_20_1210,P5,PLC_L_D2S1,NHGX,60.0271520842,
stim/posf.jpg,stim/negf.jpg,stim/4.jpg,stim/6.jpg,stim/latef.jpg,CD,2,4,,,,,,,,,,,,,0,20,20,36,,,,,,4,1,0.53314875265,,,,,,2016_Aug_20_1210,P5,PLC_L_D2S1,NHGX,60.0271520842,
stim/posf.jpg,stim/negf.jpg,stim/1.jpg,stim/5.jpg,stim/latef.jpg,EF,1,2,,,,,,,,,,,,,0,21,21,41,,,,,,2,1,0.733060519391,,,,,,2016_Aug_20_1210,P5,PLC_L_D2S1,NHGX,60.0271520842,
stim/posf.jpg,stim/negf.jpg,stim/4.jpg,stim/6.jpg,stim/latef.jpg,CD,2,4,,,,,,,,,,,,,0,22,22,32,,,,,,4,1,0.56645097367,,,,,,2016_Aug_20_1210,P5,PLC_L_D2S1,NHGX,60.0271520842,
stim/posf.jpg,stim/negf.jpg,stim/6.jpg,stim/4.jpg,stim/latef.jpg,CD,1,2,,,,,,,,,,,,,0,23,23,25,,,,,,2,1,0.799684091969,,,,,,2016_Aug_20_1210,P5,PLC_L_D2S1,NHGX,60.0271520842,
stim/posf.jpg,stim/negf.jpg,stim/2.jpg,stim/3.jpg,stim/latef.jpg,AB,1,2,,,,,,,,,,,,,0,24,24,6,,,,,,2,1,0.616434862634,,,,,,2016_Aug_20_1210,P5,PLC_L_D2S1,NHGX,60.0271520842,
stim/negf.jpg,stim/posf.jpg,stim/5.jpg,stim/1.jpg,stim/latef.jpg,EF,2,4,,,,,,,,,,,,,0,25,25,58,,,,,,4,1,0.583136942301,,,,,,2016_Aug_20_1210,P5,PLC_L_D2S1,NHGX,60.0271520842,
stim/negf.jpg,stim/posf.jpg,stim/2.jpg,stim/3.jpg,stim/latef.jpg,AB,1,2,,,,,,,,,,,,,0,26,26,9,,,,,,2,1,0.533153985654,,,,,,2016_Aug_20_1210,P5,PLC_L_D2S1,NHGX,60.0271520842,
stim/negf.jpg,stim/posf.jpg,stim/6.jpg,stim/4.jpg,stim/latef.jpg,CD,1,2,,,,,,,,,,,,,0,27,27,27,,,,,,2,1,0.549722500414,,,,,,2016_Aug_20_1210,P5,PLC_L_D2S1,NHGX,60.0271520842,
stim/posf.jpg,stim/negf.jpg,stim/6.jpg,stim/4.jpg,stim/latef.jpg,CD,1,2,,,,,,,,,,,,,0,28,28,22,,,,,,2,1,0.516506581856,,,,,,2016_Aug_20_1210,P5,PLC_L_D2S1,NHGX,60.0271520842,
stim/posf.jpg,stim/negf.jpg,stim/5.jpg,stim/1.jpg,stim/latef.jpg,EF,2,4,,,,,,,,,,,,,0,29,29,55,,,,,,4,1,0.766417662892,,,,,,2016_Aug_20_1210,P5,PLC_L_D2S1,NHGX,60.0271520842,
stim/negf.jpg,stim/posf.jpg,stim/4.jpg,stim/6.jpg,stim/latef.jpg,CD,2,4,,,,,,,,,,,,,0,30,30,38,,,,,,4,1,0.649763916333,,,,,,2016_Aug_20_1210,P5,PLC_L_D2S1,NHGX,60.0271520842,
stim/posf.jpg,stim/negf.jpg,stim/6.jpg,stim/4.jpg,stim/latef.jpg,CD,1,2,,,,,,,,,,,,,0,31,31,24,,,,,,2,1,0.549819073398,,,,,,2016_Aug_20_1210,P5,PLC_L_D2S1,NHGX,60.0271520842,
stim/posf.jpg,stim/negf.jpg,stim/5.jpg,stim/1.jpg,stim/latef.jpg,EF,2,4,,,,,,,,,,,,,0,32,32,50,,,,,,4,1,0.599859181065,,,,,,2016_Aug_20_1210,P5,PLC_L_D2S1,NHGX,60.0271520842,
stim/posf.jpg,stim/negf.jpg,stim/3.jpg,stim/2.jpg,stim/latef.jpg,AB,2,4,,,,,,,,,,,,,0,33,33,11,,,,,,4,1,0.699745627885,,,,,,2016_Aug_20_1210,P5,PLC_L_D2S1,NHGX,60.0271520842,
stim/posf.jpg,stim/negf.jpg,stim/6.jpg,stim/4.jpg,stim/latef.jpg,CD,1,2,,,,,,,,,,,,,0,34,34,21,,,,,,2,1,0.866400631569,,,,,,2016_Aug_20_1210,P5,PLC_L_D2S1,NHGX,60.0271520842,
stim/posf.jpg,stim/negf.jpg,stim/3.jpg,stim/2.jpg,stim/latef.jpg,AB,2,4,,,,,,,,,,,,,0,35,35,10,,,,,,4,1,0.499831178479,,,,,,2016_Aug_20_1210,P5,PLC_L_D2S1,NHGX,60.0271520842,
stim/posf.jpg,stim/negf.jpg,stim/4.jpg,stim/6.jpg,stim/latef.jpg,CD,2,4,,,,,,,,,,,,,0,36,36,31,,,,,,4,1,0.982993879791,,,,,,2016_Aug_20_1210,P5,PLC_L_D2S1,NHGX,60.0271520842,
stim/negf.jpg,stim/posf.jpg,stim/4.jpg,stim/6.jpg,stim/latef.jpg,CD,2,4,,,,,,,,,,,,,0,37,37,37,,,,,,4,1,0.683094052721,,,,,,2016_Aug_20_1210,P5,PLC_L_D2S1,NHGX,60.0271520842,
stim/negf.jpg,stim/posf.jpg,stim/2.jpg,stim/3.jpg,stim/latef.jpg,AB,1,2,,,,,,,,,,,,,0,38,38,8,,,,,,2,1,0.633131985986,,,,,,2016_Aug_20_1210,P5,PLC_L_D2S1,NHGX,60.0271520842,
stim/posf.jpg,stim/negf.jpg,stim/3.jpg,stim/2.jpg,stim/latef.jpg,AB,2,4,,,,,,,,,,,,,0,39,39,12,,,,,,4,1,0.633139264071,,,,,,2016_Aug_20_1210,P5,PLC_L_D2S1,NHGX,60.0271520842,
stim/negf.jpg,stim/posf.jpg,stim/4.jpg,stim/6.jpg,stim/latef.jpg,CD,2,4,,,,,,,,,,,,,0,40,40,39,,,,,,4,1,0.566473319198,,,,,,2016_Aug_20_1210,P5,PLC_L_D2S1,NHGX,60.0271520842,
stim/posf.jpg,stim/negf.jpg,stim/4.jpg,stim/6.jpg,stim/latef.jpg,CD,2,4,,,,,,,,,,,,,0,41,41,35,,,,,,4,1,0.583223458294,,,,,,2016_Aug_20_1210,P5,PLC_L_D2S1,NHGX,60.0271520842,
stim/posf.jpg,stim/negf.jpg,stim/2.jpg,stim/3.jpg,stim/latef.jpg,AB,1,2,,,,,,,,,,,,,0,42,42,2,,,,,,2,1,0.616455614201,,,,,,2016_Aug_20_1210,P5,PLC_L_D2S1,NHGX,60.0271520842,
stim/posf.jpg,stim/negf.jpg,stim/2.jpg,stim/3.jpg,stim/latef.jpg,AB,1,2,,,,,,,,,,,,,0,43,43,7,,,,,,2,1,0.61647047112,,,,,,2016_Aug_20_1210,P5,PLC_L_D2S1,NHGX,60.0271520842,
stim/posf.jpg,stim/negf.jpg,stim/6.jpg,stim/4.jpg,stim/latef.jpg,CD,1,2,,,,,,,,,,,,,0,44,44,20,,,,,,2,1,1.18297664697,,,,,,2016_Aug_20_1210,P5,PLC_L_D2S1,NHGX,60.0271520842,
stim/posf.jpg,stim/negf.jpg,stim/2.jpg,stim/3.jpg,stim/latef.jpg,AB,1,2,,,,,,,,,,,,,0,45,45,1,,,,,,2,1,0.616504602938,,,,,,2016_Aug_20_1210,P5,PLC_L_D2S1,NHGX,60.0271520842,
stim/posf.jpg,stim/negf.jpg,stim/2.jpg,stim/3.jpg,stim/latef.jpg,AB,1,2,,,,,,,,,,,,,0,46,46,5,,,,,,2,1,0.616466720801,,,,,,2016_Aug_20_1210,P5,PLC_L_D2S1,NHGX,60.0271520842,
stim/posf.jpg,stim/negf.jpg,stim/6.jpg,stim/4.jpg,stim/latef.jpg,CD,1,2,,,,,,,,,,,,,0,47,47,26,,,,,,2,1,0.649784237831,,,,,,2016_Aug_20_1210,P5,PLC_L_D2S1,NHGX,60.0271520842,
stim/posf.jpg,stim/negf.jpg,stim/3.jpg,stim/2.jpg,stim/latef.jpg,AB,2,4,,,,,,,,,,,,,0,48,48,13,,,,,,4,1,0.649770265109,,,,,,2016_Aug_20_1210,P5,PLC_L_D2S1,NHGX,60.0271520842,
stim/posf.jpg,stim/negf.jpg,stim/1.jpg,stim/5.jpg,stim/latef.jpg,EF,1,2,,,,,,,,,,,,,0,49,49,43,,,,,,2,1,0.883073319198,,,,,,2016_Aug_20_1210,P5,PLC_L_D2S1,NHGX,60.0271520842,
stim/negf.jpg,stim/posf.jpg,stim/1.jpg,stim/5.jpg,stim/latef.jpg,EF,1,2,,,,,,,,,,,,,0,50,50,46,,,,,,2,1,0.599804075126,,,,,,2016_Aug_20_1210,P5,PLC_L_D2S1,NHGX,60.0271520842,
stim/posf.jpg,stim/negf.jpg,stim/3.jpg,stim/2.jpg,stim/latef.jpg,AB,2,4,,,,,,,,,,,,,0,51,51,17,,,,,,4,1,0.599724695869,,,,,,2016_Aug_20_1210,P5,PLC_L_D2S1,NHGX,60.0271520842,
stim/posf.jpg,stim/negf.jpg,stim/5.jpg,stim/1.jpg,stim/latef.jpg,EF,2,4,,,,,,,,,,,,,0,52,52,54,,,,,,4,1,0.683089258808,,,,,,2016_Aug_20_1210,P5,PLC_L_D2S1,NHGX,60.0271520842,
stim/posf.jpg,stim/negf.jpg,stim/3.jpg,stim/2.jpg,stim/latef.jpg,AB,2,4,,,,,,,,,,,,,0,53,53,15,,,,,,4,1,0.549803566863,,,,,,2016_Aug_20_1210,P5,PLC_L_D2S1,NHGX,60.0271520842,
stim/posf.jpg,stim/negf.jpg,stim/1.jpg,stim/5.jpg,stim/latef.jpg,EF,1,2,,,,,,,,,,,,,0,54,54,42,,,,,,2,1,0.616454555571,,,,,,2016_Aug_20_1210,P5,PLC_L_D2S1,NHGX,60.0271520842,
stim/negf.jpg,stim/posf.jpg,stim/5.jpg,stim/1.jpg,stim/latef.jpg,EF,2,4,,,,,,,,,,,,,0,55,55,56,,,,,,4,1,0.566461972001,,,,,,2016_Aug_20_1210,P5,PLC_L_D2S1,NHGX,60.0271520842,
stim/negf.jpg,stim/posf.jpg,stim/6.jpg,stim/4.jpg,stim/latef.jpg,CD,1,2,,,,,,,,,,,,,0,56,56,29,,,,,,2,1,0.716399416549,,,,,,2016_Aug_20_1210,P5,PLC_L_D2S1,NHGX,60.0271520842,
stim/negf.jpg,stim/posf.jpg,stim/3.jpg,stim/2.jpg,stim/latef.jpg,AB,2,4,,,,,,,,,,,,,0,57,57,18,,,,,,4,1,0.549797711313,,,,,,2016_Aug_20_1210,P5,PLC_L_D2S1,NHGX,60.0271520842,
stim/posf.jpg,stim/negf.jpg,stim/5.jpg,stim/1.jpg,stim/latef.jpg,EF,2,4,,,,,,,,,,,,,0,58,58,51,,,,,,4,1,0.683103021007,,,,,,2016_Aug_20_1210,P5,PLC_L_D2S1,NHGX,60.0271520842,
stim/posf.jpg,stim/negf.jpg,stim/3.jpg,stim/2.jpg,stim/latef.jpg,AB,2,4,,,,,,,,,,,,,0,59,59,16,,,,,,4,1,0.549822366581,,,,,,2016_Aug_20_1210,P5,PLC_L_D2S1,NHGX,60.0271520842,
