fb_corr,fb_incorr,symbol2,symbol1,fb_late,pair,position,correct,block_01.thisRepN,block_01.thisTrialN,block_01.thisN,block_01.thisIndex,block_02.thisRepN,block_02.thisTrialN,block_02.thisN,block_02.thisIndex,block_03.thisRepN,block_03.thisTrialN,block_03.thisN,block_03.thisIndex,block_04.thisRepN,block_04.thisTrialN,block_04.thisN,block_04.thisIndex,mouse.x,mouse.y,mouse.leftButton,mouse.midButton,mouse.rightButton,buttonBox_2.keys,buttonBox_2.corr,buttonBox_2.rt,mouse_2.x,mouse_2.y,mouse_2.leftButton,mouse_2.midButton,mouse_2.rightButton,date,Participant,expName,Group,frameRate,
,,,,,,,,,,,,,,,,,,,,,,,,0.9984375,0.033203125,1,0,0,,,,,,,,,2016_Aug_23_0917,P6,PLC_L_D2S1,NHGX,60.0145214742,
stim/negf.jpg,stim/posf.jpg,stim/5.jpg,stim/1.jpg,stim/latef.jpg,CD,2,4,0,0,0,37,,,,,,,,,,,,,,,,,,2,0,1.06635899264,,,,,,2016_Aug_23_0917,P6,PLC_L_D2S1,NHGX,60.0145214742,
stim/posf.jpg,stim/negf.jpg,stim/2.jpg,stim/3.jpg,stim/latef.jpg,AB,2,4,0,1,1,13,,,,,,,,,,,,,,,,,,4,1,1.56615653325,,,,,,2016_Aug_23_0917,P6,PLC_L_D2S1,NHGX,60.0145214742,
stim/posf.jpg,stim/negf.jpg,stim/6.jpg,stim/4.jpg,stim/latef.jpg,EF,2,4,0,2,2,50,,,,,,,,,,,,,,,,,,2,0,1.54950168458,,,,,,2016_Aug_23_0917,P6,PLC_L_D2S1,NHGX,60.0145214742,
stim/posf.jpg,stim/negf.jpg,stim/3.jpg,stim/2.jpg,stim/latef.jpg,AB,1,2,0,3,3,0,,,,,,,,,,,,,,,,,,2,1,1.54950004248,,,,,,2016_Aug_23_0917,P6,PLC_L_D2S1,NHGX,60.0145214742,
stim/posf.jpg,stim/negf.jpg,stim/4.jpg,stim/6.jpg,stim/latef.jpg,EF,1,2,0,4,4,45,,,,,,,,,,,,,,,,,,2,1,1.53283427957,,,,,,2016_Aug_23_0917,P6,PLC_L_D2S1,NHGX,60.0145214742,
stim/posf.jpg,stim/negf.jpg,stim/3.jpg,stim/2.jpg,stim/latef.jpg,AB,1,2,0,5,5,6,,,,,,,,,,,,,,,,,,2,1,1.2329306371,,,,,,2016_Aug_23_0917,P6,PLC_L_D2S1,NHGX,60.0145214742,
stim/posf.jpg,stim/negf.jpg,stim/5.jpg,stim/1.jpg,stim/latef.jpg,CD,2,4,0,6,6,31,,,,,,,,,,,,,,,,,,2,0,1.31623382769,,,,,,2016_Aug_23_0917,P6,PLC_L_D2S1,NHGX,60.0145214742,
stim/negf.jpg,stim/posf.jpg,stim/6.jpg,stim/4.jpg,stim/latef.jpg,EF,2,4,0,7,7,59,,,,,,,,,,,,,,,,,,4,1,1.58283204349,,,,,,2016_Aug_23_0917,P6,PLC_L_D2S1,NHGX,60.0145214742,
stim/negf.jpg,stim/posf.jpg,stim/4.jpg,stim/6.jpg,stim/latef.jpg,EF,1,2,0,8,8,49,,,,,,,,,,,,,,,,,,2,1,1.46619030154,,,,,,2016_Aug_23_0917,P6,PLC_L_D2S1,NHGX,60.0145214742,
stim/posf.jpg,stim/negf.jpg,stim/2.jpg,stim/3.jpg,stim/latef.jpg,AB,2,4,0,9,9,11,,,,,,,,,,,,,,,,,,4,1,1.549450978,,,,,,2016_Aug_23_0917,P6,PLC_L_D2S1,NHGX,60.0145214742,
stim/negf.jpg,stim/posf.jpg,stim/6.jpg,stim/4.jpg,stim/latef.jpg,EF,2,4,0,10,10,56,,,,,,,,,,,,,,,,,,2,0,1.13293016793,,,,,,2016_Aug_23_0917,P6,PLC_L_D2S1,NHGX,60.0145214742,
stim/posf.jpg,stim/negf.jpg,stim/3.jpg,stim/2.jpg,stim/latef.jpg,AB,1,2,0,11,11,3,,,,,,,,,,,,,,,,,,2,1,1.4328678223,,,,,,2016_Aug_23_0917,P6,PLC_L_D2S1,NHGX,60.0145214742,
stim/negf.jpg,stim/posf.jpg,stim/6.jpg,stim/4.jpg,stim/latef.jpg,EF,2,4,0,12,12,57,,,,,,,,,,,,,,,,,,2,0,1.28291745369,,,,,,2016_Aug_23_0917,P6,PLC_L_D2S1,NHGX,60.0145214742,
stim/posf.jpg,stim/negf.jpg,stim/1.jpg,stim/5.jpg,stim/latef.jpg,CD,1,2,0,13,13,25,,,,,,,,,,,,,,,,,,2,1,1.28292524013,,,,,,2016_Aug_23_0917,P6,PLC_L_D2S1,NHGX,60.0145214742,
stim/negf.jpg,stim/posf.jpg,stim/1.jpg,stim/5.jpg,stim/latef.jpg,CD,1,2,0,14,14,29,,,,,,,,,,,,,,,,,,2,1,0.933046889297,,,,,,2016_Aug_23_0917,P6,PLC_L_D2S1,NHGX,60.0145214742,
stim/negf.jpg,stim/posf.jpg,stim/5.jpg,stim/1.jpg,stim/latef.jpg,CD,2,4,0,15,15,39,,,,,,,,,,,,,,,,,,4,1,1.34955269191,,,,,,2016_Aug_23_0917,P6,PLC_L_D2S1,NHGX,60.0145214742,
stim/negf.jpg,stim/posf.jpg,stim/3.jpg,stim/2.jpg,stim/latef.jpg,AB,1,2,0,16,16,9,,,,,,,,,,,,,,,,,,2,1,1.16628357036,,,,,,2016_Aug_23_0917,P6,PLC_L_D2S1,NHGX,60.0145214742,
stim/negf.jpg,stim/posf.jpg,stim/3.jpg,stim/2.jpg,stim/latef.jpg,AB,1,2,0,17,17,8,,,,,,,,,,,,,,,,,,4,0,1.24958901358,,,,,,2016_Aug_23_0917,P6,PLC_L_D2S1,NHGX,60.0145214742,
stim/posf.jpg,stim/negf.jpg,stim/3.jpg,stim/2.jpg,stim/latef.jpg,AB,1,2,0,18,18,1,,,,,,,,,,,,,,,,,,4,0,1.06632823786,,,,,,2016_Aug_23_0917,P6,PLC_L_D2S1,NHGX,60.0145214742,
stim/negf.jpg,stim/posf.jpg,stim/2.jpg,stim/3.jpg,stim/latef.jpg,AB,2,4,0,19,19,19,,,,,,,,,,,,,,,,,,4,1,1.21628505457,,,,,,2016_Aug_23_0917,P6,PLC_L_D2S1,NHGX,60.0145214742,
stim/negf.jpg,stim/posf.jpg,stim/1.jpg,stim/5.jpg,stim/latef.jpg,CD,1,2,0,20,20,27,,,,,,,,,,,,,,,,,,2,1,1.29957316251,,,,,,2016_Aug_23_0917,P6,PLC_L_D2S1,NHGX,60.0145214742,
stim/posf.jpg,stim/negf.jpg,stim/4.jpg,stim/6.jpg,stim/latef.jpg,EF,1,2,0,21,21,43,,,,,,,,,,,,,,,,,,4,0,1.332903356,,,,,,2016_Aug_23_0917,P6,PLC_L_D2S1,NHGX,60.0145214742,
stim/negf.jpg,stim/posf.jpg,stim/5.jpg,stim/1.jpg,stim/latef.jpg,CD,2,4,0,22,22,38,,,,,,,,,,,,,,,,,,4,1,1.39954963778,,,,,,2016_Aug_23_0917,P6,PLC_L_D2S1,NHGX,60.0145214742,
stim/posf.jpg,stim/negf.jpg,stim/3.jpg,stim/2.jpg,stim/latef.jpg,AB,1,2,0,23,23,5,,,,,,,,,,,,,,,,,,4,0,1.48282293074,,,,,,2016_Aug_23_0917,P6,PLC_L_D2S1,NHGX,60.0145214742,
stim/posf.jpg,stim/negf.jpg,stim/5.jpg,stim/1.jpg,stim/latef.jpg,CD,2,4,0,24,24,35,,,,,,,,,,,,,,,,,,2,0,1.16628160947,,,,,,2016_Aug_23_0917,P6,PLC_L_D2S1,NHGX,60.0145214742,
stim/posf.jpg,stim/negf.jpg,stim/1.jpg,stim/5.jpg,stim/latef.jpg,CD,1,2,0,25,25,20,,,,,,,,,,,,,,,,,,4,0,1.29956413096,,,,,,2016_Aug_23_0917,P6,PLC_L_D2S1,NHGX,60.0145214742,
stim/posf.jpg,stim/negf.jpg,stim/1.jpg,stim/5.jpg,stim/latef.jpg,CD,1,2,0,26,26,24,,,,,,,,,,,,,,,,,,2,1,1.21628991169,,,,,,2016_Aug_23_0917,P6,PLC_L_D2S1,NHGX,60.0145214742,
stim/posf.jpg,stim/negf.jpg,stim/3.jpg,stim/2.jpg,stim/latef.jpg,AB,1,2,0,27,27,4,,,,,,,,,,,,,,,,,,2,1,1.19960317743,,,,,,2016_Aug_23_0917,P6,PLC_L_D2S1,NHGX,60.0145214742,
stim/posf.jpg,stim/negf.jpg,stim/2.jpg,stim/3.jpg,stim/latef.jpg,AB,2,4,0,28,28,16,,,,,,,,,,,,,,,,,,4,1,1.2329451393,,,,,,2016_Aug_23_0917,P6,PLC_L_D2S1,NHGX,60.0145214742,
stim/posf.jpg,stim/negf.jpg,stim/4.jpg,stim/6.jpg,stim/latef.jpg,EF,1,2,0,29,29,42,,,,,,,,,,,,,,,,,,4,0,1.14963219537,,,,,,2016_Aug_23_0917,P6,PLC_L_D2S1,NHGX,60.0145214742,
stim/posf.jpg,stim/negf.jpg,stim/2.jpg,stim/3.jpg,stim/latef.jpg,AB,2,4,0,30,30,12,,,,,,,,,,,,,,,,,,4,1,1.09965807647,,,,,,2016_Aug_23_0917,P6,PLC_L_D2S1,NHGX,60.0145214742,
stim/posf.jpg,stim/negf.jpg,stim/1.jpg,stim/5.jpg,stim/latef.jpg,CD,1,2,0,31,31,23,,,,,,,,,,,,,,,,,,2,1,1.29962608862,,,,,,2016_Aug_23_0917,P6,PLC_L_D2S1,NHGX,60.0145214742,
stim/posf.jpg,stim/negf.jpg,stim/5.jpg,stim/1.jpg,stim/latef.jpg,CD,2,4,0,32,32,33,,,,,,,,,,,,,,,,,,4,1,1.61618097676,,,,,,2016_Aug_23_0917,P6,PLC_L_D2S1,NHGX,60.0145214742,
stim/posf.jpg,stim/negf.jpg,stim/6.jpg,stim/4.jpg,stim/latef.jpg,EF,2,4,0,33,33,54,,,,,,,,,,,,,,,,,,None,0,,,,,,,2016_Aug_23_0917,P6,PLC_L_D2S1,NHGX,60.0145214742,
stim/posf.jpg,stim/negf.jpg,stim/2.jpg,stim/3.jpg,stim/latef.jpg,AB,2,4,0,34,34,15,,,,,,,,,,,,,,,,,,4,1,1.1329658881,,,,,,2016_Aug_23_0917,P6,PLC_L_D2S1,NHGX,60.0145214742,
stim/posf.jpg,stim/negf.jpg,stim/5.jpg,stim/1.jpg,stim/latef.jpg,CD,2,4,0,35,35,32,,,,,,,,,,,,,,,,,,4,1,1.1162944801,,,,,,2016_Aug_23_0917,P6,PLC_L_D2S1,NHGX,60.0145214742,
stim/posf.jpg,stim/negf.jpg,stim/1.jpg,stim/5.jpg,stim/latef.jpg,CD,1,2,0,36,36,26,,,,,,,,,,,,,,,,,,4,0,1.41620153909,,,,,,2016_Aug_23_0917,P6,PLC_L_D2S1,NHGX,60.0145214742,
stim/negf.jpg,stim/posf.jpg,stim/4.jpg,stim/6.jpg,stim/latef.jpg,EF,1,2,0,37,37,46,,,,,,,,,,,,,,,,,,4,0,1.46618056022,,,,,,2016_Aug_23_0917,P6,PLC_L_D2S1,NHGX,60.0145214742,
stim/posf.jpg,stim/negf.jpg,stim/6.jpg,stim/4.jpg,stim/latef.jpg,EF,2,4,0,38,38,53,,,,,,,,,,,,,,,,,,2,0,1.18295431371,,,,,,2016_Aug_23_0917,P6,PLC_L_D2S1,NHGX,60.0145214742,
stim/posf.jpg,stim/negf.jpg,stim/4.jpg,stim/6.jpg,stim/latef.jpg,EF,1,2,0,39,39,41,,,,,,,,,,,,,,,,,,4,0,1.51616164751,,,,,,2016_Aug_23_0917,P6,PLC_L_D2S1,NHGX,60.0145214742,
stim/posf.jpg,stim/negf.jpg,stim/4.jpg,stim/6.jpg,stim/latef.jpg,EF,1,2,0,40,40,40,,,,,,,,,,,,,,,,,,2,1,0.849711777023,,,,,,2016_Aug_23_0917,P6,PLC_L_D2S1,NHGX,60.0145214742,
stim/negf.jpg,stim/posf.jpg,stim/1.jpg,stim/5.jpg,stim/latef.jpg,CD,1,2,0,41,41,28,,,,,,,,,,,,,,,,,,4,0,1.58286383585,,,,,,2016_Aug_23_0917,P6,PLC_L_D2S1,NHGX,60.0145214742,
stim/posf.jpg,stim/negf.jpg,stim/6.jpg,stim/4.jpg,stim/latef.jpg,EF,2,4,0,42,42,55,,,,,,,,,,,,,,,,,,4,1,1.29956009789,,,,,,2016_Aug_23_0917,P6,PLC_L_D2S1,NHGX,60.0145214742,
stim/posf.jpg,stim/negf.jpg,stim/4.jpg,stim/6.jpg,stim/latef.jpg,EF,1,2,0,43,43,44,,,,,,,,,,,,,,,,,,2,1,1.0996491953,,,,,,2016_Aug_23_0917,P6,PLC_L_D2S1,NHGX,60.0145214742,
stim/posf.jpg,stim/negf.jpg,stim/1.jpg,stim/5.jpg,stim/latef.jpg,CD,1,2,0,44,44,22,,,,,,,,,,,,,,,,,,4,0,1.19954206187,,,,,,2016_Aug_23_0917,P6,PLC_L_D2S1,NHGX,60.0145214742,
stim/posf.jpg,stim/negf.jpg,stim/2.jpg,stim/3.jpg,stim/latef.jpg,AB,2,4,0,45,45,10,,,,,,,,,,,,,,,,,,4,1,1.29955029342,,,,,,2016_Aug_23_0917,P6,PLC_L_D2S1,NHGX,60.0145214742,
stim/posf.jpg,stim/negf.jpg,stim/5.jpg,stim/1.jpg,stim/latef.jpg,CD,2,4,0,46,46,34,,,,,,,,,,,,,,,,,,4,1,1.23291705219,,,,,,2016_Aug_23_0917,P6,PLC_L_D2S1,NHGX,60.0145214742,
stim/posf.jpg,stim/negf.jpg,stim/3.jpg,stim/2.jpg,stim/latef.jpg,AB,1,2,0,47,47,7,,,,,,,,,,,,,,,,,,2,1,1.51618703388,,,,,,2016_Aug_23_0917,P6,PLC_L_D2S1,NHGX,60.0145214742,
stim/posf.jpg,stim/negf.jpg,stim/6.jpg,stim/4.jpg,stim/latef.jpg,EF,2,4,0,48,48,51,,,,,,,,,,,,,,,,,,4,1,1.38286739072,,,,,,2016_Aug_23_0917,P6,PLC_L_D2S1,NHGX,60.0145214742,
stim/negf.jpg,stim/posf.jpg,stim/4.jpg,stim/6.jpg,stim/latef.jpg,EF,1,2,0,49,49,48,,,,,,,,,,,,,,,,,,2,1,1.3495993985,,,,,,2016_Aug_23_0917,P6,PLC_L_D2S1,NHGX,60.0145214742,
stim/negf.jpg,stim/posf.jpg,stim/4.jpg,stim/6.jpg,stim/latef.jpg,EF,1,2,0,50,50,47,,,,,,,,,,,,,,,,,,4,0,1.48283272319,,,,,,2016_Aug_23_0917,P6,PLC_L_D2S1,NHGX,60.0145214742,
stim/posf.jpg,stim/negf.jpg,stim/5.jpg,stim/1.jpg,stim/latef.jpg,CD,2,4,0,51,51,30,,,,,,,,,,,,,,,,,,4,1,1.63273603934,,,,,,2016_Aug_23_0917,P6,PLC_L_D2S1,NHGX,60.0145214742,
stim/negf.jpg,stim/posf.jpg,stim/2.jpg,stim/3.jpg,stim/latef.jpg,AB,2,4,0,52,52,18,,,,,,,,,,,,,,,,,,2,0,1.44952472209,,,,,,2016_Aug_23_0917,P6,PLC_L_D2S1,NHGX,60.0145214742,
stim/posf.jpg,stim/negf.jpg,stim/3.jpg,stim/2.jpg,stim/latef.jpg,AB,1,2,0,53,53,2,,,,,,,,,,,,,,,,,,None,0,,,,,,,2016_Aug_23_0917,P6,PLC_L_D2S1,NHGX,60.0145214742,
stim/posf.jpg,stim/negf.jpg,stim/5.jpg,stim/1.jpg,stim/latef.jpg,CD,2,4,0,54,54,36,,,,,,,,,,,,,,,,,,4,1,1.14963005703,,,,,,2016_Aug_23_0917,P6,PLC_L_D2S1,NHGX,60.0145214742,
stim/posf.jpg,stim/negf.jpg,stim/2.jpg,stim/3.jpg,stim/latef.jpg,AB,2,4,0,55,55,14,,,,,,,,,,,,,,,,,,4,1,1.34958448126,,,,,,2016_Aug_23_0917,P6,PLC_L_D2S1,NHGX,60.0145214742,
stim/posf.jpg,stim/negf.jpg,stim/6.jpg,stim/4.jpg,stim/latef.jpg,EF,2,4,0,56,56,52,,,,,,,,,,,,,,,,,,4,1,1.0829779858,,,,,,2016_Aug_23_0917,P6,PLC_L_D2S1,NHGX,60.0145214742,
stim/posf.jpg,stim/negf.jpg,stim/1.jpg,stim/5.jpg,stim/latef.jpg,CD,1,2,0,57,57,21,,,,,,,,,,,,,,,,,,2,1,1.14962385555,,,,,,2016_Aug_23_0917,P6,PLC_L_D2S1,NHGX,60.0145214742,
stim/posf.jpg,stim/negf.jpg,stim/2.jpg,stim/3.jpg,stim/latef.jpg,AB,2,4,0,58,58,17,,,,,,,,,,,,,,,,,,4,1,1.34956112496,,,,,,2016_Aug_23_0917,P6,PLC_L_D2S1,NHGX,60.0145214742,
stim/negf.jpg,stim/posf.jpg,stim/6.jpg,stim/4.jpg,stim/latef.jpg,EF,2,4,0,59,59,58,,,,,,,,,,,,,,,,,,4,1,1.2995472017,,,,,,2016_Aug_23_0917,P6,PLC_L_D2S1,NHGX,60.0145214742,
,,,,,,,,,,,,,,,,,,,,,,,,,,,,,,,,0.9984375,1.0,1,0,0,2016_Aug_23_0917,P6,PLC_L_D2S1,NHGX,60.0145214742,
stim/negf.jpg,stim/posf.jpg,stim/4.jpg,stim/6.jpg,stim/latef.jpg,EF,1,2,,,,,0,0,0,46,,,,,,,,,,,,,,2,1,1.38288555908,,,,,,2016_Aug_23_0917,P6,PLC_L_D2S1,NHGX,60.0145214742,
stim/posf.jpg,stim/negf.jpg,stim/3.jpg,stim/2.jpg,stim/latef.jpg,AB,1,2,,,,,0,1,1,4,,,,,,,,,,,,,,2,1,1.04964555472,,,,,,2016_Aug_23_0917,P6,PLC_L_D2S1,NHGX,60.0145214742,
stim/posf.jpg,stim/negf.jpg,stim/6.jpg,stim/4.jpg,stim/latef.jpg,EF,2,4,,,,,0,2,2,53,,,,,,,,,,,,,,2,0,1.16625580205,,,,,,2016_Aug_23_0917,P6,PLC_L_D2S1,NHGX,60.0145214742,
stim/posf.jpg,stim/negf.jpg,stim/2.jpg,stim/3.jpg,stim/latef.jpg,AB,2,4,,,,,0,3,3,12,,,,,,,,,,,,,,4,1,1.33289110642,,,,,,2016_Aug_23_0917,P6,PLC_L_D2S1,NHGX,60.0145214742,
stim/posf.jpg,stim/negf.jpg,stim/3.jpg,stim/2.jpg,stim/latef.jpg,AB,1,2,,,,,0,4,4,5,,,,,,,,,,,,,,2,1,1.38289311694,,,,,,2016_Aug_23_0917,P6,PLC_L_D2S1,NHGX,60.0145214742,
stim/posf.jpg,stim/negf.jpg,stim/3.jpg,stim/2.jpg,stim/latef.jpg,AB,1,2,,,,,0,5,5,1,,,,,,,,,,,,,,2,1,1.46619486092,,,,,,2016_Aug_23_0917,P6,PLC_L_D2S1,NHGX,60.0145214742,
stim/posf.jpg,stim/negf.jpg,stim/1.jpg,stim/5.jpg,stim/latef.jpg,CD,1,2,,,,,0,6,6,26,,,,,,,,,,,,,,2,1,1.43284229458,,,,,,2016_Aug_23_0917,P6,PLC_L_D2S1,NHGX,60.0145214742,
stim/negf.jpg,stim/posf.jpg,stim/5.jpg,stim/1.jpg,stim/latef.jpg,CD,2,4,,,,,0,7,7,38,,,,,,,,,,,,,,4,1,1.16627269822,,,,,,2016_Aug_23_0917,P6,PLC_L_D2S1,NHGX,60.0145214742,
stim/posf.jpg,stim/negf.jpg,stim/1.jpg,stim/5.jpg,stim/latef.jpg,CD,1,2,,,,,0,8,8,23,,,,,,,,,,,,,,4,0,1.59951191762,,,,,,2016_Aug_23_0917,P6,PLC_L_D2S1,NHGX,60.0145214742,
stim/posf.jpg,stim/negf.jpg,stim/4.jpg,stim/6.jpg,stim/latef.jpg,EF,1,2,,,,,0,9,9,45,,,,,,,,,,,,,,None,0,,,,,,,2016_Aug_23_0917,P6,PLC_L_D2S1,NHGX,60.0145214742,
stim/negf.jpg,stim/posf.jpg,stim/3.jpg,stim/2.jpg,stim/latef.jpg,AB,1,2,,,,,0,10,10,9,,,,,,,,,,,,,,2,1,0.883006295465,,,,,,2016_Aug_23_0917,P6,PLC_L_D2S1,NHGX,60.0145214742,
stim/posf.jpg,stim/negf.jpg,stim/4.jpg,stim/6.jpg,stim/latef.jpg,EF,1,2,,,,,0,11,11,40,,,,,,,,,,,,,,4,0,1.04964103142,,,,,,2016_Aug_23_0917,P6,PLC_L_D2S1,NHGX,60.0145214742,
stim/posf.jpg,stim/negf.jpg,stim/5.jpg,stim/1.jpg,stim/latef.jpg,CD,2,4,,,,,0,12,12,34,,,,,,,,,,,,,,4,1,0.983014984154,,,,,,2016_Aug_23_0917,P6,PLC_L_D2S1,NHGX,60.0145214742,
stim/posf.jpg,stim/negf.jpg,stim/5.jpg,stim/1.jpg,stim/latef.jpg,CD,2,4,,,,,0,13,13,31,,,,,,,,,,,,,,4,1,0.966275708738,,,,,,2016_Aug_23_0917,P6,PLC_L_D2S1,NHGX,60.0145214742,
stim/posf.jpg,stim/negf.jpg,stim/2.jpg,stim/3.jpg,stim/latef.jpg,AB,2,4,,,,,0,14,14,15,,,,,,,,,,,,,,4,1,0.98300514359,,,,,,2016_Aug_23_0917,P6,PLC_L_D2S1,NHGX,60.0145214742,
stim/posf.jpg,stim/negf.jpg,stim/3.jpg,stim/2.jpg,stim/latef.jpg,AB,1,2,,,,,0,15,15,3,,,,,,,,,,,,,,2,1,1.33290478156,,,,,,2016_Aug_23_0917,P6,PLC_L_D2S1,NHGX,60.0145214742,
stim/posf.jpg,stim/negf.jpg,stim/1.jpg,stim/5.jpg,stim/latef.jpg,CD,1,2,,,,,0,16,16,25,,,,,,,,,,,,,,2,1,1.04968509742,,,,,,2016_Aug_23_0917,P6,PLC_L_D2S1,NHGX,60.0145214742,
stim/posf.jpg,stim/negf.jpg,stim/5.jpg,stim/1.jpg,stim/latef.jpg,CD,2,4,,,,,0,17,17,33,,,,,,,,,,,,,,4,1,0.96633096868,,,,,,2016_Aug_23_0917,P6,PLC_L_D2S1,NHGX,60.0145214742,
stim/posf.jpg,stim/negf.jpg,stim/4.jpg,stim/6.jpg,stim/latef.jpg,EF,1,2,,,,,0,18,18,41,,,,,,,,,,,,,,2,1,1.09963205552,,,,,,2016_Aug_23_0917,P6,PLC_L_D2S1,NHGX,60.0145214742,
stim/posf.jpg,stim/negf.jpg,stim/2.jpg,stim/3.jpg,stim/latef.jpg,AB,2,4,,,,,0,19,19,17,,,,,,,,,,,,,,4,1,1.03302799313,,,,,,2016_Aug_23_0917,P6,PLC_L_D2S1,NHGX,60.0145214742,
stim/posf.jpg,stim/negf.jpg,stim/2.jpg,stim/3.jpg,stim/latef.jpg,AB,2,4,,,,,0,20,20,13,,,,,,,,,,,,,,4,1,1.03293565964,,,,,,2016_Aug_23_0917,P6,PLC_L_D2S1,NHGX,60.0145214742,
stim/posf.jpg,stim/negf.jpg,stim/2.jpg,stim/3.jpg,stim/latef.jpg,AB,2,4,,,,,0,21,21,14,,,,,,,,,,,,,,4,1,1.24956655351,,,,,,2016_Aug_23_0917,P6,PLC_L_D2S1,NHGX,60.0145214742,
stim/negf.jpg,stim/posf.jpg,stim/2.jpg,stim/3.jpg,stim/latef.jpg,AB,2,4,,,,,0,22,22,18,,,,,,,,,,,,,,4,1,1.18294706261,,,,,,2016_Aug_23_0917,P6,PLC_L_D2S1,NHGX,60.0145214742,
stim/posf.jpg,stim/negf.jpg,stim/2.jpg,stim/3.jpg,stim/latef.jpg,AB,2,4,,,,,0,23,23,10,,,,,,,,,,,,,,2,0,1.59951958376,,,,,,2016_Aug_23_0917,P6,PLC_L_D2S1,NHGX,60.0145214742,
stim/posf.jpg,stim/negf.jpg,stim/6.jpg,stim/4.jpg,stim/latef.jpg,EF,2,4,,,,,0,24,24,55,,,,,,,,,,,,,,4,1,1.14958091737,,,,,,2016_Aug_23_0917,P6,PLC_L_D2S1,NHGX,60.0145214742,
stim/posf.jpg,stim/negf.jpg,stim/1.jpg,stim/5.jpg,stim/latef.jpg,CD,1,2,,,,,0,25,25,20,,,,,,,,,,,,,,2,1,1.33289944023,,,,,,2016_Aug_23_0917,P6,PLC_L_D2S1,NHGX,60.0145214742,
stim/negf.jpg,stim/posf.jpg,stim/1.jpg,stim/5.jpg,stim/latef.jpg,CD,1,2,,,,,0,26,26,27,,,,,,,,,,,,,,2,1,1.31622611644,,,,,,2016_Aug_23_0917,P6,PLC_L_D2S1,NHGX,60.0145214742,
stim/posf.jpg,stim/negf.jpg,stim/6.jpg,stim/4.jpg,stim/latef.jpg,EF,2,4,,,,,0,27,27,51,,,,,,,,,,,,,,4,1,1.53276253247,,,,,,2016_Aug_23_0917,P6,PLC_L_D2S1,NHGX,60.0145214742,
stim/posf.jpg,stim/negf.jpg,stim/5.jpg,stim/1.jpg,stim/latef.jpg,CD,2,4,,,,,0,28,28,35,,,,,,,,,,,,,,None,0,,,,,,,2016_Aug_23_0917,P6,PLC_L_D2S1,NHGX,60.0145214742,
stim/posf.jpg,stim/negf.jpg,stim/6.jpg,stim/4.jpg,stim/latef.jpg,EF,2,4,,,,,0,29,29,54,,,,,,,,,,,,,,4,1,1.41621811948,,,,,,2016_Aug_23_0917,P6,PLC_L_D2S1,NHGX,60.0145214742,
stim/posf.jpg,stim/negf.jpg,stim/2.jpg,stim/3.jpg,stim/latef.jpg,AB,2,4,,,,,0,30,30,16,,,,,,,,,,,,,,4,1,1.28292829877,,,,,,2016_Aug_23_0917,P6,PLC_L_D2S1,NHGX,60.0145214742,
stim/posf.jpg,stim/negf.jpg,stim/2.jpg,stim/3.jpg,stim/latef.jpg,AB,2,4,,,,,0,31,31,11,,,,,,,,,,,,,,4,1,0.883033651753,,,,,,2016_Aug_23_0917,P6,PLC_L_D2S1,NHGX,60.0145214742,
stim/posf.jpg,stim/negf.jpg,stim/6.jpg,stim/4.jpg,stim/latef.jpg,EF,2,4,,,,,0,32,32,50,,,,,,,,,,,,,,4,1,1.38289946579,,,,,,2016_Aug_23_0917,P6,PLC_L_D2S1,NHGX,60.0145214742,
stim/posf.jpg,stim/negf.jpg,stim/5.jpg,stim/1.jpg,stim/latef.jpg,CD,2,4,,,,,0,33,33,32,,,,,,,,,,,,,,4,1,1.53284353066,,,,,,2016_Aug_23_0917,P6,PLC_L_D2S1,NHGX,60.0145214742,
stim/negf.jpg,stim/posf.jpg,stim/1.jpg,stim/5.jpg,stim/latef.jpg,CD,1,2,,,,,0,34,34,29,,,,,,,,,,,,,,2,1,0.982998842861,,,,,,2016_Aug_23_0917,P6,PLC_L_D2S1,NHGX,60.0145214742,
stim/negf.jpg,stim/posf.jpg,stim/3.jpg,stim/2.jpg,stim/latef.jpg,AB,1,2,,,,,0,35,35,8,,,,,,,,,,,,,,2,1,1.24959815339,,,,,,2016_Aug_23_0917,P6,PLC_L_D2S1,NHGX,60.0145214742,
stim/negf.jpg,stim/posf.jpg,stim/2.jpg,stim/3.jpg,stim/latef.jpg,AB,2,4,,,,,0,36,36,19,,,,,,,,,,,,,,4,1,1.4828597697,,,,,,2016_Aug_23_0917,P6,PLC_L_D2S1,NHGX,60.0145214742,
stim/negf.jpg,stim/posf.jpg,stim/6.jpg,stim/4.jpg,stim/latef.jpg,EF,2,4,,,,,0,37,37,57,,,,,,,,,,,,,,2,0,1.64946726366,,,,,,2016_Aug_23_0917,P6,PLC_L_D2S1,NHGX,60.0145214742,
stim/posf.jpg,stim/negf.jpg,stim/3.jpg,stim/2.jpg,stim/latef.jpg,AB,1,2,,,,,0,38,38,6,,,,,,,,,,,,,,4,0,1.26623217206,,,,,,2016_Aug_23_0917,P6,PLC_L_D2S1,NHGX,60.0145214742,
stim/negf.jpg,stim/posf.jpg,stim/1.jpg,stim/5.jpg,stim/latef.jpg,CD,1,2,,,,,0,39,39,28,,,,,,,,,,,,,,2,1,1.04966570201,,,,,,2016_Aug_23_0917,P6,PLC_L_D2S1,NHGX,60.0145214742,
stim/posf.jpg,stim/negf.jpg,stim/3.jpg,stim/2.jpg,stim/latef.jpg,AB,1,2,,,,,0,40,40,2,,,,,,,,,,,,,,2,1,1.41620236315,,,,,,2016_Aug_23_0917,P6,PLC_L_D2S1,NHGX,60.0145214742,
stim/negf.jpg,stim/posf.jpg,stim/5.jpg,stim/1.jpg,stim/latef.jpg,CD,2,4,,,,,0,41,41,39,,,,,,,,,,,,,,4,1,1.21622213751,,,,,,2016_Aug_23_0917,P6,PLC_L_D2S1,NHGX,60.0145214742,
stim/posf.jpg,stim/negf.jpg,stim/4.jpg,stim/6.jpg,stim/latef.jpg,EF,1,2,,,,,0,42,42,44,,,,,,,,,,,,,,None,0,,,,,,,2016_Aug_23_0917,P6,PLC_L_D2S1,NHGX,60.0145214742,
stim/posf.jpg,stim/negf.jpg,stim/3.jpg,stim/2.jpg,stim/latef.jpg,AB,1,2,,,,,0,43,43,0,,,,,,,,,,,,,,2,1,1.19963635024,,,,,,2016_Aug_23_0917,P6,PLC_L_D2S1,NHGX,60.0145214742,
stim/posf.jpg,stim/negf.jpg,stim/1.jpg,stim/5.jpg,stim/latef.jpg,CD,1,2,,,,,0,44,44,22,,,,,,,,,,,,,,2,1,1.16632519126,,,,,,2016_Aug_23_0917,P6,PLC_L_D2S1,NHGX,60.0145214742,
stim/posf.jpg,stim/negf.jpg,stim/4.jpg,stim/6.jpg,stim/latef.jpg,EF,1,2,,,,,0,45,45,42,,,,,,,,,,,,,,2,1,1.13294776787,,,,,,2016_Aug_23_0917,P6,PLC_L_D2S1,NHGX,60.0145214742,
stim/negf.jpg,stim/posf.jpg,stim/4.jpg,stim/6.jpg,stim/latef.jpg,EF,1,2,,,,,0,46,46,49,,,,,,,,,,,,,,2,1,1.18291996797,,,,,,2016_Aug_23_0917,P6,PLC_L_D2S1,NHGX,60.0145214742,
stim/posf.jpg,stim/negf.jpg,stim/5.jpg,stim/1.jpg,stim/latef.jpg,CD,2,4,,,,,0,47,47,36,,,,,,,,,,,,,,4,1,1.46619444889,,,,,,2016_Aug_23_0917,P6,PLC_L_D2S1,NHGX,60.0145214742,
stim/posf.jpg,stim/negf.jpg,stim/5.jpg,stim/1.jpg,stim/latef.jpg,CD,2,4,,,,,0,48,48,30,,,,,,,,,,,,,,4,1,1.24963507054,,,,,,2016_Aug_23_0917,P6,PLC_L_D2S1,NHGX,60.0145214742,
stim/negf.jpg,stim/posf.jpg,stim/4.jpg,stim/6.jpg,stim/latef.jpg,EF,1,2,,,,,0,49,49,47,,,,,,,,,,,,,,2,1,1.64944954944,,,,,,2016_Aug_23_0917,P6,PLC_L_D2S1,NHGX,60.0145214742,
stim/negf.jpg,stim/posf.jpg,stim/6.jpg,stim/4.jpg,stim/latef.jpg,EF,2,4,,,,,0,50,50,58,,,,,,,,,,,,,,None,0,,,,,,,2016_Aug_23_0917,P6,PLC_L_D2S1,NHGX,60.0145214742,
stim/negf.jpg,stim/posf.jpg,stim/5.jpg,stim/1.jpg,stim/latef.jpg,CD,2,4,,,,,0,51,51,37,,,,,,,,,,,,,,4,1,1.06631889955,,,,,,2016_Aug_23_0917,P6,PLC_L_D2S1,NHGX,60.0145214742,
stim/posf.jpg,stim/negf.jpg,stim/1.jpg,stim/5.jpg,stim/latef.jpg,CD,1,2,,,,,0,52,52,24,,,,,,,,,,,,,,2,1,1.31625643813,,,,,,2016_Aug_23_0917,P6,PLC_L_D2S1,NHGX,60.0145214742,
stim/negf.jpg,stim/posf.jpg,stim/4.jpg,stim/6.jpg,stim/latef.jpg,EF,1,2,,,,,0,53,53,48,,,,,,,,,,,,,,2,1,1.21626879598,,,,,,2016_Aug_23_0917,P6,PLC_L_D2S1,NHGX,60.0145214742,
stim/negf.jpg,stim/posf.jpg,stim/6.jpg,stim/4.jpg,stim/latef.jpg,EF,2,4,,,,,0,54,54,59,,,,,,,,,,,,,,2,0,0.783052996041,,,,,,2016_Aug_23_0917,P6,PLC_L_D2S1,NHGX,60.0145214742,
stim/posf.jpg,stim/negf.jpg,stim/4.jpg,stim/6.jpg,stim/latef.jpg,EF,1,2,,,,,0,55,55,43,,,,,,,,,,,,,,2,1,0.899671264394,,,,,,2016_Aug_23_0917,P6,PLC_L_D2S1,NHGX,60.0145214742,
stim/posf.jpg,stim/negf.jpg,stim/1.jpg,stim/5.jpg,stim/latef.jpg,CD,1,2,,,,,0,56,56,21,,,,,,,,,,,,,,2,1,0.999667784708,,,,,,2016_Aug_23_0917,P6,PLC_L_D2S1,NHGX,60.0145214742,
stim/negf.jpg,stim/posf.jpg,stim/6.jpg,stim/4.jpg,stim/latef.jpg,EF,2,4,,,,,0,57,57,56,,,,,,,,,,,,,,4,1,0.933019794662,,,,,,2016_Aug_23_0917,P6,PLC_L_D2S1,NHGX,60.0145214742,
stim/posf.jpg,stim/negf.jpg,stim/3.jpg,stim/2.jpg,stim/latef.jpg,AB,1,2,,,,,0,58,58,7,,,,,,,,,,,,,,2,1,1.1663137898,,,,,,2016_Aug_23_0917,P6,PLC_L_D2S1,NHGX,60.0145214742,
stim/posf.jpg,stim/negf.jpg,stim/6.jpg,stim/4.jpg,stim/latef.jpg,EF,2,4,,,,,0,59,59,52,,,,,,,,,,,,,,2,0,1.04967256213,,,,,,2016_Aug_23_0917,P6,PLC_L_D2S1,NHGX,60.0145214742,
,,,,,,,,,,,,,,,,,,,,,,,,,,,,,,,,0.9984375,0.97265625,1,0,0,2016_Aug_23_0917,P6,PLC_L_D2S1,NHGX,60.0145214742,
stim/negf.jpg,stim/posf.jpg,stim/2.jpg,stim/3.jpg,stim/latef.jpg,AB,2,4,,,,,,,,,0,0,0,19,,,,,,,,,,4,1,1.09963934271,,,,,,2016_Aug_23_0917,P6,PLC_L_D2S1,NHGX,60.0145214742,
stim/posf.jpg,stim/negf.jpg,stim/3.jpg,stim/2.jpg,stim/latef.jpg,AB,1,2,,,,,,,,,0,1,1,5,,,,,,,,,,4,0,1.19961164958,,,,,,2016_Aug_23_0917,P6,PLC_L_D2S1,NHGX,60.0145214742,
stim/posf.jpg,stim/negf.jpg,stim/1.jpg,stim/5.jpg,stim/latef.jpg,CD,1,2,,,,,,,,,0,2,2,23,,,,,,,,,,2,1,1.04974335886,,,,,,2016_Aug_23_0917,P6,PLC_L_D2S1,NHGX,60.0145214742,
stim/negf.jpg,stim/posf.jpg,stim/5.jpg,stim/1.jpg,stim/latef.jpg,CD,2,4,,,,,,,,,0,3,3,39,,,,,,,,,,4,1,1.04967201176,,,,,,2016_Aug_23_0917,P6,PLC_L_D2S1,NHGX,60.0145214742,
stim/posf.jpg,stim/negf.jpg,stim/2.jpg,stim/3.jpg,stim/latef.jpg,AB,2,4,,,,,,,,,0,4,4,11,,,,,,,,,,4,1,1.08302908936,,,,,,2016_Aug_23_0917,P6,PLC_L_D2S1,NHGX,60.0145214742,
stim/posf.jpg,stim/negf.jpg,stim/1.jpg,stim/5.jpg,stim/latef.jpg,CD,1,2,,,,,,,,,0,5,5,26,,,,,,,,,,4,0,1.14963683294,,,,,,2016_Aug_23_0917,P6,PLC_L_D2S1,NHGX,60.0145214742,
stim/negf.jpg,stim/posf.jpg,stim/1.jpg,stim/5.jpg,stim/latef.jpg,CD,1,2,,,,,,,,,0,6,6,28,,,,,,,,,,2,1,0.616448118616,,,,,,2016_Aug_23_0917,P6,PLC_L_D2S1,NHGX,60.0145214742,
stim/posf.jpg,stim/negf.jpg,stim/6.jpg,stim/4.jpg,stim/latef.jpg,EF,2,4,,,,,,,,,0,7,7,52,,,,,,,,,,4,1,1.43286148548,,,,,,2016_Aug_23_0917,P6,PLC_L_D2S1,NHGX,60.0145214742,
stim/negf.jpg,stim/posf.jpg,stim/4.jpg,stim/6.jpg,stim/latef.jpg,EF,1,2,,,,,,,,,0,8,8,46,,,,,,,,,,2,1,1.24958079105,,,,,,2016_Aug_23_0917,P6,PLC_L_D2S1,NHGX,60.0145214742,
stim/posf.jpg,stim/negf.jpg,stim/5.jpg,stim/1.jpg,stim/latef.jpg,CD,2,4,,,,,,,,,0,9,9,35,,,,,,,,,,4,1,1.14961848414,,,,,,2016_Aug_23_0917,P6,PLC_L_D2S1,NHGX,60.0145214742,
stim/posf.jpg,stim/negf.jpg,stim/5.jpg,stim/1.jpg,stim/latef.jpg,CD,2,4,,,,,,,,,0,10,10,31,,,,,,,,,,4,1,0.883049922369,,,,,,2016_Aug_23_0917,P6,PLC_L_D2S1,NHGX,60.0145214742,
stim/posf.jpg,stim/negf.jpg,stim/3.jpg,stim/2.jpg,stim/latef.jpg,AB,1,2,,,,,,,,,0,11,11,6,,,,,,,,,,2,1,0.999679306469,,,,,,2016_Aug_23_0917,P6,PLC_L_D2S1,NHGX,60.0145214742,
stim/posf.jpg,stim/negf.jpg,stim/4.jpg,stim/6.jpg,stim/latef.jpg,EF,1,2,,,,,,,,,0,12,12,44,,,,,,,,,,2,1,0.883043540438,,,,,,2016_Aug_23_0917,P6,PLC_L_D2S1,NHGX,60.0145214742,
stim/negf.jpg,stim/posf.jpg,stim/4.jpg,stim/6.jpg,stim/latef.jpg,EF,1,2,,,,,,,,,0,13,13,49,,,,,,,,,,4,0,0.84968922974,,,,,,2016_Aug_23_0917,P6,PLC_L_D2S1,NHGX,60.0145214742,
stim/negf.jpg,stim/posf.jpg,stim/4.jpg,stim/6.jpg,stim/latef.jpg,EF,1,2,,,,,,,,,0,14,14,48,,,,,,,,,,2,1,1.08299065643,,,,,,2016_Aug_23_0917,P6,PLC_L_D2S1,NHGX,60.0145214742,
stim/posf.jpg,stim/negf.jpg,stim/5.jpg,stim/1.jpg,stim/latef.jpg,CD,2,4,,,,,,,,,0,15,15,33,,,,,,,,,,4,1,1.01633647392,,,,,,2016_Aug_23_0917,P6,PLC_L_D2S1,NHGX,60.0145214742,
stim/posf.jpg,stim/negf.jpg,stim/5.jpg,stim/1.jpg,stim/latef.jpg,CD,2,4,,,,,,,,,0,16,16,36,,,,,,,,,,4,1,1.33290057105,,,,,,2016_Aug_23_0917,P6,PLC_L_D2S1,NHGX,60.0145214742,
stim/posf.jpg,stim/negf.jpg,stim/1.jpg,stim/5.jpg,stim/latef.jpg,CD,1,2,,,,,,,,,0,17,17,25,,,,,,,,,,2,1,1.24965696219,,,,,,2016_Aug_23_0917,P6,PLC_L_D2S1,NHGX,60.0145214742,
stim/negf.jpg,stim/posf.jpg,stim/5.jpg,stim/1.jpg,stim/latef.jpg,CD,2,4,,,,,,,,,0,18,18,38,,,,,,,,,,4,1,1.29957461814,,,,,,2016_Aug_23_0917,P6,PLC_L_D2S1,NHGX,60.0145214742,
stim/posf.jpg,stim/negf.jpg,stim/2.jpg,stim/3.jpg,stim/latef.jpg,AB,2,4,,,,,,,,,0,19,19,17,,,,,,,,,,4,1,1.23292657697,,,,,,2016_Aug_23_0917,P6,PLC_L_D2S1,NHGX,60.0145214742,
stim/posf.jpg,stim/negf.jpg,stim/1.jpg,stim/5.jpg,stim/latef.jpg,CD,1,2,,,,,,,,,0,20,20,21,,,,,,,,,,2,1,1.34954918816,,,,,,2016_Aug_23_0917,P6,PLC_L_D2S1,NHGX,60.0145214742,
stim/posf.jpg,stim/negf.jpg,stim/3.jpg,stim/2.jpg,stim/latef.jpg,AB,1,2,,,,,,,,,0,21,21,3,,,,,,,,,,2,1,0.933043779535,,,,,,2016_Aug_23_0917,P6,PLC_L_D2S1,NHGX,60.0145214742,
stim/posf.jpg,stim/negf.jpg,stim/5.jpg,stim/1.jpg,stim/latef.jpg,CD,2,4,,,,,,,,,0,22,22,34,,,,,,,,,,4,1,1.31625260356,,,,,,2016_Aug_23_0917,P6,PLC_L_D2S1,NHGX,60.0145214742,
stim/negf.jpg,stim/posf.jpg,stim/5.jpg,stim/1.jpg,stim/latef.jpg,CD,2,4,,,,,,,,,0,23,23,37,,,,,,,,,,4,1,0.899688864328,,,,,,2016_Aug_23_0917,P6,PLC_L_D2S1,NHGX,60.0145214742,
stim/posf.jpg,stim/negf.jpg,stim/4.jpg,stim/6.jpg,stim/latef.jpg,EF,1,2,,,,,,,,,0,24,24,40,,,,,,,,,,4,0,1.24966298021,,,,,,2016_Aug_23_0917,P6,PLC_L_D2S1,NHGX,60.0145214742,
stim/posf.jpg,stim/negf.jpg,stim/6.jpg,stim/4.jpg,stim/latef.jpg,EF,2,4,,,,,,,,,0,25,25,55,,,,,,,,,,2,0,1.28293229274,,,,,,2016_Aug_23_0917,P6,PLC_L_D2S1,NHGX,60.0145214742,
stim/negf.jpg,stim/posf.jpg,stim/2.jpg,stim/3.jpg,stim/latef.jpg,AB,2,4,,,,,,,,,0,26,26,18,,,,,,,,,,4,1,0.949710125902,,,,,,2016_Aug_23_0917,P6,PLC_L_D2S1,NHGX,60.0145214742,
stim/negf.jpg,stim/posf.jpg,stim/4.jpg,stim/6.jpg,stim/latef.jpg,EF,1,2,,,,,,,,,0,27,27,47,,,,,,,,,,2,1,0.716352134014,,,,,,2016_Aug_23_0917,P6,PLC_L_D2S1,NHGX,60.0145214742,
stim/negf.jpg,stim/posf.jpg,stim/3.jpg,stim/2.jpg,stim/latef.jpg,AB,1,2,,,,,,,,,0,28,28,9,,,,,,,,,,2,1,1.31622604126,,,,,,2016_Aug_23_0917,P6,PLC_L_D2S1,NHGX,60.0145214742,
stim/negf.jpg,stim/posf.jpg,stim/1.jpg,stim/5.jpg,stim/latef.jpg,CD,1,2,,,,,,,,,0,29,29,29,,,,,,,,,,2,1,0.866365789602,,,,,,2016_Aug_23_0917,P6,PLC_L_D2S1,NHGX,60.0145214742,
stim/negf.jpg,stim/posf.jpg,stim/6.jpg,stim/4.jpg,stim/latef.jpg,EF,2,4,,,,,,,,,0,30,30,57,,,,,,,,,,2,0,1.39955268138,,,,,,2016_Aug_23_0917,P6,PLC_L_D2S1,NHGX,60.0145214742,
stim/negf.jpg,stim/posf.jpg,stim/6.jpg,stim/4.jpg,stim/latef.jpg,EF,2,4,,,,,,,,,0,31,31,56,,,,,,,,,,4,1,1.24960199097,,,,,,2016_Aug_23_0917,P6,PLC_L_D2S1,NHGX,60.0145214742,
stim/posf.jpg,stim/negf.jpg,stim/2.jpg,stim/3.jpg,stim/latef.jpg,AB,2,4,,,,,,,,,0,32,32,10,,,,,,,,,,2,0,1.26627298093,,,,,,2016_Aug_23_0917,P6,PLC_L_D2S1,NHGX,60.0145214742,
stim/posf.jpg,stim/negf.jpg,stim/2.jpg,stim/3.jpg,stim/latef.jpg,AB,2,4,,,,,,,,,0,33,33,14,,,,,,,,,,4,1,0.883043934421,,,,,,2016_Aug_23_0917,P6,PLC_L_D2S1,NHGX,60.0145214742,
stim/posf.jpg,stim/negf.jpg,stim/6.jpg,stim/4.jpg,stim/latef.jpg,EF,2,4,,,,,,,,,0,34,34,50,,,,,,,,,,4,1,0.966300938718,,,,,,2016_Aug_23_0917,P6,PLC_L_D2S1,NHGX,60.0145214742,
stim/negf.jpg,stim/posf.jpg,stim/6.jpg,stim/4.jpg,stim/latef.jpg,EF,2,4,,,,,,,,,0,35,35,58,,,,,,,,,,4,1,0.766386727869,,,,,,2016_Aug_23_0917,P6,PLC_L_D2S1,NHGX,60.0145214742,
stim/posf.jpg,stim/negf.jpg,stim/4.jpg,stim/6.jpg,stim/latef.jpg,EF,1,2,,,,,,,,,0,36,36,43,,,,,,,,,,2,1,0.949696345502,,,,,,2016_Aug_23_0917,P6,PLC_L_D2S1,NHGX,60.0145214742,
stim/posf.jpg,stim/negf.jpg,stim/1.jpg,stim/5.jpg,stim/latef.jpg,CD,1,2,,,,,,,,,0,37,37,20,,,,,,,,,,2,1,1.18296691215,,,,,,2016_Aug_23_0917,P6,PLC_L_D2S1,NHGX,60.0145214742,
stim/negf.jpg,stim/posf.jpg,stim/6.jpg,stim/4.jpg,stim/latef.jpg,EF,2,4,,,,,,,,,0,38,38,59,,,,,,,,,,4,1,0.98302551043,,,,,,2016_Aug_23_0917,P6,PLC_L_D2S1,NHGX,60.0145214742,
stim/posf.jpg,stim/negf.jpg,stim/5.jpg,stim/1.jpg,stim/latef.jpg,CD,2,4,,,,,,,,,0,39,39,30,,,,,,,,,,4,1,1.14961580746,,,,,,2016_Aug_23_0917,P6,PLC_L_D2S1,NHGX,60.0145214742,
stim/posf.jpg,stim/negf.jpg,stim/2.jpg,stim/3.jpg,stim/latef.jpg,AB,2,4,,,,,,,,,0,40,40,16,,,,,,,,,,4,1,1.13296228811,,,,,,2016_Aug_23_0917,P6,PLC_L_D2S1,NHGX,60.0145214742,
stim/negf.jpg,stim/posf.jpg,stim/1.jpg,stim/5.jpg,stim/latef.jpg,CD,1,2,,,,,,,,,0,41,41,27,,,,,,,,,,2,1,1.08294498141,,,,,,2016_Aug_23_0917,P6,PLC_L_D2S1,NHGX,60.0145214742,
stim/posf.jpg,stim/negf.jpg,stim/6.jpg,stim/4.jpg,stim/latef.jpg,EF,2,4,,,,,,,,,0,42,42,51,,,,,,,,,,4,1,1.33288762072,,,,,,2016_Aug_23_0917,P6,PLC_L_D2S1,NHGX,60.0145214742,
stim/posf.jpg,stim/negf.jpg,stim/6.jpg,stim/4.jpg,stim/latef.jpg,EF,2,4,,,,,,,,,0,43,43,54,,,,,,,,,,4,1,1.06636791591,,,,,,2016_Aug_23_0917,P6,PLC_L_D2S1,NHGX,60.0145214742,
stim/negf.jpg,stim/posf.jpg,stim/3.jpg,stim/2.jpg,stim/latef.jpg,AB,1,2,,,,,,,,,0,44,44,8,,,,,,,,,,2,1,1.09964969756,,,,,,2016_Aug_23_0917,P6,PLC_L_D2S1,NHGX,60.0145214742,
stim/posf.jpg,stim/negf.jpg,stim/3.jpg,stim/2.jpg,stim/latef.jpg,AB,1,2,,,,,,,,,0,45,45,1,,,,,,,,,,2,1,1.34954294758,,,,,,2016_Aug_23_0917,P6,PLC_L_D2S1,NHGX,60.0145214742,
stim/posf.jpg,stim/negf.jpg,stim/1.jpg,stim/5.jpg,stim/latef.jpg,CD,1,2,,,,,,,,,0,46,46,22,,,,,,,,,,2,1,1.33292104616,,,,,,2016_Aug_23_0917,P6,PLC_L_D2S1,NHGX,60.0145214742,
stim/posf.jpg,stim/negf.jpg,stim/3.jpg,stim/2.jpg,stim/latef.jpg,AB,1,2,,,,,,,,,0,47,47,7,,,,,,,,,,2,1,1.16628353126,,,,,,2016_Aug_23_0917,P6,PLC_L_D2S1,NHGX,60.0145214742,
stim/posf.jpg,stim/negf.jpg,stim/6.jpg,stim/4.jpg,stim/latef.jpg,EF,2,4,,,,,,,,,0,48,48,53,,,,,,,,,,4,1,1.34954520622,,,,,,2016_Aug_23_0917,P6,PLC_L_D2S1,NHGX,60.0145214742,
stim/posf.jpg,stim/negf.jpg,stim/3.jpg,stim/2.jpg,stim/latef.jpg,AB,1,2,,,,,,,,,0,49,49,0,,,,,,,,,,2,1,1.36619483987,,,,,,2016_Aug_23_0917,P6,PLC_L_D2S1,NHGX,60.0145214742,
stim/posf.jpg,stim/negf.jpg,stim/4.jpg,stim/6.jpg,stim/latef.jpg,EF,1,2,,,,,,,,,0,50,50,42,,,,,,,,,,2,1,1.36621047891,,,,,,2016_Aug_23_0917,P6,PLC_L_D2S1,NHGX,60.0145214742,
stim/posf.jpg,stim/negf.jpg,stim/4.jpg,stim/6.jpg,stim/latef.jpg,EF,1,2,,,,,,,,,0,51,51,45,,,,,,,,,,4,0,1.38289806429,,,,,,2016_Aug_23_0917,P6,PLC_L_D2S1,NHGX,60.0145214742,
stim/posf.jpg,stim/negf.jpg,stim/5.jpg,stim/1.jpg,stim/latef.jpg,CD,2,4,,,,,,,,,0,52,52,32,,,,,,,,,,2,0,1.26624362164,,,,,,2016_Aug_23_0917,P6,PLC_L_D2S1,NHGX,60.0145214742,
stim/posf.jpg,stim/negf.jpg,stim/4.jpg,stim/6.jpg,stim/latef.jpg,EF,1,2,,,,,,,,,0,53,53,41,,,,,,,,,,2,1,0.73308593276,,,,,,2016_Aug_23_0917,P6,PLC_L_D2S1,NHGX,60.0145214742,
stim/posf.jpg,stim/negf.jpg,stim/3.jpg,stim/2.jpg,stim/latef.jpg,AB,1,2,,,,,,,,,0,54,54,2,,,,,,,,,,2,1,0.649780591802,,,,,,2016_Aug_23_0917,P6,PLC_L_D2S1,NHGX,60.0145214742,
stim/posf.jpg,stim/negf.jpg,stim/3.jpg,stim/2.jpg,stim/latef.jpg,AB,1,2,,,,,,,,,0,55,55,4,,,,,,,,,,4,0,0.533136609261,,,,,,2016_Aug_23_0917,P6,PLC_L_D2S1,NHGX,60.0145214742,
stim/posf.jpg,stim/negf.jpg,stim/2.jpg,stim/3.jpg,stim/latef.jpg,AB,2,4,,,,,,,,,0,56,56,13,,,,,,,,,,4,1,1.14963170214,,,,,,2016_Aug_23_0917,P6,PLC_L_D2S1,NHGX,60.0145214742,
stim/posf.jpg,stim/negf.jpg,stim/1.jpg,stim/5.jpg,stim/latef.jpg,CD,1,2,,,,,,,,,0,57,57,24,,,,,,,,,,2,1,0.983014578141,,,,,,2016_Aug_23_0917,P6,PLC_L_D2S1,NHGX,60.0145214742,
stim/posf.jpg,stim/negf.jpg,stim/2.jpg,stim/3.jpg,stim/latef.jpg,AB,2,4,,,,,,,,,0,58,58,12,,,,,,,,,,4,1,1.33292335593,,,,,,2016_Aug_23_0917,P6,PLC_L_D2S1,NHGX,60.0145214742,
stim/posf.jpg,stim/negf.jpg,stim/2.jpg,stim/3.jpg,stim/latef.jpg,AB,2,4,,,,,,,,,0,59,59,15,,,,,,,,,,4,1,0.866378929403,,,,,,2016_Aug_23_0917,P6,PLC_L_D2S1,NHGX,60.0145214742,
,,,,,,,,,,,,,,,,,,,,,,,,,,,,,,,,0.9984375,0.97265625,1,0,0,2016_Aug_23_0917,P6,PLC_L_D2S1,NHGX,60.0145214742,
stim/negf.jpg,stim/posf.jpg,stim/5.jpg,stim/1.jpg,stim/latef.jpg,CD,2,4,,,,,,,,,,,,,0,0,0,39,,,,,,4,1,1.21626395089,,,,,,2016_Aug_23_0917,P6,PLC_L_D2S1,NHGX,60.0145214742,
stim/posf.jpg,stim/negf.jpg,stim/3.jpg,stim/2.jpg,stim/latef.jpg,AB,1,2,,,,,,,,,,,,,0,1,1,3,,,,,,2,1,1.34955105883,,,,,,2016_Aug_23_0917,P6,PLC_L_D2S1,NHGX,60.0145214742,
stim/posf.jpg,stim/negf.jpg,stim/5.jpg,stim/1.jpg,stim/latef.jpg,CD,2,4,,,,,,,,,,,,,0,2,2,30,,,,,,4,1,1.08297951361,,,,,,2016_Aug_23_0917,P6,PLC_L_D2S1,NHGX,60.0145214742,
stim/negf.jpg,stim/posf.jpg,stim/3.jpg,stim/2.jpg,stim/latef.jpg,AB,1,2,,,,,,,,,,,,,0,3,3,9,,,,,,2,1,1.09964416675,,,,,,2016_Aug_23_0917,P6,PLC_L_D2S1,NHGX,60.0145214742,
stim/posf.jpg,stim/negf.jpg,stim/1.jpg,stim/5.jpg,stim/latef.jpg,CD,1,2,,,,,,,,,,,,,0,4,4,23,,,,,,2,1,1.0330062308,,,,,,2016_Aug_23_0917,P6,PLC_L_D2S1,NHGX,60.0145214742,
stim/posf.jpg,stim/negf.jpg,stim/1.jpg,stim/5.jpg,stim/latef.jpg,CD,1,2,,,,,,,,,,,,,0,5,5,21,,,,,,2,1,1.36622742621,,,,,,2016_Aug_23_0917,P6,PLC_L_D2S1,NHGX,60.0145214742,
stim/negf.jpg,stim/posf.jpg,stim/6.jpg,stim/4.jpg,stim/latef.jpg,EF,2,4,,,,,,,,,,,,,0,6,6,57,,,,,,4,1,1.29959339401,,,,,,2016_Aug_23_0917,P6,PLC_L_D2S1,NHGX,60.0145214742,
stim/posf.jpg,stim/negf.jpg,stim/4.jpg,stim/6.jpg,stim/latef.jpg,EF,1,2,,,,,,,,,,,,,0,7,7,44,,,,,,2,1,1.41620750899,,,,,,2016_Aug_23_0917,P6,PLC_L_D2S1,NHGX,60.0145214742,
stim/negf.jpg,stim/posf.jpg,stim/1.jpg,stim/5.jpg,stim/latef.jpg,CD,1,2,,,,,,,,,,,,,0,8,8,28,,,,,,2,1,1.51618149405,,,,,,2016_Aug_23_0917,P6,PLC_L_D2S1,NHGX,60.0145214742,
stim/posf.jpg,stim/negf.jpg,stim/4.jpg,stim/6.jpg,stim/latef.jpg,EF,1,2,,,,,,,,,,,,,0,9,9,42,,,,,,2,1,1.46619237973,,,,,,2016_Aug_23_0917,P6,PLC_L_D2S1,NHGX,60.0145214742,
stim/negf.jpg,stim/posf.jpg,stim/2.jpg,stim/3.jpg,stim/latef.jpg,AB,2,4,,,,,,,,,,,,,0,10,10,19,,,,,,4,1,1.3328891756,,,,,,2016_Aug_23_0917,P6,PLC_L_D2S1,NHGX,60.0145214742,
stim/negf.jpg,stim/posf.jpg,stim/4.jpg,stim/6.jpg,stim/latef.jpg,EF,1,2,,,,,,,,,,,,,0,11,11,49,,,,,,2,1,1.54950559133,,,,,,2016_Aug_23_0917,P6,PLC_L_D2S1,NHGX,60.0145214742,
stim/posf.jpg,stim/negf.jpg,stim/1.jpg,stim/5.jpg,stim/latef.jpg,CD,1,2,,,,,,,,,,,,,0,12,12,25,,,,,,2,1,1.63277939857,,,,,,2016_Aug_23_0917,P6,PLC_L_D2S1,NHGX,60.0145214742,
stim/posf.jpg,stim/negf.jpg,stim/2.jpg,stim/3.jpg,stim/latef.jpg,AB,2,4,,,,,,,,,,,,,0,13,13,11,,,,,,4,1,1.06626489374,,,,,,2016_Aug_23_0917,P6,PLC_L_D2S1,NHGX,60.0145214742,
stim/posf.jpg,stim/negf.jpg,stim/1.jpg,stim/5.jpg,stim/latef.jpg,CD,1,2,,,,,,,,,,,,,0,14,14,20,,,,,,4,0,1.38288732749,,,,,,2016_Aug_23_0917,P6,PLC_L_D2S1,NHGX,60.0145214742,
stim/posf.jpg,stim/negf.jpg,stim/4.jpg,stim/6.jpg,stim/latef.jpg,EF,1,2,,,,,,,,,,,,,0,15,15,41,,,,,,2,1,1.58282657283,,,,,,2016_Aug_23_0917,P6,PLC_L_D2S1,NHGX,60.0145214742,
stim/posf.jpg,stim/negf.jpg,stim/3.jpg,stim/2.jpg,stim/latef.jpg,AB,1,2,,,,,,,,,,,,,0,16,16,2,,,,,,2,1,0.849719828121,,,,,,2016_Aug_23_0917,P6,PLC_L_D2S1,NHGX,60.0145214742,
stim/posf.jpg,stim/negf.jpg,stim/3.jpg,stim/2.jpg,stim/latef.jpg,AB,1,2,,,,,,,,,,,,,0,17,17,6,,,,,,2,1,0.849731325822,,,,,,2016_Aug_23_0917,P6,PLC_L_D2S1,NHGX,60.0145214742,
stim/negf.jpg,stim/posf.jpg,stim/5.jpg,stim/1.jpg,stim/latef.jpg,CD,2,4,,,,,,,,,,,,,0,18,18,37,,,,,,4,1,1.04967425837,,,,,,2016_Aug_23_0917,P6,PLC_L_D2S1,NHGX,60.0145214742,
stim/posf.jpg,stim/negf.jpg,stim/3.jpg,stim/2.jpg,stim/latef.jpg,AB,1,2,,,,,,,,,,,,,0,19,19,5,,,,,,2,1,0.799758118203,,,,,,2016_Aug_23_0917,P6,PLC_L_D2S1,NHGX,60.0145214742,
stim/posf.jpg,stim/negf.jpg,stim/2.jpg,stim/3.jpg,stim/latef.jpg,AB,2,4,,,,,,,,,,,,,0,20,20,15,,,,,,4,1,0.983075486182,,,,,,2016_Aug_23_0917,P6,PLC_L_D2S1,NHGX,60.0145214742,
stim/posf.jpg,stim/negf.jpg,stim/2.jpg,stim/3.jpg,stim/latef.jpg,AB,2,4,,,,,,,,,,,,,0,21,21,10,,,,,,4,1,0.916357490386,,,,,,2016_Aug_23_0917,P6,PLC_L_D2S1,NHGX,60.0145214742,
stim/posf.jpg,stim/negf.jpg,stim/3.jpg,stim/2.jpg,stim/latef.jpg,AB,1,2,,,,,,,,,,,,,0,22,22,7,,,,,,2,1,1.18293884008,,,,,,2016_Aug_23_0917,P6,PLC_L_D2S1,NHGX,60.0145214742,
stim/posf.jpg,stim/negf.jpg,stim/6.jpg,stim/4.jpg,stim/latef.jpg,EF,2,4,,,,,,,,,,,,,0,23,23,54,,,,,,4,1,1.23290934094,,,,,,2016_Aug_23_0917,P6,PLC_L_D2S1,NHGX,60.0145214742,
stim/negf.jpg,stim/posf.jpg,stim/3.jpg,stim/2.jpg,stim/latef.jpg,AB,1,2,,,,,,,,,,,,,0,24,24,8,,,,,,2,1,1.26626181706,,,,,,2016_Aug_23_0917,P6,PLC_L_D2S1,NHGX,60.0145214742,
stim/posf.jpg,stim/negf.jpg,stim/3.jpg,stim/2.jpg,stim/latef.jpg,AB,1,2,,,,,,,,,,,,,0,25,25,1,,,,,,2,1,1.58281559844,,,,,,2016_Aug_23_0917,P6,PLC_L_D2S1,NHGX,60.0145214742,
stim/posf.jpg,stim/negf.jpg,stim/4.jpg,stim/6.jpg,stim/latef.jpg,EF,1,2,,,,,,,,,,,,,0,26,26,45,,,,,,2,1,1.4995083026,,,,,,2016_Aug_23_0917,P6,PLC_L_D2S1,NHGX,60.0145214742,
stim/posf.jpg,stim/negf.jpg,stim/3.jpg,stim/2.jpg,stim/latef.jpg,AB,1,2,,,,,,,,,,,,,0,27,27,0,,,,,,2,1,1.14957426777,,,,,,2016_Aug_23_0917,P6,PLC_L_D2S1,NHGX,60.0145214742,
stim/posf.jpg,stim/negf.jpg,stim/6.jpg,stim/4.jpg,stim/latef.jpg,EF,2,4,,,,,,,,,,,,,0,28,28,50,,,,,,4,1,1.23292834237,,,,,,2016_Aug_23_0917,P6,PLC_L_D2S1,NHGX,60.0145214742,
stim/negf.jpg,stim/posf.jpg,stim/1.jpg,stim/5.jpg,stim/latef.jpg,CD,1,2,,,,,,,,,,,,,0,29,29,27,,,,,,2,1,1.19962754726,,,,,,2016_Aug_23_0917,P6,PLC_L_D2S1,NHGX,60.0145214742,
stim/posf.jpg,stim/negf.jpg,stim/1.jpg,stim/5.jpg,stim/latef.jpg,CD,1,2,,,,,,,,,,,,,0,30,30,22,,,,,,2,1,0.749762480592,,,,,,2016_Aug_23_0917,P6,PLC_L_D2S1,NHGX,60.0145214742,
stim/negf.jpg,stim/posf.jpg,stim/5.jpg,stim/1.jpg,stim/latef.jpg,CD,2,4,,,,,,,,,,,,,0,31,31,38,,,,,,4,1,1.1162984891,,,,,,2016_Aug_23_0917,P6,PLC_L_D2S1,NHGX,60.0145214742,
stim/negf.jpg,stim/posf.jpg,stim/4.jpg,stim/6.jpg,stim/latef.jpg,EF,1,2,,,,,,,,,,,,,0,32,32,48,,,,,,2,1,1.21627770723,,,,,,2016_Aug_23_0917,P6,PLC_L_D2S1,NHGX,60.0145214742,
stim/posf.jpg,stim/negf.jpg,stim/2.jpg,stim/3.jpg,stim/latef.jpg,AB,2,4,,,,,,,,,,,,,0,33,33,17,,,,,,4,1,1.08298349254,,,,,,2016_Aug_23_0917,P6,PLC_L_D2S1,NHGX,60.0145214742,
stim/negf.jpg,stim/posf.jpg,stim/4.jpg,stim/6.jpg,stim/latef.jpg,EF,1,2,,,,,,,,,,,,,0,34,34,47,,,,,,2,1,1.26621616911,,,,,,2016_Aug_23_0917,P6,PLC_L_D2S1,NHGX,60.0145214742,
stim/posf.jpg,stim/negf.jpg,stim/4.jpg,stim/6.jpg,stim/latef.jpg,EF,1,2,,,,,,,,,,,,,0,35,35,40,,,,,,4,0,0.833057223093,,,,,,2016_Aug_23_0917,P6,PLC_L_D2S1,NHGX,60.0145214742,
stim/posf.jpg,stim/negf.jpg,stim/2.jpg,stim/3.jpg,stim/latef.jpg,AB,2,4,,,,,,,,,,,,,0,36,36,14,,,,,,4,1,1.24959760602,,,,,,2016_Aug_23_0917,P6,PLC_L_D2S1,NHGX,60.0145214742,
stim/posf.jpg,stim/negf.jpg,stim/5.jpg,stim/1.jpg,stim/latef.jpg,CD,2,4,,,,,,,,,,,,,0,37,37,34,,,,,,4,1,1.09966781779,,,,,,2016_Aug_23_0917,P6,PLC_L_D2S1,NHGX,60.0145214742,
stim/posf.jpg,stim/negf.jpg,stim/4.jpg,stim/6.jpg,stim/latef.jpg,EF,1,2,,,,,,,,,,,,,0,38,38,43,,,,,,2,1,0.866385997045,,,,,,2016_Aug_23_0917,P6,PLC_L_D2S1,NHGX,60.0145214742,
stim/posf.jpg,stim/negf.jpg,stim/1.jpg,stim/5.jpg,stim/latef.jpg,CD,1,2,,,,,,,,,,,,,0,39,39,26,,,,,,2,1,0.949686676366,,,,,,2016_Aug_23_0917,P6,PLC_L_D2S1,NHGX,60.0145214742,
stim/negf.jpg,stim/posf.jpg,stim/2.jpg,stim/3.jpg,stim/latef.jpg,AB,2,4,,,,,,,,,,,,,0,40,40,18,,,,,,4,1,1.31622629689,,,,,,2016_Aug_23_0917,P6,PLC_L_D2S1,NHGX,60.0145214742,
stim/posf.jpg,stim/negf.jpg,stim/5.jpg,stim/1.jpg,stim/latef.jpg,CD,2,4,,,,,,,,,,,,,0,41,41,36,,,,,,4,1,1.04959865564,,,,,,2016_Aug_23_0917,P6,PLC_L_D2S1,NHGX,60.0145214742,
stim/posf.jpg,stim/negf.jpg,stim/2.jpg,stim/3.jpg,stim/latef.jpg,AB,2,4,,,,,,,,,,,,,0,42,42,13,,,,,,4,1,0.916337770159,,,,,,2016_Aug_23_0917,P6,PLC_L_D2S1,NHGX,60.0145214742,
stim/posf.jpg,stim/negf.jpg,stim/6.jpg,stim/4.jpg,stim/latef.jpg,EF,2,4,,,,,,,,,,,,,0,43,43,52,,,,,,4,1,0.766397584971,,,,,,2016_Aug_23_0917,P6,PLC_L_D2S1,NHGX,60.0145214742,
stim/posf.jpg,stim/negf.jpg,stim/5.jpg,stim/1.jpg,stim/latef.jpg,CD,2,4,,,,,,,,,,,,,0,44,44,33,,,,,,4,1,1.21626969222,,,,,,2016_Aug_23_0917,P6,PLC_L_D2S1,NHGX,60.0145214742,
stim/posf.jpg,stim/negf.jpg,stim/6.jpg,stim/4.jpg,stim/latef.jpg,EF,2,4,,,,,,,,,,,,,0,45,45,53,,,,,,4,1,1.14967932,,,,,,2016_Aug_23_0917,P6,PLC_L_D2S1,NHGX,60.0145214742,
stim/negf.jpg,stim/posf.jpg,stim/1.jpg,stim/5.jpg,stim/latef.jpg,CD,1,2,,,,,,,,,,,,,0,46,46,29,,,,,,2,1,1.36620997064,,,,,,2016_Aug_23_0917,P6,PLC_L_D2S1,NHGX,60.0145214742,
stim/negf.jpg,stim/posf.jpg,stim/4.jpg,stim/6.jpg,stim/latef.jpg,EF,1,2,,,,,,,,,,,,,0,47,47,46,,,,,,2,1,0.933028020195,,,,,,2016_Aug_23_0917,P6,PLC_L_D2S1,NHGX,60.0145214742,
stim/negf.jpg,stim/posf.jpg,stim/6.jpg,stim/4.jpg,stim/latef.jpg,EF,2,4,,,,,,,,,,,,,0,48,48,56,,,,,,4,1,1.36615835279,,,,,,2016_Aug_23_0917,P6,PLC_L_D2S1,NHGX,60.0145214742,
stim/posf.jpg,stim/negf.jpg,stim/3.jpg,stim/2.jpg,stim/latef.jpg,AB,1,2,,,,,,,,,,,,,0,49,49,4,,,,,,2,1,0.916358744516,,,,,,2016_Aug_23_0917,P6,PLC_L_D2S1,NHGX,60.0145214742,
stim/posf.jpg,stim/negf.jpg,stim/2.jpg,stim/3.jpg,stim/latef.jpg,AB,2,4,,,,,,,,,,,,,0,50,50,12,,,,,,4,1,1.232915374,,,,,,2016_Aug_23_0917,P6,PLC_L_D2S1,NHGX,60.0145214742,
stim/posf.jpg,stim/negf.jpg,stim/5.jpg,stim/1.jpg,stim/latef.jpg,CD,2,4,,,,,,,,,,,,,0,51,51,31,,,,,,4,1,1.46617787452,,,,,,2016_Aug_23_0917,P6,PLC_L_D2S1,NHGX,60.0145214742,
stim/posf.jpg,stim/negf.jpg,stim/2.jpg,stim/3.jpg,stim/latef.jpg,AB,2,4,,,,,,,,,,,,,0,52,52,16,,,,,,4,1,1.09963187808,,,,,,2016_Aug_23_0917,P6,PLC_L_D2S1,NHGX,60.0145214742,
stim/negf.jpg,stim/posf.jpg,stim/6.jpg,stim/4.jpg,stim/latef.jpg,EF,2,4,,,,,,,,,,,,,0,53,53,59,,,,,,2,0,1.33292433036,,,,,,2016_Aug_23_0917,P6,PLC_L_D2S1,NHGX,60.0145214742,
stim/posf.jpg,stim/negf.jpg,stim/1.jpg,stim/5.jpg,stim/latef.jpg,CD,1,2,,,,,,,,,,,,,0,54,54,24,,,,,,2,1,1.14962951267,,,,,,2016_Aug_23_0917,P6,PLC_L_D2S1,NHGX,60.0145214742,
stim/posf.jpg,stim/negf.jpg,stim/5.jpg,stim/1.jpg,stim/latef.jpg,CD,2,4,,,,,,,,,,,,,0,55,55,32,,,,,,4,1,0.949688995154,,,,,,2016_Aug_23_0917,P6,PLC_L_D2S1,NHGX,60.0145214742,
stim/posf.jpg,stim/negf.jpg,stim/5.jpg,stim/1.jpg,stim/latef.jpg,CD,2,4,,,,,,,,,,,,,0,56,56,35,,,,,,4,1,0.982998719554,,,,,,2016_Aug_23_0917,P6,PLC_L_D2S1,NHGX,60.0145214742,
stim/posf.jpg,stim/negf.jpg,stim/6.jpg,stim/4.jpg,stim/latef.jpg,EF,2,4,,,,,,,,,,,,,0,57,57,51,,,,,,4,1,0.999666644862,,,,,,2016_Aug_23_0917,P6,PLC_L_D2S1,NHGX,60.0145214742,
stim/posf.jpg,stim/negf.jpg,stim/6.jpg,stim/4.jpg,stim/latef.jpg,EF,2,4,,,,,,,,,,,,,0,58,58,55,,,,,,4,1,1.18294367314,,,,,,2016_Aug_23_0917,P6,PLC_L_D2S1,NHGX,60.0145214742,
stim/negf.jpg,stim/posf.jpg,stim/6.jpg,stim/4.jpg,stim/latef.jpg,EF,2,4,,,,,,,,,,,,,0,59,59,58,,,,,,2,0,1.03305968023,,,,,,2016_Aug_23_0917,P6,PLC_L_D2S1,NHGX,60.0145214742,
