fb_corr,fb_incorr,symbol2,symbol1,fb_late,pair,position,correct,block_01.thisRepN,block_01.thisTrialN,block_01.thisN,block_01.thisIndex,block_02.thisRepN,block_02.thisTrialN,block_02.thisN,block_02.thisIndex,block_03.thisRepN,block_03.thisTrialN,block_03.thisN,block_03.thisIndex,block_04.thisRepN,block_04.thisTrialN,block_04.thisN,block_04.thisIndex,mouse.x,mouse.y,mouse.leftButton,mouse.midButton,mouse.rightButton,buttonBox_2.keys,buttonBox_2.corr,buttonBox_2.rt,mouse_2.x,mouse_2.y,mouse_2.leftButton,mouse_2.midButton,mouse_2.rightButton,date,Participant,expName,Group,frameRate,
,,,,,,,,,,,,,,,,,,,,,,,,0.9984375,0.912109375,1,0,0,,,,,,,,,2016_Aug_30_1032,P7,PLC_L_D2S1,NHGX,60.021030771,
stim/posf.jpg,stim/negf.jpg,stim/6.jpg,stim/2.jpg,stim/latef.jpg,AB,1,2,0,0,0,3,,,,,,,,,,,,,,,,,,None,0,,,,,,,2016_Aug_30_1032,P7,PLC_L_D2S1,NHGX,60.021030771,
stim/negf.jpg,stim/posf.jpg,stim/3.jpg,stim/4.jpg,stim/latef.jpg,EF,2,4,0,1,1,56,,,,,,,,,,,,,,,,,,4,1,0.899746724661,,,,,,2016_Aug_30_1032,P7,PLC_L_D2S1,NHGX,60.021030771,
stim/posf.jpg,stim/negf.jpg,stim/5.jpg,stim/1.jpg,stim/latef.jpg,CD,2,4,0,2,2,34,,,,,,,,,,,,,,,,,,2,0,1.14960817735,,,,,,2016_Aug_30_1032,P7,PLC_L_D2S1,NHGX,60.021030771,
stim/negf.jpg,stim/posf.jpg,stim/3.jpg,stim/4.jpg,stim/latef.jpg,EF,2,4,0,3,3,59,,,,,,,,,,,,,,,,,,4,1,1.26624770698,,,,,,2016_Aug_30_1032,P7,PLC_L_D2S1,NHGX,60.021030771,
stim/posf.jpg,stim/negf.jpg,stim/1.jpg,stim/5.jpg,stim/latef.jpg,CD,1,2,0,4,4,22,,,,,,,,,,,,,,,,,,2,1,1.34952846396,,,,,,2016_Aug_30_1032,P7,PLC_L_D2S1,NHGX,60.021030771,
stim/posf.jpg,stim/negf.jpg,stim/2.jpg,stim/6.jpg,stim/latef.jpg,AB,2,4,0,5,5,16,,,,,,,,,,,,,,,,,,2,0,1.2495920843,,,,,,2016_Aug_30_1032,P7,PLC_L_D2S1,NHGX,60.021030771,
stim/posf.jpg,stim/negf.jpg,stim/6.jpg,stim/2.jpg,stim/latef.jpg,AB,1,2,0,6,6,1,,,,,,,,,,,,,,,,,,2,1,1.41620485784,,,,,,2016_Aug_30_1032,P7,PLC_L_D2S1,NHGX,60.021030771,
stim/posf.jpg,stim/negf.jpg,stim/4.jpg,stim/3.jpg,stim/latef.jpg,EF,1,2,0,7,7,43,,,,,,,,,,,,,,,,,,2,1,1.63277745589,,,,,,2016_Aug_30_1032,P7,PLC_L_D2S1,NHGX,60.021030771,
stim/negf.jpg,stim/posf.jpg,stim/5.jpg,stim/1.jpg,stim/latef.jpg,CD,2,4,0,8,8,38,,,,,,,,,,,,,,,,,,4,1,1.43285888054,,,,,,2016_Aug_30_1032,P7,PLC_L_D2S1,NHGX,60.021030771,
stim/posf.jpg,stim/negf.jpg,stim/6.jpg,stim/2.jpg,stim/latef.jpg,AB,1,2,0,9,9,4,,,,,,,,,,,,,,,,,,2,1,1.58281153521,,,,,,2016_Aug_30_1032,P7,PLC_L_D2S1,NHGX,60.021030771,
stim/posf.jpg,stim/negf.jpg,stim/4.jpg,stim/3.jpg,stim/latef.jpg,EF,1,2,0,10,10,40,,,,,,,,,,,,,,,,,,None,0,,,,,,,2016_Aug_30_1032,P7,PLC_L_D2S1,NHGX,60.021030771,
stim/posf.jpg,stim/negf.jpg,stim/5.jpg,stim/1.jpg,stim/latef.jpg,CD,2,4,0,11,11,36,,,,,,,,,,,,,,,,,,4,1,0.833045251369,,,,,,2016_Aug_30_1032,P7,PLC_L_D2S1,NHGX,60.021030771,
stim/negf.jpg,stim/posf.jpg,stim/5.jpg,stim/1.jpg,stim/latef.jpg,CD,2,4,0,12,12,39,,,,,,,,,,,,,,,,,,4,1,1.03299203392,,,,,,2016_Aug_30_1032,P7,PLC_L_D2S1,NHGX,60.021030771,
stim/posf.jpg,stim/negf.jpg,stim/1.jpg,stim/5.jpg,stim/latef.jpg,CD,1,2,0,13,13,26,,,,,,,,,,,,,,,,,,2,1,0.866360394432,,,,,,2016_Aug_30_1032,P7,PLC_L_D2S1,NHGX,60.021030771,
stim/posf.jpg,stim/negf.jpg,stim/2.jpg,stim/6.jpg,stim/latef.jpg,AB,2,4,0,14,14,13,,,,,,,,,,,,,,,,,,4,1,1.03300016917,,,,,,2016_Aug_30_1032,P7,PLC_L_D2S1,NHGX,60.021030771,
stim/negf.jpg,stim/posf.jpg,stim/4.jpg,stim/3.jpg,stim/latef.jpg,EF,1,2,0,15,15,47,,,,,,,,,,,,,,,,,,2,1,1.29948292012,,,,,,2016_Aug_30_1032,P7,PLC_L_D2S1,NHGX,60.021030771,
stim/posf.jpg,stim/negf.jpg,stim/5.jpg,stim/1.jpg,stim/latef.jpg,CD,2,4,0,16,16,32,,,,,,,,,,,,,,,,,,4,1,1.21625589185,,,,,,2016_Aug_30_1032,P7,PLC_L_D2S1,NHGX,60.021030771,
stim/posf.jpg,stim/negf.jpg,stim/6.jpg,stim/2.jpg,stim/latef.jpg,AB,1,2,0,17,17,6,,,,,,,,,,,,,,,,,,2,1,1.13296094555,,,,,,2016_Aug_30_1032,P7,PLC_L_D2S1,NHGX,60.021030771,
stim/posf.jpg,stim/negf.jpg,stim/2.jpg,stim/6.jpg,stim/latef.jpg,AB,2,4,0,18,18,15,,,,,,,,,,,,,,,,,,4,1,1.36620377364,,,,,,2016_Aug_30_1032,P7,PLC_L_D2S1,NHGX,60.021030771,
stim/posf.jpg,stim/negf.jpg,stim/5.jpg,stim/1.jpg,stim/latef.jpg,CD,2,4,0,19,19,30,,,,,,,,,,,,,,,,,,4,1,1.04965650162,,,,,,2016_Aug_30_1032,P7,PLC_L_D2S1,NHGX,60.021030771,
stim/posf.jpg,stim/negf.jpg,stim/3.jpg,stim/4.jpg,stim/latef.jpg,EF,2,4,0,20,20,53,,,,,,,,,,,,,,,,,,4,1,1.01633648944,,,,,,2016_Aug_30_1032,P7,PLC_L_D2S1,NHGX,60.021030771,
stim/posf.jpg,stim/negf.jpg,stim/6.jpg,stim/2.jpg,stim/latef.jpg,AB,1,2,0,21,21,0,,,,,,,,,,,,,,,,,,2,1,1.23293050981,,,,,,2016_Aug_30_1032,P7,PLC_L_D2S1,NHGX,60.021030771,
stim/posf.jpg,stim/negf.jpg,stim/1.jpg,stim/5.jpg,stim/latef.jpg,CD,1,2,0,22,22,25,,,,,,,,,,,,,,,,,,2,1,1.11630425522,,,,,,2016_Aug_30_1032,P7,PLC_L_D2S1,NHGX,60.021030771,
stim/posf.jpg,stim/negf.jpg,stim/4.jpg,stim/3.jpg,stim/latef.jpg,EF,1,2,0,23,23,41,,,,,,,,,,,,,,,,,,4,0,0.999658238441,,,,,,2016_Aug_30_1032,P7,PLC_L_D2S1,NHGX,60.021030771,
stim/posf.jpg,stim/negf.jpg,stim/4.jpg,stim/3.jpg,stim/latef.jpg,EF,1,2,0,24,24,44,,,,,,,,,,,,,,,,,,2,1,0.833045849859,,,,,,2016_Aug_30_1032,P7,PLC_L_D2S1,NHGX,60.021030771,
stim/posf.jpg,stim/negf.jpg,stim/4.jpg,stim/3.jpg,stim/latef.jpg,EF,1,2,0,25,25,42,,,,,,,,,,,,,,,,,,2,1,0.899698701142,,,,,,2016_Aug_30_1032,P7,PLC_L_D2S1,NHGX,60.021030771,
stim/posf.jpg,stim/negf.jpg,stim/3.jpg,stim/4.jpg,stim/latef.jpg,EF,2,4,0,26,26,52,,,,,,,,,,,,,,,,,,4,1,0.916424765134,,,,,,2016_Aug_30_1032,P7,PLC_L_D2S1,NHGX,60.021030771,
stim/negf.jpg,stim/posf.jpg,stim/4.jpg,stim/3.jpg,stim/latef.jpg,EF,1,2,0,27,27,46,,,,,,,,,,,,,,,,,,2,1,0.566474654797,,,,,,2016_Aug_30_1032,P7,PLC_L_D2S1,NHGX,60.021030771,
stim/posf.jpg,stim/negf.jpg,stim/1.jpg,stim/5.jpg,stim/latef.jpg,CD,1,2,0,28,28,23,,,,,,,,,,,,,,,,,,2,1,0.883117949798,,,,,,2016_Aug_30_1032,P7,PLC_L_D2S1,NHGX,60.021030771,
stim/posf.jpg,stim/negf.jpg,stim/6.jpg,stim/2.jpg,stim/latef.jpg,AB,1,2,0,29,29,7,,,,,,,,,,,,,,,,,,2,1,1.18293915783,,,,,,2016_Aug_30_1032,P7,PLC_L_D2S1,NHGX,60.021030771,
stim/negf.jpg,stim/posf.jpg,stim/4.jpg,stim/3.jpg,stim/latef.jpg,EF,1,2,0,30,30,48,,,,,,,,,,,,,,,,,,2,1,1.13297788972,,,,,,2016_Aug_30_1032,P7,PLC_L_D2S1,NHGX,60.021030771,
stim/posf.jpg,stim/negf.jpg,stim/5.jpg,stim/1.jpg,stim/latef.jpg,CD,2,4,0,31,31,33,,,,,,,,,,,,,,,,,,4,1,0.833063741386,,,,,,2016_Aug_30_1032,P7,PLC_L_D2S1,NHGX,60.021030771,
stim/posf.jpg,stim/negf.jpg,stim/2.jpg,stim/6.jpg,stim/latef.jpg,AB,2,4,0,32,32,11,,,,,,,,,,,,,,,,,,2,0,0.749674537505,,,,,,2016_Aug_30_1032,P7,PLC_L_D2S1,NHGX,60.021030771,
stim/negf.jpg,stim/posf.jpg,stim/1.jpg,stim/5.jpg,stim/latef.jpg,CD,1,2,0,33,33,29,,,,,,,,,,,,,,,,,,2,1,0.866333678943,,,,,,2016_Aug_30_1032,P7,PLC_L_D2S1,NHGX,60.021030771,
stim/negf.jpg,stim/posf.jpg,stim/4.jpg,stim/3.jpg,stim/latef.jpg,EF,1,2,0,34,34,49,,,,,,,,,,,,,,,,,,2,1,0.833061606072,,,,,,2016_Aug_30_1032,P7,PLC_L_D2S1,NHGX,60.021030771,
stim/posf.jpg,stim/negf.jpg,stim/2.jpg,stim/6.jpg,stim/latef.jpg,AB,2,4,0,35,35,17,,,,,,,,,,,,,,,,,,4,1,0.833065055657,,,,,,2016_Aug_30_1032,P7,PLC_L_D2S1,NHGX,60.021030771,
stim/negf.jpg,stim/posf.jpg,stim/2.jpg,stim/6.jpg,stim/latef.jpg,AB,2,4,0,36,36,18,,,,,,,,,,,,,,,,,,4,1,0.666426652331,,,,,,2016_Aug_30_1032,P7,PLC_L_D2S1,NHGX,60.021030771,
stim/posf.jpg,stim/negf.jpg,stim/1.jpg,stim/5.jpg,stim/latef.jpg,CD,1,2,0,37,37,21,,,,,,,,,,,,,,,,,,2,1,0.766395633132,,,,,,2016_Aug_30_1032,P7,PLC_L_D2S1,NHGX,60.021030771,
stim/negf.jpg,stim/posf.jpg,stim/3.jpg,stim/4.jpg,stim/latef.jpg,EF,2,4,0,38,38,58,,,,,,,,,,,,,,,,,,2,0,0.99966091811,,,,,,2016_Aug_30_1032,P7,PLC_L_D2S1,NHGX,60.021030771,
stim/posf.jpg,stim/negf.jpg,stim/3.jpg,stim/4.jpg,stim/latef.jpg,EF,2,4,0,39,39,55,,,,,,,,,,,,,,,,,,2,0,0.649775886738,,,,,,2016_Aug_30_1032,P7,PLC_L_D2S1,NHGX,60.021030771,
stim/posf.jpg,stim/negf.jpg,stim/3.jpg,stim/4.jpg,stim/latef.jpg,EF,2,4,0,40,40,51,,,,,,,,,,,,,,,,,,4,1,0.666444164915,,,,,,2016_Aug_30_1032,P7,PLC_L_D2S1,NHGX,60.021030771,
stim/posf.jpg,stim/negf.jpg,stim/6.jpg,stim/2.jpg,stim/latef.jpg,AB,1,2,0,41,41,5,,,,,,,,,,,,,,,,,,4,0,1.01734670962,,,,,,2016_Aug_30_1032,P7,PLC_L_D2S1,NHGX,60.021030771,
stim/posf.jpg,stim/negf.jpg,stim/1.jpg,stim/5.jpg,stim/latef.jpg,CD,1,2,0,42,42,20,,,,,,,,,,,,,,,,,,2,1,0.699760375635,,,,,,2016_Aug_30_1032,P7,PLC_L_D2S1,NHGX,60.021030771,
stim/negf.jpg,stim/posf.jpg,stim/6.jpg,stim/2.jpg,stim/latef.jpg,AB,1,2,0,43,43,9,,,,,,,,,,,,,,,,,,2,1,0.583118969335,,,,,,2016_Aug_30_1032,P7,PLC_L_D2S1,NHGX,60.021030771,
stim/posf.jpg,stim/negf.jpg,stim/3.jpg,stim/4.jpg,stim/latef.jpg,EF,2,4,0,44,44,54,,,,,,,,,,,,,,,,,,4,1,1.03296968831,,,,,,2016_Aug_30_1032,P7,PLC_L_D2S1,NHGX,60.021030771,
stim/negf.jpg,stim/posf.jpg,stim/3.jpg,stim/4.jpg,stim/latef.jpg,EF,2,4,0,45,45,57,,,,,,,,,,,,,,,,,,2,0,0.683116719736,,,,,,2016_Aug_30_1032,P7,PLC_L_D2S1,NHGX,60.021030771,
stim/posf.jpg,stim/negf.jpg,stim/2.jpg,stim/6.jpg,stim/latef.jpg,AB,2,4,0,46,46,14,,,,,,,,,,,,,,,,,,4,1,0.816325644448,,,,,,2016_Aug_30_1032,P7,PLC_L_D2S1,NHGX,60.021030771,
stim/posf.jpg,stim/negf.jpg,stim/6.jpg,stim/2.jpg,stim/latef.jpg,AB,1,2,0,47,47,2,,,,,,,,,,,,,,,,,,2,1,1.11628578926,,,,,,2016_Aug_30_1032,P7,PLC_L_D2S1,NHGX,60.021030771,
stim/posf.jpg,stim/negf.jpg,stim/5.jpg,stim/1.jpg,stim/latef.jpg,CD,2,4,0,48,48,35,,,,,,,,,,,,,,,,,,4,1,0.983008717947,,,,,,2016_Aug_30_1032,P7,PLC_L_D2S1,NHGX,60.021030771,
stim/posf.jpg,stim/negf.jpg,stim/3.jpg,stim/4.jpg,stim/latef.jpg,EF,2,4,0,49,49,50,,,,,,,,,,,,,,,,,,4,1,1.11630293493,,,,,,2016_Aug_30_1032,P7,PLC_L_D2S1,NHGX,60.021030771,
stim/negf.jpg,stim/posf.jpg,stim/5.jpg,stim/1.jpg,stim/latef.jpg,CD,2,4,0,50,50,37,,,,,,,,,,,,,,,,,,4,1,0.666443187483,,,,,,2016_Aug_30_1032,P7,PLC_L_D2S1,NHGX,60.021030771,
stim/negf.jpg,stim/posf.jpg,stim/2.jpg,stim/6.jpg,stim/latef.jpg,AB,2,4,0,51,51,19,,,,,,,,,,,,,,,,,,4,1,1.09961810356,,,,,,2016_Aug_30_1032,P7,PLC_L_D2S1,NHGX,60.021030771,
stim/posf.jpg,stim/negf.jpg,stim/5.jpg,stim/1.jpg,stim/latef.jpg,CD,2,4,0,52,52,31,,,,,,,,,,,,,,,,,,4,1,0.849715541554,,,,,,2016_Aug_30_1032,P7,PLC_L_D2S1,NHGX,60.021030771,
stim/posf.jpg,stim/negf.jpg,stim/1.jpg,stim/5.jpg,stim/latef.jpg,CD,1,2,0,53,53,24,,,,,,,,,,,,,,,,,,2,1,0.96635019605,,,,,,2016_Aug_30_1032,P7,PLC_L_D2S1,NHGX,60.021030771,
stim/negf.jpg,stim/posf.jpg,stim/1.jpg,stim/5.jpg,stim/latef.jpg,CD,1,2,0,54,54,27,,,,,,,,,,,,,,,,,,2,1,0.549821059161,,,,,,2016_Aug_30_1032,P7,PLC_L_D2S1,NHGX,60.021030771,
stim/posf.jpg,stim/negf.jpg,stim/2.jpg,stim/6.jpg,stim/latef.jpg,AB,2,4,0,55,55,12,,,,,,,,,,,,,,,,,,4,1,0.800706127374,,,,,,2016_Aug_30_1032,P7,PLC_L_D2S1,NHGX,60.021030771,
stim/posf.jpg,stim/negf.jpg,stim/2.jpg,stim/6.jpg,stim/latef.jpg,AB,2,4,0,56,56,10,,,,,,,,,,,,,,,,,,4,1,0.783078921666,,,,,,2016_Aug_30_1032,P7,PLC_L_D2S1,NHGX,60.021030771,
stim/negf.jpg,stim/posf.jpg,stim/6.jpg,stim/2.jpg,stim/latef.jpg,AB,1,2,0,57,57,8,,,,,,,,,,,,,,,,,,2,1,0.583132475949,,,,,,2016_Aug_30_1032,P7,PLC_L_D2S1,NHGX,60.021030771,
stim/negf.jpg,stim/posf.jpg,stim/1.jpg,stim/5.jpg,stim/latef.jpg,CD,1,2,0,58,58,28,,,,,,,,,,,,,,,,,,2,1,0.849729953422,,,,,,2016_Aug_30_1032,P7,PLC_L_D2S1,NHGX,60.021030771,
stim/posf.jpg,stim/negf.jpg,stim/4.jpg,stim/3.jpg,stim/latef.jpg,EF,1,2,0,59,59,45,,,,,,,,,,,,,,,,,,2,1,1.04957795213,,,,,,2016_Aug_30_1032,P7,PLC_L_D2S1,NHGX,60.021030771,
,,,,,,,,,,,,,,,,,,,,,,,,,,,,,,,,0.9984375,0.912109375,1,0,0,2016_Aug_30_1032,P7,PLC_L_D2S1,NHGX,60.021030771,
stim/posf.jpg,stim/negf.jpg,stim/4.jpg,stim/3.jpg,stim/latef.jpg,EF,1,2,,,,,0,0,0,45,,,,,,,,,,,,,,2,1,0.999658653474,,,,,,2016_Aug_30_1032,P7,PLC_L_D2S1,NHGX,60.021030771,
stim/posf.jpg,stim/negf.jpg,stim/5.jpg,stim/1.jpg,stim/latef.jpg,CD,2,4,,,,,0,1,1,32,,,,,,,,,,,,,,4,1,0.683096070345,,,,,,2016_Aug_30_1032,P7,PLC_L_D2S1,NHGX,60.021030771,
stim/posf.jpg,stim/negf.jpg,stim/2.jpg,stim/6.jpg,stim/latef.jpg,AB,2,4,,,,,0,2,2,13,,,,,,,,,,,,,,4,1,0.683170995816,,,,,,2016_Aug_30_1032,P7,PLC_L_D2S1,NHGX,60.021030771,
stim/negf.jpg,stim/posf.jpg,stim/2.jpg,stim/6.jpg,stim/latef.jpg,AB,2,4,,,,,0,3,3,18,,,,,,,,,,,,,,4,1,0.566477535968,,,,,,2016_Aug_30_1032,P7,PLC_L_D2S1,NHGX,60.021030771,
stim/negf.jpg,stim/posf.jpg,stim/4.jpg,stim/3.jpg,stim/latef.jpg,EF,1,2,,,,,0,4,4,46,,,,,,,,,,,,,,2,1,0.866367843972,,,,,,2016_Aug_30_1032,P7,PLC_L_D2S1,NHGX,60.021030771,
stim/posf.jpg,stim/negf.jpg,stim/5.jpg,stim/1.jpg,stim/latef.jpg,CD,2,4,,,,,0,5,5,36,,,,,,,,,,,,,,4,1,0.699768781555,,,,,,2016_Aug_30_1032,P7,PLC_L_D2S1,NHGX,60.021030771,
stim/posf.jpg,stim/negf.jpg,stim/2.jpg,stim/6.jpg,stim/latef.jpg,AB,2,4,,,,,0,6,6,11,,,,,,,,,,,,,,4,1,0.566458660993,,,,,,2016_Aug_30_1032,P7,PLC_L_D2S1,NHGX,60.021030771,
stim/posf.jpg,stim/negf.jpg,stim/1.jpg,stim/5.jpg,stim/latef.jpg,CD,1,2,,,,,0,7,7,26,,,,,,,,,,,,,,2,1,0.533157430555,,,,,,2016_Aug_30_1032,P7,PLC_L_D2S1,NHGX,60.021030771,
stim/negf.jpg,stim/posf.jpg,stim/1.jpg,stim/5.jpg,stim/latef.jpg,CD,1,2,,,,,0,8,8,27,,,,,,,,,,,,,,2,1,0.633104234163,,,,,,2016_Aug_30_1032,P7,PLC_L_D2S1,NHGX,60.021030771,
stim/posf.jpg,stim/negf.jpg,stim/3.jpg,stim/4.jpg,stim/latef.jpg,EF,2,4,,,,,0,9,9,54,,,,,,,,,,,,,,2,0,0.89969917031,,,,,,2016_Aug_30_1032,P7,PLC_L_D2S1,NHGX,60.021030771,
stim/posf.jpg,stim/negf.jpg,stim/6.jpg,stim/2.jpg,stim/latef.jpg,AB,1,2,,,,,0,10,10,1,,,,,,,,,,,,,,4,0,0.633125364752,,,,,,2016_Aug_30_1032,P7,PLC_L_D2S1,NHGX,60.021030771,
stim/negf.jpg,stim/posf.jpg,stim/3.jpg,stim/4.jpg,stim/latef.jpg,EF,2,4,,,,,0,11,11,57,,,,,,,,,,,,,,4,1,0.783034744721,,,,,,2016_Aug_30_1032,P7,PLC_L_D2S1,NHGX,60.021030771,
stim/posf.jpg,stim/negf.jpg,stim/4.jpg,stim/3.jpg,stim/latef.jpg,EF,1,2,,,,,0,12,12,43,,,,,,,,,,,,,,2,1,0.583124936185,,,,,,2016_Aug_30_1032,P7,PLC_L_D2S1,NHGX,60.021030771,
stim/posf.jpg,stim/negf.jpg,stim/1.jpg,stim/5.jpg,stim/latef.jpg,CD,1,2,,,,,0,13,13,22,,,,,,,,,,,,,,2,1,0.849733821047,,,,,,2016_Aug_30_1032,P7,PLC_L_D2S1,NHGX,60.021030771,
stim/negf.jpg,stim/posf.jpg,stim/6.jpg,stim/2.jpg,stim/latef.jpg,AB,1,2,,,,,0,14,14,8,,,,,,,,,,,,,,2,1,0.783053953527,,,,,,2016_Aug_30_1032,P7,PLC_L_D2S1,NHGX,60.021030771,
stim/posf.jpg,stim/negf.jpg,stim/2.jpg,stim/6.jpg,stim/latef.jpg,AB,2,4,,,,,0,15,15,15,,,,,,,,,,,,,,4,1,0.899676954019,,,,,,2016_Aug_30_1032,P7,PLC_L_D2S1,NHGX,60.021030771,
stim/negf.jpg,stim/posf.jpg,stim/3.jpg,stim/4.jpg,stim/latef.jpg,EF,2,4,,,,,0,16,16,59,,,,,,,,,,,,,,4,1,0.783056079819,,,,,,2016_Aug_30_1032,P7,PLC_L_D2S1,NHGX,60.021030771,
stim/posf.jpg,stim/negf.jpg,stim/5.jpg,stim/1.jpg,stim/latef.jpg,CD,2,4,,,,,0,17,17,33,,,,,,,,,,,,,,4,1,0.799752327605,,,,,,2016_Aug_30_1032,P7,PLC_L_D2S1,NHGX,60.021030771,
stim/negf.jpg,stim/posf.jpg,stim/3.jpg,stim/4.jpg,stim/latef.jpg,EF,2,4,,,,,0,18,18,58,,,,,,,,,,,,,,4,1,0.699647378413,,,,,,2016_Aug_30_1032,P7,PLC_L_D2S1,NHGX,60.021030771,
stim/negf.jpg,stim/posf.jpg,stim/5.jpg,stim/1.jpg,stim/latef.jpg,CD,2,4,,,,,0,19,19,37,,,,,,,,,,,,,,4,1,0.766421828325,,,,,,2016_Aug_30_1032,P7,PLC_L_D2S1,NHGX,60.021030771,
stim/posf.jpg,stim/negf.jpg,stim/2.jpg,stim/6.jpg,stim/latef.jpg,AB,2,4,,,,,0,20,20,12,,,,,,,,,,,,,,4,1,0.616448046075,,,,,,2016_Aug_30_1032,P7,PLC_L_D2S1,NHGX,60.021030771,
stim/posf.jpg,stim/negf.jpg,stim/1.jpg,stim/5.jpg,stim/latef.jpg,CD,1,2,,,,,0,21,21,21,,,,,,,,,,,,,,2,1,0.766377401759,,,,,,2016_Aug_30_1032,P7,PLC_L_D2S1,NHGX,60.021030771,
stim/posf.jpg,stim/negf.jpg,stim/3.jpg,stim/4.jpg,stim/latef.jpg,EF,2,4,,,,,0,22,22,55,,,,,,,,,,,,,,4,1,0.849629662823,,,,,,2016_Aug_30_1032,P7,PLC_L_D2S1,NHGX,60.021030771,
stim/negf.jpg,stim/posf.jpg,stim/4.jpg,stim/3.jpg,stim/latef.jpg,EF,1,2,,,,,0,23,23,48,,,,,,,,,,,,,,2,1,0.816376735601,,,,,,2016_Aug_30_1032,P7,PLC_L_D2S1,NHGX,60.021030771,
stim/posf.jpg,stim/negf.jpg,stim/5.jpg,stim/1.jpg,stim/latef.jpg,CD,2,4,,,,,0,24,24,31,,,,,,,,,,,,,,4,1,0.599803590185,,,,,,2016_Aug_30_1032,P7,PLC_L_D2S1,NHGX,60.021030771,
stim/negf.jpg,stim/posf.jpg,stim/1.jpg,stim/5.jpg,stim/latef.jpg,CD,1,2,,,,,0,25,25,29,,,,,,,,,,,,,,2,1,0.666390409131,,,,,,2016_Aug_30_1032,P7,PLC_L_D2S1,NHGX,60.021030771,
stim/posf.jpg,stim/negf.jpg,stim/2.jpg,stim/6.jpg,stim/latef.jpg,AB,2,4,,,,,0,26,26,14,,,,,,,,,,,,,,4,1,0.566485075732,,,,,,2016_Aug_30_1032,P7,PLC_L_D2S1,NHGX,60.021030771,
stim/posf.jpg,stim/negf.jpg,stim/3.jpg,stim/4.jpg,stim/latef.jpg,EF,2,4,,,,,0,27,27,50,,,,,,,,,,,,,,4,1,0.799744075067,,,,,,2016_Aug_30_1032,P7,PLC_L_D2S1,NHGX,60.021030771,
stim/negf.jpg,stim/posf.jpg,stim/5.jpg,stim/1.jpg,stim/latef.jpg,CD,2,4,,,,,0,28,28,39,,,,,,,,,,,,,,4,1,0.599742496137,,,,,,2016_Aug_30_1032,P7,PLC_L_D2S1,NHGX,60.021030771,
stim/posf.jpg,stim/negf.jpg,stim/2.jpg,stim/6.jpg,stim/latef.jpg,AB,2,4,,,,,0,29,29,17,,,,,,,,,,,,,,4,1,0.566492964365,,,,,,2016_Aug_30_1032,P7,PLC_L_D2S1,NHGX,60.021030771,
stim/posf.jpg,stim/negf.jpg,stim/6.jpg,stim/2.jpg,stim/latef.jpg,AB,1,2,,,,,0,30,30,4,,,,,,,,,,,,,,2,1,0.866397215069,,,,,,2016_Aug_30_1032,P7,PLC_L_D2S1,NHGX,60.021030771,
stim/posf.jpg,stim/negf.jpg,stim/4.jpg,stim/3.jpg,stim/latef.jpg,EF,1,2,,,,,0,31,31,41,,,,,,,,,,,,,,2,1,0.966353134363,,,,,,2016_Aug_30_1032,P7,PLC_L_D2S1,NHGX,60.021030771,
stim/posf.jpg,stim/negf.jpg,stim/6.jpg,stim/2.jpg,stim/latef.jpg,AB,1,2,,,,,0,32,32,2,,,,,,,,,,,,,,2,1,1.14954534197,,,,,,2016_Aug_30_1032,P7,PLC_L_D2S1,NHGX,60.021030771,
stim/posf.jpg,stim/negf.jpg,stim/2.jpg,stim/6.jpg,stim/latef.jpg,AB,2,4,,,,,0,33,33,16,,,,,,,,,,,,,,4,1,0.71641660282,,,,,,2016_Aug_30_1032,P7,PLC_L_D2S1,NHGX,60.021030771,
stim/posf.jpg,stim/negf.jpg,stim/4.jpg,stim/3.jpg,stim/latef.jpg,EF,1,2,,,,,0,34,34,42,,,,,,,,,,,,,,2,1,0.566531264685,,,,,,2016_Aug_30_1032,P7,PLC_L_D2S1,NHGX,60.021030771,
stim/negf.jpg,stim/posf.jpg,stim/2.jpg,stim/6.jpg,stim/latef.jpg,AB,2,4,,,,,0,35,35,19,,,,,,,,,,,,,,4,1,0.716458791818,,,,,,2016_Aug_30_1032,P7,PLC_L_D2S1,NHGX,60.021030771,
stim/posf.jpg,stim/negf.jpg,stim/1.jpg,stim/5.jpg,stim/latef.jpg,CD,1,2,,,,,0,36,36,23,,,,,,,,,,,,,,2,1,0.983017905813,,,,,,2016_Aug_30_1032,P7,PLC_L_D2S1,NHGX,60.021030771,
stim/posf.jpg,stim/negf.jpg,stim/3.jpg,stim/4.jpg,stim/latef.jpg,EF,2,4,,,,,0,37,37,52,,,,,,,,,,,,,,4,1,0.716412855494,,,,,,2016_Aug_30_1032,P7,PLC_L_D2S1,NHGX,60.021030771,
stim/negf.jpg,stim/posf.jpg,stim/4.jpg,stim/3.jpg,stim/latef.jpg,EF,1,2,,,,,0,38,38,47,,,,,,,,,,,,,,2,1,0.616412100615,,,,,,2016_Aug_30_1032,P7,PLC_L_D2S1,NHGX,60.021030771,
stim/posf.jpg,stim/negf.jpg,stim/6.jpg,stim/2.jpg,stim/latef.jpg,AB,1,2,,,,,0,39,39,6,,,,,,,,,,,,,,2,1,1.01633063988,,,,,,2016_Aug_30_1032,P7,PLC_L_D2S1,NHGX,60.021030771,
stim/posf.jpg,stim/negf.jpg,stim/1.jpg,stim/5.jpg,stim/latef.jpg,CD,1,2,,,,,0,40,40,25,,,,,,,,,,,,,,2,1,0.6664386943,,,,,,2016_Aug_30_1032,P7,PLC_L_D2S1,NHGX,60.021030771,
stim/negf.jpg,stim/posf.jpg,stim/3.jpg,stim/4.jpg,stim/latef.jpg,EF,2,4,,,,,0,41,41,56,,,,,,,,,,,,,,4,1,0.816399354895,,,,,,2016_Aug_30_1032,P7,PLC_L_D2S1,NHGX,60.021030771,
stim/negf.jpg,stim/posf.jpg,stim/1.jpg,stim/5.jpg,stim/latef.jpg,CD,1,2,,,,,0,42,42,28,,,,,,,,,,,,,,2,1,0.783069408992,,,,,,2016_Aug_30_1032,P7,PLC_L_D2S1,NHGX,60.021030771,
stim/posf.jpg,stim/negf.jpg,stim/3.jpg,stim/4.jpg,stim/latef.jpg,EF,2,4,,,,,0,43,43,53,,,,,,,,,,,,,,4,1,0.766422114036,,,,,,2016_Aug_30_1032,P7,PLC_L_D2S1,NHGX,60.021030771,
stim/posf.jpg,stim/negf.jpg,stim/1.jpg,stim/5.jpg,stim/latef.jpg,CD,1,2,,,,,0,44,44,24,,,,,,,,,,,,,,2,1,0.583139146551,,,,,,2016_Aug_30_1032,P7,PLC_L_D2S1,NHGX,60.021030771,
stim/negf.jpg,stim/posf.jpg,stim/6.jpg,stim/2.jpg,stim/latef.jpg,AB,1,2,,,,,0,45,45,9,,,,,,,,,,,,,,2,1,0.649840418341,,,,,,2016_Aug_30_1032,P7,PLC_L_D2S1,NHGX,60.021030771,
stim/posf.jpg,stim/negf.jpg,stim/6.jpg,stim/2.jpg,stim/latef.jpg,AB,1,2,,,,,0,46,46,0,,,,,,,,,,,,,,2,1,0.666440423604,,,,,,2016_Aug_30_1032,P7,PLC_L_D2S1,NHGX,60.021030771,
stim/posf.jpg,stim/negf.jpg,stim/3.jpg,stim/4.jpg,stim/latef.jpg,EF,2,4,,,,,0,47,47,51,,,,,,,,,,,,,,4,1,0.583120614429,,,,,,2016_Aug_30_1032,P7,PLC_L_D2S1,NHGX,60.021030771,
stim/posf.jpg,stim/negf.jpg,stim/4.jpg,stim/3.jpg,stim/latef.jpg,EF,1,2,,,,,0,48,48,44,,,,,,,,,,,,,,2,1,0.716419225347,,,,,,2016_Aug_30_1032,P7,PLC_L_D2S1,NHGX,60.021030771,
stim/posf.jpg,stim/negf.jpg,stim/1.jpg,stim/5.jpg,stim/latef.jpg,CD,1,2,,,,,0,49,49,20,,,,,,,,,,,,,,2,1,0.599803809731,,,,,,2016_Aug_30_1032,P7,PLC_L_D2S1,NHGX,60.021030771,
stim/negf.jpg,stim/posf.jpg,stim/5.jpg,stim/1.jpg,stim/latef.jpg,CD,2,4,,,,,0,50,50,38,,,,,,,,,,,,,,4,1,0.616472866847,,,,,,2016_Aug_30_1032,P7,PLC_L_D2S1,NHGX,60.021030771,
stim/posf.jpg,stim/negf.jpg,stim/2.jpg,stim/6.jpg,stim/latef.jpg,AB,2,4,,,,,0,51,51,10,,,,,,,,,,,,,,4,1,0.683151537389,,,,,,2016_Aug_30_1032,P7,PLC_L_D2S1,NHGX,60.021030771,
stim/posf.jpg,stim/negf.jpg,stim/6.jpg,stim/2.jpg,stim/latef.jpg,AB,1,2,,,,,0,52,52,3,,,,,,,,,,,,,,2,1,0.966328854938,,,,,,2016_Aug_30_1032,P7,PLC_L_D2S1,NHGX,60.021030771,
stim/posf.jpg,stim/negf.jpg,stim/5.jpg,stim/1.jpg,stim/latef.jpg,CD,2,4,,,,,0,53,53,30,,,,,,,,,,,,,,4,1,0.899716694925,,,,,,2016_Aug_30_1032,P7,PLC_L_D2S1,NHGX,60.021030771,
stim/posf.jpg,stim/negf.jpg,stim/5.jpg,stim/1.jpg,stim/latef.jpg,CD,2,4,,,,,0,54,54,35,,,,,,,,,,,,,,4,1,0.46645311519,,,,,,2016_Aug_30_1032,P7,PLC_L_D2S1,NHGX,60.021030771,
stim/posf.jpg,stim/negf.jpg,stim/4.jpg,stim/3.jpg,stim/latef.jpg,EF,1,2,,,,,0,55,55,40,,,,,,,,,,,,,,2,1,0.866340084886,,,,,,2016_Aug_30_1032,P7,PLC_L_D2S1,NHGX,60.021030771,
stim/negf.jpg,stim/posf.jpg,stim/4.jpg,stim/3.jpg,stim/latef.jpg,EF,1,2,,,,,0,56,56,49,,,,,,,,,,,,,,2,1,0.549809570569,,,,,,2016_Aug_30_1032,P7,PLC_L_D2S1,NHGX,60.021030771,
stim/posf.jpg,stim/negf.jpg,stim/5.jpg,stim/1.jpg,stim/latef.jpg,CD,2,4,,,,,0,57,57,34,,,,,,,,,,,,,,4,1,0.49980652549,,,,,,2016_Aug_30_1032,P7,PLC_L_D2S1,NHGX,60.021030771,
stim/posf.jpg,stim/negf.jpg,stim/6.jpg,stim/2.jpg,stim/latef.jpg,AB,1,2,,,,,0,58,58,7,,,,,,,,,,,,,,2,1,0.799746306621,,,,,,2016_Aug_30_1032,P7,PLC_L_D2S1,NHGX,60.021030771,
stim/posf.jpg,stim/negf.jpg,stim/6.jpg,stim/2.jpg,stim/latef.jpg,AB,1,2,,,,,0,59,59,5,,,,,,,,,,,,,,2,1,0.949677268302,,,,,,2016_Aug_30_1032,P7,PLC_L_D2S1,NHGX,60.021030771,
,,,,,,,,,,,,,,,,,,,,,,,,,,,,,,,,0.9984375,0.912109375,1,0,0,2016_Aug_30_1032,P7,PLC_L_D2S1,NHGX,60.021030771,
stim/negf.jpg,stim/posf.jpg,stim/3.jpg,stim/4.jpg,stim/latef.jpg,EF,2,4,,,,,,,,,0,0,0,59,,,,,,,,,,4,1,0.766359161363,,,,,,2016_Aug_30_1032,P7,PLC_L_D2S1,NHGX,60.021030771,
stim/negf.jpg,stim/posf.jpg,stim/5.jpg,stim/1.jpg,stim/latef.jpg,CD,2,4,,,,,,,,,0,1,1,39,,,,,,,,,,4,1,0.649785567832,,,,,,2016_Aug_30_1032,P7,PLC_L_D2S1,NHGX,60.021030771,
stim/posf.jpg,stim/negf.jpg,stim/2.jpg,stim/6.jpg,stim/latef.jpg,AB,2,4,,,,,,,,,0,2,2,16,,,,,,,,,,4,1,0.666440047669,,,,,,2016_Aug_30_1032,P7,PLC_L_D2S1,NHGX,60.021030771,
stim/negf.jpg,stim/posf.jpg,stim/2.jpg,stim/6.jpg,stim/latef.jpg,AB,2,4,,,,,,,,,0,3,3,19,,,,,,,,,,4,1,0.483177702507,,,,,,2016_Aug_30_1032,P7,PLC_L_D2S1,NHGX,60.021030771,
stim/posf.jpg,stim/negf.jpg,stim/3.jpg,stim/4.jpg,stim/latef.jpg,EF,2,4,,,,,,,,,0,4,4,52,,,,,,,,,,4,1,0.766414075029,,,,,,2016_Aug_30_1032,P7,PLC_L_D2S1,NHGX,60.021030771,
stim/posf.jpg,stim/negf.jpg,stim/4.jpg,stim/3.jpg,stim/latef.jpg,EF,1,2,,,,,,,,,0,5,5,40,,,,,,,,,,2,1,0.949696332748,,,,,,2016_Aug_30_1032,P7,PLC_L_D2S1,NHGX,60.021030771,
stim/posf.jpg,stim/negf.jpg,stim/3.jpg,stim/4.jpg,stim/latef.jpg,EF,2,4,,,,,,,,,0,6,6,51,,,,,,,,,,4,1,0.483156189968,,,,,,2016_Aug_30_1032,P7,PLC_L_D2S1,NHGX,60.021030771,
stim/posf.jpg,stim/negf.jpg,stim/6.jpg,stim/2.jpg,stim/latef.jpg,AB,1,2,,,,,,,,,0,7,7,4,,,,,,,,,,2,1,0.549808975087,,,,,,2016_Aug_30_1032,P7,PLC_L_D2S1,NHGX,60.021030771,
stim/posf.jpg,stim/negf.jpg,stim/2.jpg,stim/6.jpg,stim/latef.jpg,AB,2,4,,,,,,,,,0,8,8,10,,,,,,,,,,4,1,0.666451858062,,,,,,2016_Aug_30_1032,P7,PLC_L_D2S1,NHGX,60.021030771,
stim/posf.jpg,stim/negf.jpg,stim/5.jpg,stim/1.jpg,stim/latef.jpg,CD,2,4,,,,,,,,,0,9,9,31,,,,,,,,,,4,1,0.53319380007,,,,,,2016_Aug_30_1032,P7,PLC_L_D2S1,NHGX,60.021030771,
stim/negf.jpg,stim/posf.jpg,stim/4.jpg,stim/3.jpg,stim/latef.jpg,EF,1,2,,,,,,,,,0,10,10,46,,,,,,,,,,2,1,0.699767052251,,,,,,2016_Aug_30_1032,P7,PLC_L_D2S1,NHGX,60.021030771,
stim/negf.jpg,stim/posf.jpg,stim/2.jpg,stim/6.jpg,stim/latef.jpg,AB,2,4,,,,,,,,,0,11,11,18,,,,,,,,,,4,1,0.466504970245,,,,,,2016_Aug_30_1032,P7,PLC_L_D2S1,NHGX,60.021030771,
stim/posf.jpg,stim/negf.jpg,stim/5.jpg,stim/1.jpg,stim/latef.jpg,CD,2,4,,,,,,,,,0,12,12,32,,,,,,,,,,4,1,0.666427650816,,,,,,2016_Aug_30_1032,P7,PLC_L_D2S1,NHGX,60.021030771,
stim/posf.jpg,stim/negf.jpg,stim/1.jpg,stim/5.jpg,stim/latef.jpg,CD,1,2,,,,,,,,,0,13,13,21,,,,,,,,,,2,1,0.583138644301,,,,,,2016_Aug_30_1032,P7,PLC_L_D2S1,NHGX,60.021030771,
stim/posf.jpg,stim/negf.jpg,stim/1.jpg,stim/5.jpg,stim/latef.jpg,CD,1,2,,,,,,,,,0,14,14,26,,,,,,,,,,2,1,0.566513770146,,,,,,2016_Aug_30_1032,P7,PLC_L_D2S1,NHGX,60.021030771,
stim/posf.jpg,stim/negf.jpg,stim/2.jpg,stim/6.jpg,stim/latef.jpg,AB,2,4,,,,,,,,,0,15,15,13,,,,,,,,,,4,1,0.466478564528,,,,,,2016_Aug_30_1032,P7,PLC_L_D2S1,NHGX,60.021030771,
stim/posf.jpg,stim/negf.jpg,stim/1.jpg,stim/5.jpg,stim/latef.jpg,CD,1,2,,,,,,,,,0,16,16,22,,,,,,,,,,2,1,0.633131160175,,,,,,2016_Aug_30_1032,P7,PLC_L_D2S1,NHGX,60.021030771,
stim/posf.jpg,stim/negf.jpg,stim/4.jpg,stim/3.jpg,stim/latef.jpg,EF,1,2,,,,,,,,,0,17,17,45,,,,,,,,,,2,1,0.633120110675,,,,,,2016_Aug_30_1032,P7,PLC_L_D2S1,NHGX,60.021030771,
stim/posf.jpg,stim/negf.jpg,stim/1.jpg,stim/5.jpg,stim/latef.jpg,CD,1,2,,,,,,,,,0,18,18,24,,,,,,,,,,2,1,0.483154529836,,,,,,2016_Aug_30_1032,P7,PLC_L_D2S1,NHGX,60.021030771,
stim/posf.jpg,stim/negf.jpg,stim/6.jpg,stim/2.jpg,stim/latef.jpg,AB,1,2,,,,,,,,,0,19,19,2,,,,,,,,,,2,1,0.616471456337,,,,,,2016_Aug_30_1032,P7,PLC_L_D2S1,NHGX,60.021030771,
stim/posf.jpg,stim/negf.jpg,stim/4.jpg,stim/3.jpg,stim/latef.jpg,EF,1,2,,,,,,,,,0,20,20,42,,,,,,,,,,2,1,0.6497859167,,,,,,2016_Aug_30_1032,P7,PLC_L_D2S1,NHGX,60.021030771,
stim/posf.jpg,stim/negf.jpg,stim/2.jpg,stim/6.jpg,stim/latef.jpg,AB,2,4,,,,,,,,,0,21,21,11,,,,,,,,,,4,1,0.666508188254,,,,,,2016_Aug_30_1032,P7,PLC_L_D2S1,NHGX,60.021030771,
stim/posf.jpg,stim/negf.jpg,stim/6.jpg,stim/2.jpg,stim/latef.jpg,AB,1,2,,,,,,,,,0,22,22,6,,,,,,,,,,2,1,0.683007993143,,,,,,2016_Aug_30_1032,P7,PLC_L_D2S1,NHGX,60.021030771,
stim/posf.jpg,stim/negf.jpg,stim/5.jpg,stim/1.jpg,stim/latef.jpg,CD,2,4,,,,,,,,,0,23,23,36,,,,,,,,,,4,1,0.566489785454,,,,,,2016_Aug_30_1032,P7,PLC_L_D2S1,NHGX,60.021030771,
stim/posf.jpg,stim/negf.jpg,stim/4.jpg,stim/3.jpg,stim/latef.jpg,EF,1,2,,,,,,,,,0,24,24,44,,,,,,,,,,2,1,0.733147427661,,,,,,2016_Aug_30_1032,P7,PLC_L_D2S1,NHGX,60.021030771,
stim/negf.jpg,stim/posf.jpg,stim/6.jpg,stim/2.jpg,stim/latef.jpg,AB,1,2,,,,,,,,,0,25,25,9,,,,,,,,,,2,1,0.583186508423,,,,,,2016_Aug_30_1032,P7,PLC_L_D2S1,NHGX,60.021030771,
stim/posf.jpg,stim/negf.jpg,stim/6.jpg,stim/2.jpg,stim/latef.jpg,AB,1,2,,,,,,,,,0,26,26,1,,,,,,,,,,2,1,0.449865882716,,,,,,2016_Aug_30_1032,P7,PLC_L_D2S1,NHGX,60.021030771,
stim/negf.jpg,stim/posf.jpg,stim/5.jpg,stim/1.jpg,stim/latef.jpg,CD,2,4,,,,,,,,,0,27,27,38,,,,,,,,,,4,1,0.483205139792,,,,,,2016_Aug_30_1032,P7,PLC_L_D2S1,NHGX,60.021030771,
stim/posf.jpg,stim/negf.jpg,stim/4.jpg,stim/3.jpg,stim/latef.jpg,EF,1,2,,,,,,,,,0,28,28,43,,,,,,,,,,2,1,0.499812841209,,,,,,2016_Aug_30_1032,P7,PLC_L_D2S1,NHGX,60.021030771,
stim/posf.jpg,stim/negf.jpg,stim/5.jpg,stim/1.jpg,stim/latef.jpg,CD,2,4,,,,,,,,,0,29,29,33,,,,,,,,,,4,1,0.483114819006,,,,,,2016_Aug_30_1032,P7,PLC_L_D2S1,NHGX,60.021030771,
stim/negf.jpg,stim/posf.jpg,stim/3.jpg,stim/4.jpg,stim/latef.jpg,EF,2,4,,,,,,,,,0,30,30,57,,,,,,,,,,4,1,0.699730778976,,,,,,2016_Aug_30_1032,P7,PLC_L_D2S1,NHGX,60.021030771,
stim/negf.jpg,stim/posf.jpg,stim/1.jpg,stim/5.jpg,stim/latef.jpg,CD,1,2,,,,,,,,,0,31,31,29,,,,,,,,,,2,1,0.566487785476,,,,,,2016_Aug_30_1032,P7,PLC_L_D2S1,NHGX,60.021030771,
stim/posf.jpg,stim/negf.jpg,stim/6.jpg,stim/2.jpg,stim/latef.jpg,AB,1,2,,,,,,,,,0,32,32,5,,,,,,,,,,2,1,0.883040131126,,,,,,2016_Aug_30_1032,P7,PLC_L_D2S1,NHGX,60.021030771,
stim/posf.jpg,stim/negf.jpg,stim/1.jpg,stim/5.jpg,stim/latef.jpg,CD,1,2,,,,,,,,,0,33,33,20,,,,,,,,,,2,1,0.683096202675,,,,,,2016_Aug_30_1032,P7,PLC_L_D2S1,NHGX,60.021030771,
stim/posf.jpg,stim/negf.jpg,stim/5.jpg,stim/1.jpg,stim/latef.jpg,CD,2,4,,,,,,,,,0,34,34,35,,,,,,,,,,4,1,0.516494815472,,,,,,2016_Aug_30_1032,P7,PLC_L_D2S1,NHGX,60.021030771,
stim/posf.jpg,stim/negf.jpg,stim/6.jpg,stim/2.jpg,stim/latef.jpg,AB,1,2,,,,,,,,,0,35,35,7,,,,,,,,,,2,1,0.649782599445,,,,,,2016_Aug_30_1032,P7,PLC_L_D2S1,NHGX,60.021030771,
stim/posf.jpg,stim/negf.jpg,stim/2.jpg,stim/6.jpg,stim/latef.jpg,AB,2,4,,,,,,,,,0,36,36,12,,,,,,,,,,4,1,0.583081168257,,,,,,2016_Aug_30_1032,P7,PLC_L_D2S1,NHGX,60.021030771,
stim/negf.jpg,stim/posf.jpg,stim/1.jpg,stim/5.jpg,stim/latef.jpg,CD,1,2,,,,,,,,,0,37,37,28,,,,,,,,,,2,1,0.616465609786,,,,,,2016_Aug_30_1032,P7,PLC_L_D2S1,NHGX,60.021030771,
stim/posf.jpg,stim/negf.jpg,stim/3.jpg,stim/4.jpg,stim/latef.jpg,EF,2,4,,,,,,,,,0,38,38,50,,,,,,,,,,4,1,0.849732921809,,,,,,2016_Aug_30_1032,P7,PLC_L_D2S1,NHGX,60.021030771,
stim/negf.jpg,stim/posf.jpg,stim/6.jpg,stim/2.jpg,stim/latef.jpg,AB,1,2,,,,,,,,,0,39,39,8,,,,,,,,,,2,1,0.783068205998,,,,,,2016_Aug_30_1032,P7,PLC_L_D2S1,NHGX,60.021030771,
stim/negf.jpg,stim/posf.jpg,stim/4.jpg,stim/3.jpg,stim/latef.jpg,EF,1,2,,,,,,,,,0,40,40,47,,,,,,,,,,4,0,0.633129238392,,,,,,2016_Aug_30_1032,P7,PLC_L_D2S1,NHGX,60.021030771,
stim/posf.jpg,stim/negf.jpg,stim/1.jpg,stim/5.jpg,stim/latef.jpg,CD,1,2,,,,,,,,,0,41,41,23,,,,,,,,,,2,1,0.549785564825,,,,,,2016_Aug_30_1032,P7,PLC_L_D2S1,NHGX,60.021030771,
stim/posf.jpg,stim/negf.jpg,stim/2.jpg,stim/6.jpg,stim/latef.jpg,AB,2,4,,,,,,,,,0,42,42,14,,,,,,,,,,4,1,0.533157090709,,,,,,2016_Aug_30_1032,P7,PLC_L_D2S1,NHGX,60.021030771,
stim/posf.jpg,stim/negf.jpg,stim/2.jpg,stim/6.jpg,stim/latef.jpg,AB,2,4,,,,,,,,,0,43,43,17,,,,,,,,,,4,1,0.649844749119,,,,,,2016_Aug_30_1032,P7,PLC_L_D2S1,NHGX,60.021030771,
stim/posf.jpg,stim/negf.jpg,stim/5.jpg,stim/1.jpg,stim/latef.jpg,CD,2,4,,,,,,,,,0,44,44,30,,,,,,,,,,4,1,0.599768312388,,,,,,2016_Aug_30_1032,P7,PLC_L_D2S1,NHGX,60.021030771,
stim/posf.jpg,stim/negf.jpg,stim/3.jpg,stim/4.jpg,stim/latef.jpg,EF,2,4,,,,,,,,,0,45,45,55,,,,,,,,,,2,0,0.583164448521,,,,,,2016_Aug_30_1032,P7,PLC_L_D2S1,NHGX,60.021030771,
stim/negf.jpg,stim/posf.jpg,stim/4.jpg,stim/3.jpg,stim/latef.jpg,EF,1,2,,,,,,,,,0,46,46,49,,,,,,,,,,2,1,1.08294662541,,,,,,2016_Aug_30_1032,P7,PLC_L_D2S1,NHGX,60.021030771,
stim/posf.jpg,stim/negf.jpg,stim/6.jpg,stim/2.jpg,stim/latef.jpg,AB,1,2,,,,,,,,,0,47,47,0,,,,,,,,,,2,1,1.26624455514,,,,,,2016_Aug_30_1032,P7,PLC_L_D2S1,NHGX,60.021030771,
stim/posf.jpg,stim/negf.jpg,stim/2.jpg,stim/6.jpg,stim/latef.jpg,AB,2,4,,,,,,,,,0,48,48,15,,,,,,,,,,4,1,0.516496099668,,,,,,2016_Aug_30_1032,P7,PLC_L_D2S1,NHGX,60.021030771,
stim/negf.jpg,stim/posf.jpg,stim/5.jpg,stim/1.jpg,stim/latef.jpg,CD,2,4,,,,,,,,,0,49,49,37,,,,,,,,,,4,1,0.716438226637,,,,,,2016_Aug_30_1032,P7,PLC_L_D2S1,NHGX,60.021030771,
stim/posf.jpg,stim/negf.jpg,stim/5.jpg,stim/1.jpg,stim/latef.jpg,CD,2,4,,,,,,,,,0,50,50,34,,,,,,,,,,4,1,0.516400145863,,,,,,2016_Aug_30_1032,P7,PLC_L_D2S1,NHGX,60.021030771,
stim/posf.jpg,stim/negf.jpg,stim/3.jpg,stim/4.jpg,stim/latef.jpg,EF,2,4,,,,,,,,,0,51,51,53,,,,,,,,,,2,0,0.78303399285,,,,,,2016_Aug_30_1032,P7,PLC_L_D2S1,NHGX,60.021030771,
stim/negf.jpg,stim/posf.jpg,stim/3.jpg,stim/4.jpg,stim/latef.jpg,EF,2,4,,,,,,,,,0,52,52,56,,,,,,,,,,4,1,0.566453972324,,,,,,2016_Aug_30_1032,P7,PLC_L_D2S1,NHGX,60.021030771,
stim/posf.jpg,stim/negf.jpg,stim/3.jpg,stim/4.jpg,stim/latef.jpg,EF,2,4,,,,,,,,,0,53,53,54,,,,,,,,,,4,1,0.949682922373,,,,,,2016_Aug_30_1032,P7,PLC_L_D2S1,NHGX,60.021030771,
stim/posf.jpg,stim/negf.jpg,stim/4.jpg,stim/3.jpg,stim/latef.jpg,EF,1,2,,,,,,,,,0,54,54,41,,,,,,,,,,2,1,0.633099969549,,,,,,2016_Aug_30_1032,P7,PLC_L_D2S1,NHGX,60.021030771,
stim/negf.jpg,stim/posf.jpg,stim/4.jpg,stim/3.jpg,stim/latef.jpg,EF,1,2,,,,,,,,,0,55,55,48,,,,,,,,,,2,1,0.449840126615,,,,,,2016_Aug_30_1032,P7,PLC_L_D2S1,NHGX,60.021030771,
stim/posf.jpg,stim/negf.jpg,stim/6.jpg,stim/2.jpg,stim/latef.jpg,AB,1,2,,,,,,,,,0,56,56,3,,,,,,,,,,4,0,0.499825857603,,,,,,2016_Aug_30_1032,P7,PLC_L_D2S1,NHGX,60.021030771,
stim/posf.jpg,stim/negf.jpg,stim/1.jpg,stim/5.jpg,stim/latef.jpg,CD,1,2,,,,,,,,,0,57,57,25,,,,,,,,,,2,1,0.699699398879,,,,,,2016_Aug_30_1032,P7,PLC_L_D2S1,NHGX,60.021030771,
stim/negf.jpg,stim/posf.jpg,stim/1.jpg,stim/5.jpg,stim/latef.jpg,CD,1,2,,,,,,,,,0,58,58,27,,,,,,,,,,2,1,0.616392239185,,,,,,2016_Aug_30_1032,P7,PLC_L_D2S1,NHGX,60.021030771,
stim/negf.jpg,stim/posf.jpg,stim/3.jpg,stim/4.jpg,stim/latef.jpg,EF,2,4,,,,,,,,,0,59,59,58,,,,,,,,,,4,1,1.06633674959,,,,,,2016_Aug_30_1032,P7,PLC_L_D2S1,NHGX,60.021030771,
,,,,,,,,,,,,,,,,,,,,,,,,,,,,,,,,0.9984375,0.912109375,1,0,0,2016_Aug_30_1032,P7,PLC_L_D2S1,NHGX,60.021030771,
stim/posf.jpg,stim/negf.jpg,stim/4.jpg,stim/3.jpg,stim/latef.jpg,EF,1,2,,,,,,,,,,,,,0,0,0,41,,,,,,2,1,0.899683675748,,,,,,2016_Aug_30_1032,P7,PLC_L_D2S1,NHGX,60.021030771,
stim/posf.jpg,stim/negf.jpg,stim/2.jpg,stim/6.jpg,stim/latef.jpg,AB,2,4,,,,,,,,,,,,,0,1,1,15,,,,,,4,1,0.966404231531,,,,,,2016_Aug_30_1032,P7,PLC_L_D2S1,NHGX,60.021030771,
stim/posf.jpg,stim/negf.jpg,stim/4.jpg,stim/3.jpg,stim/latef.jpg,EF,1,2,,,,,,,,,,,,,0,2,2,45,,,,,,2,1,0.849776295756,,,,,,2016_Aug_30_1032,P7,PLC_L_D2S1,NHGX,60.021030771,
stim/posf.jpg,stim/negf.jpg,stim/6.jpg,stim/2.jpg,stim/latef.jpg,AB,1,2,,,,,,,,,,,,,0,3,3,3,,,,,,2,1,0.866377266422,,,,,,2016_Aug_30_1032,P7,PLC_L_D2S1,NHGX,60.021030771,
stim/posf.jpg,stim/negf.jpg,stim/2.jpg,stim/6.jpg,stim/latef.jpg,AB,2,4,,,,,,,,,,,,,0,4,4,12,,,,,,4,1,0.916390837697,,,,,,2016_Aug_30_1032,P7,PLC_L_D2S1,NHGX,60.021030771,
stim/negf.jpg,stim/posf.jpg,stim/6.jpg,stim/2.jpg,stim/latef.jpg,AB,1,2,,,,,,,,,,,,,0,5,5,9,,,,,,2,1,1.14961759078,,,,,,2016_Aug_30_1032,P7,PLC_L_D2S1,NHGX,60.021030771,
stim/posf.jpg,stim/negf.jpg,stim/6.jpg,stim/2.jpg,stim/latef.jpg,AB,1,2,,,,,,,,,,,,,0,6,6,2,,,,,,2,1,0.616418596783,,,,,,2016_Aug_30_1032,P7,PLC_L_D2S1,NHGX,60.021030771,
stim/posf.jpg,stim/negf.jpg,stim/2.jpg,stim/6.jpg,stim/latef.jpg,AB,2,4,,,,,,,,,,,,,0,7,7,11,,,,,,4,1,0.899702319147,,,,,,2016_Aug_30_1032,P7,PLC_L_D2S1,NHGX,60.021030771,
stim/posf.jpg,stim/negf.jpg,stim/1.jpg,stim/5.jpg,stim/latef.jpg,CD,1,2,,,,,,,,,,,,,0,8,8,23,,,,,,2,1,0.816415472006,,,,,,2016_Aug_30_1032,P7,PLC_L_D2S1,NHGX,60.021030771,
stim/posf.jpg,stim/negf.jpg,stim/3.jpg,stim/4.jpg,stim/latef.jpg,EF,2,4,,,,,,,,,,,,,0,9,9,53,,,,,,4,1,0.849722542979,,,,,,2016_Aug_30_1032,P7,PLC_L_D2S1,NHGX,60.021030771,
stim/negf.jpg,stim/posf.jpg,stim/3.jpg,stim/4.jpg,stim/latef.jpg,EF,2,4,,,,,,,,,,,,,0,10,10,58,,,,,,4,1,0.883036209366,,,,,,2016_Aug_30_1032,P7,PLC_L_D2S1,NHGX,60.021030771,
stim/negf.jpg,stim/posf.jpg,stim/5.jpg,stim/1.jpg,stim/latef.jpg,CD,2,4,,,,,,,,,,,,,0,11,11,37,,,,,,4,1,0.716422635835,,,,,,2016_Aug_30_1032,P7,PLC_L_D2S1,NHGX,60.021030771,
stim/posf.jpg,stim/negf.jpg,stim/4.jpg,stim/3.jpg,stim/latef.jpg,EF,1,2,,,,,,,,,,,,,0,12,12,40,,,,,,2,1,0.583154980959,,,,,,2016_Aug_30_1032,P7,PLC_L_D2S1,NHGX,60.021030771,
stim/negf.jpg,stim/posf.jpg,stim/4.jpg,stim/3.jpg,stim/latef.jpg,EF,1,2,,,,,,,,,,,,,0,13,13,49,,,,,,2,1,1.03297783258,,,,,,2016_Aug_30_1032,P7,PLC_L_D2S1,NHGX,60.021030771,
stim/posf.jpg,stim/negf.jpg,stim/1.jpg,stim/5.jpg,stim/latef.jpg,CD,1,2,,,,,,,,,,,,,0,14,14,21,,,,,,2,1,0.71634956899,,,,,,2016_Aug_30_1032,P7,PLC_L_D2S1,NHGX,60.021030771,
stim/posf.jpg,stim/negf.jpg,stim/4.jpg,stim/3.jpg,stim/latef.jpg,EF,1,2,,,,,,,,,,,,,0,15,15,42,,,,,,2,1,0.733107121348,,,,,,2016_Aug_30_1032,P7,PLC_L_D2S1,NHGX,60.021030771,
stim/posf.jpg,stim/negf.jpg,stim/3.jpg,stim/4.jpg,stim/latef.jpg,EF,2,4,,,,,,,,,,,,,0,16,16,51,,,,,,4,1,0.93300390146,,,,,,2016_Aug_30_1032,P7,PLC_L_D2S1,NHGX,60.021030771,
stim/negf.jpg,stim/posf.jpg,stim/4.jpg,stim/3.jpg,stim/latef.jpg,EF,1,2,,,,,,,,,,,,,0,17,17,46,,,,,,2,1,0.583106837141,,,,,,2016_Aug_30_1032,P7,PLC_L_D2S1,NHGX,60.021030771,
stim/negf.jpg,stim/posf.jpg,stim/6.jpg,stim/2.jpg,stim/latef.jpg,AB,1,2,,,,,,,,,,,,,0,18,18,8,,,,,,2,1,0.666502146216,,,,,,2016_Aug_30_1032,P7,PLC_L_D2S1,NHGX,60.021030771,
stim/posf.jpg,stim/negf.jpg,stim/6.jpg,stim/2.jpg,stim/latef.jpg,AB,1,2,,,,,,,,,,,,,0,19,19,4,,,,,,2,1,0.48316313425,,,,,,2016_Aug_30_1032,P7,PLC_L_D2S1,NHGX,60.021030771,
stim/posf.jpg,stim/negf.jpg,stim/5.jpg,stim/1.jpg,stim/latef.jpg,CD,2,4,,,,,,,,,,,,,0,20,20,34,,,,,,4,1,0.53315740048,,,,,,2016_Aug_30_1032,P7,PLC_L_D2S1,NHGX,60.021030771,
stim/posf.jpg,stim/negf.jpg,stim/5.jpg,stim/1.jpg,stim/latef.jpg,CD,2,4,,,,,,,,,,,,,0,21,21,33,,,,,,4,1,0.533093620749,,,,,,2016_Aug_30_1032,P7,PLC_L_D2S1,NHGX,60.021030771,
stim/negf.jpg,stim/posf.jpg,stim/1.jpg,stim/5.jpg,stim/latef.jpg,CD,1,2,,,,,,,,,,,,,0,22,22,27,,,,,,2,1,0.516525437683,,,,,,2016_Aug_30_1032,P7,PLC_L_D2S1,NHGX,60.021030771,
stim/posf.jpg,stim/negf.jpg,stim/6.jpg,stim/2.jpg,stim/latef.jpg,AB,1,2,,,,,,,,,,,,,0,23,23,7,,,,,,2,1,0.533154254651,,,,,,2016_Aug_30_1032,P7,PLC_L_D2S1,NHGX,60.021030771,
stim/posf.jpg,stim/negf.jpg,stim/3.jpg,stim/4.jpg,stim/latef.jpg,EF,2,4,,,,,,,,,,,,,0,24,24,50,,,,,,4,1,0.783080593828,,,,,,2016_Aug_30_1032,P7,PLC_L_D2S1,NHGX,60.021030771,
stim/posf.jpg,stim/negf.jpg,stim/5.jpg,stim/1.jpg,stim/latef.jpg,CD,2,4,,,,,,,,,,,,,0,25,25,32,,,,,,2,0,0.416508310057,,,,,,2016_Aug_30_1032,P7,PLC_L_D2S1,NHGX,60.021030771,
stim/negf.jpg,stim/posf.jpg,stim/4.jpg,stim/3.jpg,stim/latef.jpg,EF,1,2,,,,,,,,,,,,,0,26,26,48,,,,,,2,1,0.599799115048,,,,,,2016_Aug_30_1032,P7,PLC_L_D2S1,NHGX,60.021030771,
stim/posf.jpg,stim/negf.jpg,stim/5.jpg,stim/1.jpg,stim/latef.jpg,CD,2,4,,,,,,,,,,,,,0,27,27,35,,,,,,4,1,0.449903813115,,,,,,2016_Aug_30_1032,P7,PLC_L_D2S1,NHGX,60.021030771,
stim/posf.jpg,stim/negf.jpg,stim/2.jpg,stim/6.jpg,stim/latef.jpg,AB,2,4,,,,,,,,,,,,,0,28,28,17,,,,,,4,1,0.99962964929,,,,,,2016_Aug_30_1032,P7,PLC_L_D2S1,NHGX,60.021030771,
stim/negf.jpg,stim/posf.jpg,stim/5.jpg,stim/1.jpg,stim/latef.jpg,CD,2,4,,,,,,,,,,,,,0,29,29,38,,,,,,4,1,0.599743443495,,,,,,2016_Aug_30_1032,P7,PLC_L_D2S1,NHGX,60.021030771,
stim/posf.jpg,stim/negf.jpg,stim/5.jpg,stim/1.jpg,stim/latef.jpg,CD,2,4,,,,,,,,,,,,,0,30,30,36,,,,,,4,1,0.549808984109,,,,,,2016_Aug_30_1032,P7,PLC_L_D2S1,NHGX,60.021030771,
stim/posf.jpg,stim/negf.jpg,stim/2.jpg,stim/6.jpg,stim/latef.jpg,AB,2,4,,,,,,,,,,,,,0,31,31,16,,,,,,4,1,0.516504701075,,,,,,2016_Aug_30_1032,P7,PLC_L_D2S1,NHGX,60.021030771,
stim/posf.jpg,stim/negf.jpg,stim/6.jpg,stim/2.jpg,stim/latef.jpg,AB,1,2,,,,,,,,,,,,,0,32,32,0,,,,,,2,1,0.766404775886,,,,,,2016_Aug_30_1032,P7,PLC_L_D2S1,NHGX,60.021030771,
stim/posf.jpg,stim/negf.jpg,stim/1.jpg,stim/5.jpg,stim/latef.jpg,CD,1,2,,,,,,,,,,,,,0,33,33,24,,,,,,2,1,0.933078679564,,,,,,2016_Aug_30_1032,P7,PLC_L_D2S1,NHGX,60.021030771,
stim/posf.jpg,stim/negf.jpg,stim/4.jpg,stim/3.jpg,stim/latef.jpg,EF,1,2,,,,,,,,,,,,,0,34,34,43,,,,,,2,1,0.683090289959,,,,,,2016_Aug_30_1032,P7,PLC_L_D2S1,NHGX,60.021030771,
stim/posf.jpg,stim/negf.jpg,stim/1.jpg,stim/5.jpg,stim/latef.jpg,CD,1,2,,,,,,,,,,,,,0,35,35,22,,,,,,4,0,0.449765537983,,,,,,2016_Aug_30_1032,P7,PLC_L_D2S1,NHGX,60.021030771,
stim/negf.jpg,stim/posf.jpg,stim/2.jpg,stim/6.jpg,stim/latef.jpg,AB,2,4,,,,,,,,,,,,,0,36,36,19,,,,,,4,1,0.833059031665,,,,,,2016_Aug_30_1032,P7,PLC_L_D2S1,NHGX,60.021030771,
stim/posf.jpg,stim/negf.jpg,stim/6.jpg,stim/2.jpg,stim/latef.jpg,AB,1,2,,,,,,,,,,,,,0,37,37,1,,,,,,2,1,0.999666325568,,,,,,2016_Aug_30_1032,P7,PLC_L_D2S1,NHGX,60.021030771,
stim/posf.jpg,stim/negf.jpg,stim/3.jpg,stim/4.jpg,stim/latef.jpg,EF,2,4,,,,,,,,,,,,,0,38,38,52,,,,,,4,1,0.516450259584,,,,,,2016_Aug_30_1032,P7,PLC_L_D2S1,NHGX,60.021030771,
stim/negf.jpg,stim/posf.jpg,stim/3.jpg,stim/4.jpg,stim/latef.jpg,EF,2,4,,,,,,,,,,,,,0,39,39,59,,,,,,4,1,0.783057511381,,,,,,2016_Aug_30_1032,P7,PLC_L_D2S1,NHGX,60.021030771,
stim/posf.jpg,stim/negf.jpg,stim/3.jpg,stim/4.jpg,stim/latef.jpg,EF,2,4,,,,,,,,,,,,,0,40,40,55,,,,,,4,1,0.68310701759,,,,,,2016_Aug_30_1032,P7,PLC_L_D2S1,NHGX,60.021030771,
stim/posf.jpg,stim/negf.jpg,stim/1.jpg,stim/5.jpg,stim/latef.jpg,CD,1,2,,,,,,,,,,,,,0,41,41,20,,,,,,2,1,0.566442859667,,,,,,2016_Aug_30_1032,P7,PLC_L_D2S1,NHGX,60.021030771,
stim/posf.jpg,stim/negf.jpg,stim/4.jpg,stim/3.jpg,stim/latef.jpg,EF,1,2,,,,,,,,,,,,,0,42,42,44,,,,,,2,1,0.666363498156,,,,,,2016_Aug_30_1032,P7,PLC_L_D2S1,NHGX,60.021030771,
stim/negf.jpg,stim/posf.jpg,stim/1.jpg,stim/5.jpg,stim/latef.jpg,CD,1,2,,,,,,,,,,,,,0,43,43,29,,,,,,2,1,0.883032074074,,,,,,2016_Aug_30_1032,P7,PLC_L_D2S1,NHGX,60.021030771,
stim/posf.jpg,stim/negf.jpg,stim/6.jpg,stim/2.jpg,stim/latef.jpg,AB,1,2,,,,,,,,,,,,,0,44,44,5,,,,,,2,1,0.63310790931,,,,,,2016_Aug_30_1032,P7,PLC_L_D2S1,NHGX,60.021030771,
stim/posf.jpg,stim/negf.jpg,stim/2.jpg,stim/6.jpg,stim/latef.jpg,AB,2,4,,,,,,,,,,,,,0,45,45,14,,,,,,4,1,0.716413526163,,,,,,2016_Aug_30_1032,P7,PLC_L_D2S1,NHGX,60.021030771,
stim/posf.jpg,stim/negf.jpg,stim/2.jpg,stim/6.jpg,stim/latef.jpg,AB,2,4,,,,,,,,,,,,,0,46,46,10,,,,,,4,1,0.683093342556,,,,,,2016_Aug_30_1032,P7,PLC_L_D2S1,NHGX,60.021030771,
stim/posf.jpg,stim/negf.jpg,stim/3.jpg,stim/4.jpg,stim/latef.jpg,EF,2,4,,,,,,,,,,,,,0,47,47,54,,,,,,4,1,0.583140511949,,,,,,2016_Aug_30_1032,P7,PLC_L_D2S1,NHGX,60.021030771,
stim/posf.jpg,stim/negf.jpg,stim/2.jpg,stim/6.jpg,stim/latef.jpg,AB,2,4,,,,,,,,,,,,,0,48,48,13,,,,,,4,1,0.549855401631,,,,,,2016_Aug_30_1032,P7,PLC_L_D2S1,NHGX,60.021030771,
stim/negf.jpg,stim/posf.jpg,stim/3.jpg,stim/4.jpg,stim/latef.jpg,EF,2,4,,,,,,,,,,,,,0,49,49,56,,,,,,4,1,0.699723801611,,,,,,2016_Aug_30_1032,P7,PLC_L_D2S1,NHGX,60.021030771,
stim/posf.jpg,stim/negf.jpg,stim/1.jpg,stim/5.jpg,stim/latef.jpg,CD,1,2,,,,,,,,,,,,,0,50,50,25,,,,,,2,1,0.749786927215,,,,,,2016_Aug_30_1032,P7,PLC_L_D2S1,NHGX,60.021030771,
stim/posf.jpg,stim/negf.jpg,stim/1.jpg,stim/5.jpg,stim/latef.jpg,CD,1,2,,,,,,,,,,,,,0,51,51,26,,,,,,2,1,0.699766168051,,,,,,2016_Aug_30_1032,P7,PLC_L_D2S1,NHGX,60.021030771,
stim/negf.jpg,stim/posf.jpg,stim/3.jpg,stim/4.jpg,stim/latef.jpg,EF,2,4,,,,,,,,,,,,,0,52,52,57,,,,,,4,1,0.899696469589,,,,,,2016_Aug_30_1032,P7,PLC_L_D2S1,NHGX,60.021030771,
stim/posf.jpg,stim/negf.jpg,stim/6.jpg,stim/2.jpg,stim/latef.jpg,AB,1,2,,,,,,,,,,,,,0,53,53,6,,,,,,2,1,0.616517308451,,,,,,2016_Aug_30_1032,P7,PLC_L_D2S1,NHGX,60.021030771,
stim/negf.jpg,stim/posf.jpg,stim/1.jpg,stim/5.jpg,stim/latef.jpg,CD,1,2,,,,,,,,,,,,,0,54,54,28,,,,,,2,1,0.73308343139,,,,,,2016_Aug_30_1032,P7,PLC_L_D2S1,NHGX,60.021030771,
stim/negf.jpg,stim/posf.jpg,stim/4.jpg,stim/3.jpg,stim/latef.jpg,EF,1,2,,,,,,,,,,,,,0,55,55,47,,,,,,2,1,0.533155586967,,,,,,2016_Aug_30_1032,P7,PLC_L_D2S1,NHGX,60.021030771,
stim/posf.jpg,stim/negf.jpg,stim/5.jpg,stim/1.jpg,stim/latef.jpg,CD,2,4,,,,,,,,,,,,,0,56,56,31,,,,,,4,1,0.799672418732,,,,,,2016_Aug_30_1032,P7,PLC_L_D2S1,NHGX,60.021030771,
stim/negf.jpg,stim/posf.jpg,stim/5.jpg,stim/1.jpg,stim/latef.jpg,CD,2,4,,,,,,,,,,,,,0,57,57,39,,,,,,4,1,0.549802066894,,,,,,2016_Aug_30_1032,P7,PLC_L_D2S1,NHGX,60.021030771,
stim/posf.jpg,stim/negf.jpg,stim/5.jpg,stim/1.jpg,stim/latef.jpg,CD,2,4,,,,,,,,,,,,,0,58,58,30,,,,,,4,1,0.48315080657,,,,,,2016_Aug_30_1032,P7,PLC_L_D2S1,NHGX,60.021030771,
stim/negf.jpg,stim/posf.jpg,stim/2.jpg,stim/6.jpg,stim/latef.jpg,AB,2,4,,,,,,,,,,,,,0,59,59,18,,,,,,2,0,0.51651007545,,,,,,2016_Aug_30_1032,P7,PLC_L_D2S1,NHGX,60.021030771,
