fb_corr,fb_incorr,symbol2,symbol1,fb_late,pair,position,correct,block_01.thisRepN,block_01.thisTrialN,block_01.thisN,block_01.thisIndex,block_02.thisRepN,block_02.thisTrialN,block_02.thisN,block_02.thisIndex,block_03.thisRepN,block_03.thisTrialN,block_03.thisN,block_03.thisIndex,block_04.thisRepN,block_04.thisTrialN,block_04.thisN,block_04.thisIndex,mouse.x,mouse.y,mouse.leftButton,mouse.midButton,mouse.rightButton,buttonBox_2.keys,buttonBox_2.corr,buttonBox_2.rt,mouse_2.x,mouse_2.y,mouse_2.leftButton,mouse_2.midButton,mouse_2.rightButton,date,Participant,expName,Group,frameRate,
,,,,,,,,,,,,,,,,,,,,,,,,0.9984375,1.0,1,0,0,,,,,,,,,2016_Aug_25_1214,P8,PLC_L_D2S1,NHGX,60.0201120163,
stim/posf.jpg,stim/negf.jpg,stim/6.jpg,stim/3.jpg,stim/latef.jpg,EF,2,4,0,0,0,51,,,,,,,,,,,,,,,,,,4,1,0.599824465137,,,,,,2016_Aug_25_1214,P8,PLC_L_D2S1,NHGX,60.0201120163,
stim/negf.jpg,stim/posf.jpg,stim/4.jpg,stim/1.jpg,stim/latef.jpg,AB,1,2,0,1,1,9,,,,,,,,,,,,,,,,,,4,0,0.833015023139,,,,,,2016_Aug_25_1214,P8,PLC_L_D2S1,NHGX,60.0201120163,
stim/posf.jpg,stim/negf.jpg,stim/3.jpg,stim/6.jpg,stim/latef.jpg,EF,1,2,0,2,2,44,,,,,,,,,,,,,,,,,,2,1,0.8330307583,,,,,,2016_Aug_25_1214,P8,PLC_L_D2S1,NHGX,60.0201120163,
stim/posf.jpg,stim/negf.jpg,stim/6.jpg,stim/3.jpg,stim/latef.jpg,EF,2,4,0,3,3,50,,,,,,,,,,,,,,,,,,4,1,0.633146883306,,,,,,2016_Aug_25_1214,P8,PLC_L_D2S1,NHGX,60.0201120163,
stim/posf.jpg,stim/negf.jpg,stim/2.jpg,stim/5.jpg,stim/latef.jpg,CD,2,4,0,4,4,32,,,,,,,,,,,,,,,,,,4,1,0.833110715293,,,,,,2016_Aug_25_1214,P8,PLC_L_D2S1,NHGX,60.0201120163,
stim/negf.jpg,stim/posf.jpg,stim/3.jpg,stim/6.jpg,stim/latef.jpg,EF,1,2,0,5,5,49,,,,,,,,,,,,,,,,,,2,1,0.699794730135,,,,,,2016_Aug_25_1214,P8,PLC_L_D2S1,NHGX,60.0201120163,
stim/posf.jpg,stim/negf.jpg,stim/5.jpg,stim/2.jpg,stim/latef.jpg,CD,1,2,0,6,6,24,,,,,,,,,,,,,,,,,,2,1,0.699768077804,,,,,,2016_Aug_25_1214,P8,PLC_L_D2S1,NHGX,60.0201120163,
stim/negf.jpg,stim/posf.jpg,stim/3.jpg,stim/6.jpg,stim/latef.jpg,EF,1,2,0,7,7,48,,,,,,,,,,,,,,,,,,2,1,0.56652474145,,,,,,2016_Aug_25_1214,P8,PLC_L_D2S1,NHGX,60.0201120163,
stim/posf.jpg,stim/negf.jpg,stim/2.jpg,stim/5.jpg,stim/latef.jpg,CD,2,4,0,8,8,33,,,,,,,,,,,,,,,,,,4,1,0.816391712875,,,,,,2016_Aug_25_1214,P8,PLC_L_D2S1,NHGX,60.0201120163,
stim/negf.jpg,stim/posf.jpg,stim/1.jpg,stim/4.jpg,stim/latef.jpg,AB,2,4,0,9,9,18,,,,,,,,,,,,,,,,,,2,0,0.799706487521,,,,,,2016_Aug_25_1214,P8,PLC_L_D2S1,NHGX,60.0201120163,
stim/posf.jpg,stim/negf.jpg,stim/5.jpg,stim/2.jpg,stim/latef.jpg,CD,1,2,0,10,10,25,,,,,,,,,,,,,,,,,,2,1,0.616485254678,,,,,,2016_Aug_25_1214,P8,PLC_L_D2S1,NHGX,60.0201120163,
stim/posf.jpg,stim/negf.jpg,stim/4.jpg,stim/1.jpg,stim/latef.jpg,AB,1,2,0,11,11,5,,,,,,,,,,,,,,,,,,4,0,0.683117745289,,,,,,2016_Aug_25_1214,P8,PLC_L_D2S1,NHGX,60.0201120163,
stim/posf.jpg,stim/negf.jpg,stim/6.jpg,stim/3.jpg,stim/latef.jpg,EF,2,4,0,12,12,54,,,,,,,,,,,,,,,,,,4,1,0.633103223648,,,,,,2016_Aug_25_1214,P8,PLC_L_D2S1,NHGX,60.0201120163,
stim/posf.jpg,stim/negf.jpg,stim/4.jpg,stim/1.jpg,stim/latef.jpg,AB,1,2,0,13,13,1,,,,,,,,,,,,,,,,,,4,0,0.749743832964,,,,,,2016_Aug_25_1214,P8,PLC_L_D2S1,NHGX,60.0201120163,
stim/negf.jpg,stim/posf.jpg,stim/6.jpg,stim/3.jpg,stim/latef.jpg,EF,2,4,0,14,14,59,,,,,,,,,,,,,,,,,,4,1,0.849693644057,,,,,,2016_Aug_25_1214,P8,PLC_L_D2S1,NHGX,60.0201120163,
stim/negf.jpg,stim/posf.jpg,stim/6.jpg,stim/3.jpg,stim/latef.jpg,EF,2,4,0,15,15,56,,,,,,,,,,,,,,,,,,4,1,0.832950933636,,,,,,2016_Aug_25_1214,P8,PLC_L_D2S1,NHGX,60.0201120163,
stim/posf.jpg,stim/negf.jpg,stim/3.jpg,stim/6.jpg,stim/latef.jpg,EF,1,2,0,16,16,43,,,,,,,,,,,,,,,,,,2,1,0.783059670756,,,,,,2016_Aug_25_1214,P8,PLC_L_D2S1,NHGX,60.0201120163,
stim/posf.jpg,stim/negf.jpg,stim/4.jpg,stim/1.jpg,stim/latef.jpg,AB,1,2,0,17,17,7,,,,,,,,,,,,,,,,,,2,1,0.799745702116,,,,,,2016_Aug_25_1214,P8,PLC_L_D2S1,NHGX,60.0201120163,
stim/posf.jpg,stim/negf.jpg,stim/3.jpg,stim/6.jpg,stim/latef.jpg,EF,1,2,0,18,18,41,,,,,,,,,,,,,,,,,,2,1,0.816430960553,,,,,,2016_Aug_25_1214,P8,PLC_L_D2S1,NHGX,60.0201120163,
stim/posf.jpg,stim/negf.jpg,stim/1.jpg,stim/4.jpg,stim/latef.jpg,AB,2,4,0,19,19,13,,,,,,,,,,,,,,,,,,4,1,0.749752464446,,,,,,2016_Aug_25_1214,P8,PLC_L_D2S1,NHGX,60.0201120163,
stim/posf.jpg,stim/negf.jpg,stim/2.jpg,stim/5.jpg,stim/latef.jpg,CD,2,4,0,20,20,30,,,,,,,,,,,,,,,,,,4,1,0.833001964639,,,,,,2016_Aug_25_1214,P8,PLC_L_D2S1,NHGX,60.0201120163,
stim/negf.jpg,stim/posf.jpg,stim/6.jpg,stim/3.jpg,stim/latef.jpg,EF,2,4,0,21,21,57,,,,,,,,,,,,,,,,,,4,1,0.683095053815,,,,,,2016_Aug_25_1214,P8,PLC_L_D2S1,NHGX,60.0201120163,
stim/negf.jpg,stim/posf.jpg,stim/2.jpg,stim/5.jpg,stim/latef.jpg,CD,2,4,0,22,22,38,,,,,,,,,,,,,,,,,,4,1,0.666514882915,,,,,,2016_Aug_25_1214,P8,PLC_L_D2S1,NHGX,60.0201120163,
stim/posf.jpg,stim/negf.jpg,stim/4.jpg,stim/1.jpg,stim/latef.jpg,AB,1,2,0,23,23,0,,,,,,,,,,,,,,,,,,2,1,0.616455742228,,,,,,2016_Aug_25_1214,P8,PLC_L_D2S1,NHGX,60.0201120163,
stim/posf.jpg,stim/negf.jpg,stim/4.jpg,stim/1.jpg,stim/latef.jpg,AB,1,2,0,24,24,3,,,,,,,,,,,,,,,,,,2,1,0.566470197705,,,,,,2016_Aug_25_1214,P8,PLC_L_D2S1,NHGX,60.0201120163,
stim/posf.jpg,stim/negf.jpg,stim/1.jpg,stim/4.jpg,stim/latef.jpg,AB,2,4,0,25,25,14,,,,,,,,,,,,,,,,,,4,1,0.633127211347,,,,,,2016_Aug_25_1214,P8,PLC_L_D2S1,NHGX,60.0201120163,
stim/negf.jpg,stim/posf.jpg,stim/6.jpg,stim/3.jpg,stim/latef.jpg,EF,2,4,0,26,26,58,,,,,,,,,,,,,,,,,,4,1,0.833078634451,,,,,,2016_Aug_25_1214,P8,PLC_L_D2S1,NHGX,60.0201120163,
stim/posf.jpg,stim/negf.jpg,stim/5.jpg,stim/2.jpg,stim/latef.jpg,CD,1,2,0,27,27,22,,,,,,,,,,,,,,,,,,2,1,1.08295572306,,,,,,2016_Aug_25_1214,P8,PLC_L_D2S1,NHGX,60.0201120163,
stim/posf.jpg,stim/negf.jpg,stim/6.jpg,stim/3.jpg,stim/latef.jpg,EF,2,4,0,28,28,55,,,,,,,,,,,,,,,,,,2,0,0.799759608727,,,,,,2016_Aug_25_1214,P8,PLC_L_D2S1,NHGX,60.0201120163,
stim/negf.jpg,stim/posf.jpg,stim/3.jpg,stim/6.jpg,stim/latef.jpg,EF,1,2,0,29,29,46,,,,,,,,,,,,,,,,,,4,0,0.733084586264,,,,,,2016_Aug_25_1214,P8,PLC_L_D2S1,NHGX,60.0201120163,
stim/posf.jpg,stim/negf.jpg,stim/2.jpg,stim/5.jpg,stim/latef.jpg,CD,2,4,0,30,30,31,,,,,,,,,,,,,,,,,,4,1,1.03298569114,,,,,,2016_Aug_25_1214,P8,PLC_L_D2S1,NHGX,60.0201120163,
stim/posf.jpg,stim/negf.jpg,stim/3.jpg,stim/6.jpg,stim/latef.jpg,EF,1,2,0,31,31,40,,,,,,,,,,,,,,,,,,4,0,0.749818617083,,,,,,2016_Aug_25_1214,P8,PLC_L_D2S1,NHGX,60.0201120163,
stim/posf.jpg,stim/negf.jpg,stim/5.jpg,stim/2.jpg,stim/latef.jpg,CD,1,2,0,32,32,23,,,,,,,,,,,,,,,,,,2,1,0.749752912561,,,,,,2016_Aug_25_1214,P8,PLC_L_D2S1,NHGX,60.0201120163,
stim/negf.jpg,stim/posf.jpg,stim/2.jpg,stim/5.jpg,stim/latef.jpg,CD,2,4,0,33,33,37,,,,,,,,,,,,,,,,,,4,1,0.649784464085,,,,,,2016_Aug_25_1214,P8,PLC_L_D2S1,NHGX,60.0201120163,
stim/negf.jpg,stim/posf.jpg,stim/1.jpg,stim/4.jpg,stim/latef.jpg,AB,2,4,0,34,34,19,,,,,,,,,,,,,,,,,,4,1,0.799419811055,,,,,,2016_Aug_25_1214,P8,PLC_L_D2S1,NHGX,60.0201120163,
stim/posf.jpg,stim/negf.jpg,stim/1.jpg,stim/4.jpg,stim/latef.jpg,AB,2,4,0,35,35,11,,,,,,,,,,,,,,,,,,4,1,0.64976511092,,,,,,2016_Aug_25_1214,P8,PLC_L_D2S1,NHGX,60.0201120163,
stim/negf.jpg,stim/posf.jpg,stim/5.jpg,stim/2.jpg,stim/latef.jpg,CD,1,2,0,36,36,28,,,,,,,,,,,,,,,,,,2,1,0.633025826025,,,,,,2016_Aug_25_1214,P8,PLC_L_D2S1,NHGX,60.0201120163,
stim/posf.jpg,stim/negf.jpg,stim/2.jpg,stim/5.jpg,stim/latef.jpg,CD,2,4,0,37,37,34,,,,,,,,,,,,,,,,,,4,1,0.583142905907,,,,,,2016_Aug_25_1214,P8,PLC_L_D2S1,NHGX,60.0201120163,
stim/posf.jpg,stim/negf.jpg,stim/5.jpg,stim/2.jpg,stim/latef.jpg,CD,1,2,0,38,38,26,,,,,,,,,,,,,,,,,,2,1,0.666466534588,,,,,,2016_Aug_25_1214,P8,PLC_L_D2S1,NHGX,60.0201120163,
stim/posf.jpg,stim/negf.jpg,stim/2.jpg,stim/5.jpg,stim/latef.jpg,CD,2,4,0,39,39,35,,,,,,,,,,,,,,,,,,4,1,0.549830189885,,,,,,2016_Aug_25_1214,P8,PLC_L_D2S1,NHGX,60.0201120163,
stim/posf.jpg,stim/negf.jpg,stim/1.jpg,stim/4.jpg,stim/latef.jpg,AB,2,4,0,40,40,15,,,,,,,,,,,,,,,,,,4,1,0.649767014658,,,,,,2016_Aug_25_1214,P8,PLC_L_D2S1,NHGX,60.0201120163,
stim/posf.jpg,stim/negf.jpg,stim/4.jpg,stim/1.jpg,stim/latef.jpg,AB,1,2,0,41,41,2,,,,,,,,,,,,,,,,,,2,1,0.683111802498,,,,,,2016_Aug_25_1214,P8,PLC_L_D2S1,NHGX,60.0201120163,
stim/negf.jpg,stim/posf.jpg,stim/3.jpg,stim/6.jpg,stim/latef.jpg,EF,1,2,0,42,42,47,,,,,,,,,,,,,,,,,,4,0,0.949691671147,,,,,,2016_Aug_25_1214,P8,PLC_L_D2S1,NHGX,60.0201120163,
stim/posf.jpg,stim/negf.jpg,stim/6.jpg,stim/3.jpg,stim/latef.jpg,EF,2,4,0,43,43,52,,,,,,,,,,,,,,,,,,2,0,0.799695074116,,,,,,2016_Aug_25_1214,P8,PLC_L_D2S1,NHGX,60.0201120163,
stim/posf.jpg,stim/negf.jpg,stim/3.jpg,stim/6.jpg,stim/latef.jpg,EF,1,2,0,44,44,42,,,,,,,,,,,,,,,,,,4,0,0.533185147536,,,,,,2016_Aug_25_1214,P8,PLC_L_D2S1,NHGX,60.0201120163,
stim/posf.jpg,stim/negf.jpg,stim/4.jpg,stim/1.jpg,stim/latef.jpg,AB,1,2,0,45,45,6,,,,,,,,,,,,,,,,,,2,1,0.833040472476,,,,,,2016_Aug_25_1214,P8,PLC_L_D2S1,NHGX,60.0201120163,
stim/posf.jpg,stim/negf.jpg,stim/6.jpg,stim/3.jpg,stim/latef.jpg,EF,2,4,0,46,46,53,,,,,,,,,,,,,,,,,,4,1,0.499879619403,,,,,,2016_Aug_25_1214,P8,PLC_L_D2S1,NHGX,60.0201120163,
stim/posf.jpg,stim/negf.jpg,stim/1.jpg,stim/4.jpg,stim/latef.jpg,AB,2,4,0,47,47,17,,,,,,,,,,,,,,,,,,4,1,0.799663215828,,,,,,2016_Aug_25_1214,P8,PLC_L_D2S1,NHGX,60.0201120163,
stim/posf.jpg,stim/negf.jpg,stim/1.jpg,stim/4.jpg,stim/latef.jpg,AB,2,4,0,48,48,10,,,,,,,,,,,,,,,,,,4,1,0.583185344526,,,,,,2016_Aug_25_1214,P8,PLC_L_D2S1,NHGX,60.0201120163,
stim/posf.jpg,stim/negf.jpg,stim/3.jpg,stim/6.jpg,stim/latef.jpg,EF,1,2,0,49,49,45,,,,,,,,,,,,,,,,,,2,1,0.866369690567,,,,,,2016_Aug_25_1214,P8,PLC_L_D2S1,NHGX,60.0201120163,
stim/posf.jpg,stim/negf.jpg,stim/1.jpg,stim/4.jpg,stim/latef.jpg,AB,2,4,0,50,50,16,,,,,,,,,,,,,,,,,,2,0,0.49983891911,,,,,,2016_Aug_25_1214,P8,PLC_L_D2S1,NHGX,60.0201120163,
stim/posf.jpg,stim/negf.jpg,stim/5.jpg,stim/2.jpg,stim/latef.jpg,CD,1,2,0,51,51,20,,,,,,,,,,,,,,,,,,2,1,0.716385947527,,,,,,2016_Aug_25_1214,P8,PLC_L_D2S1,NHGX,60.0201120163,
stim/posf.jpg,stim/negf.jpg,stim/1.jpg,stim/4.jpg,stim/latef.jpg,AB,2,4,0,52,52,12,,,,,,,,,,,,,,,,,,4,1,0.633106026624,,,,,,2016_Aug_25_1214,P8,PLC_L_D2S1,NHGX,60.0201120163,
stim/posf.jpg,stim/negf.jpg,stim/2.jpg,stim/5.jpg,stim/latef.jpg,CD,2,4,0,53,53,36,,,,,,,,,,,,,,,,,,4,1,0.633140913448,,,,,,2016_Aug_25_1214,P8,PLC_L_D2S1,NHGX,60.0201120163,
stim/posf.jpg,stim/negf.jpg,stim/5.jpg,stim/2.jpg,stim/latef.jpg,CD,1,2,0,54,54,21,,,,,,,,,,,,,,,,,,2,1,0.483205675124,,,,,,2016_Aug_25_1214,P8,PLC_L_D2S1,NHGX,60.0201120163,
stim/negf.jpg,stim/posf.jpg,stim/5.jpg,stim/2.jpg,stim/latef.jpg,CD,1,2,0,55,55,27,,,,,,,,,,,,,,,,,,2,1,0.499810735969,,,,,,2016_Aug_25_1214,P8,PLC_L_D2S1,NHGX,60.0201120163,
stim/posf.jpg,stim/negf.jpg,stim/4.jpg,stim/1.jpg,stim/latef.jpg,AB,1,2,0,56,56,4,,,,,,,,,,,,,,,,,,2,1,0.633123271542,,,,,,2016_Aug_25_1214,P8,PLC_L_D2S1,NHGX,60.0201120163,
stim/negf.jpg,stim/posf.jpg,stim/2.jpg,stim/5.jpg,stim/latef.jpg,CD,2,4,0,57,57,39,,,,,,,,,,,,,,,,,,4,1,0.583130316576,,,,,,2016_Aug_25_1214,P8,PLC_L_D2S1,NHGX,60.0201120163,
stim/negf.jpg,stim/posf.jpg,stim/4.jpg,stim/1.jpg,stim/latef.jpg,AB,1,2,0,58,58,8,,,,,,,,,,,,,,,,,,2,1,0.533183472367,,,,,,2016_Aug_25_1214,P8,PLC_L_D2S1,NHGX,60.0201120163,
stim/negf.jpg,stim/posf.jpg,stim/5.jpg,stim/2.jpg,stim/latef.jpg,CD,1,2,0,59,59,29,,,,,,,,,,,,,,,,,,2,1,0.616450734766,,,,,,2016_Aug_25_1214,P8,PLC_L_D2S1,NHGX,60.0201120163,
,,,,,,,,,,,,,,,,,,,,,,,,,,,,,,,,0.9984375,1.0,1,0,0,2016_Aug_25_1214,P8,PLC_L_D2S1,NHGX,60.0201120163,
stim/posf.jpg,stim/negf.jpg,stim/4.jpg,stim/1.jpg,stim/latef.jpg,AB,1,2,,,,,0,0,0,1,,,,,,,,,,,,,,2,1,0.683095652305,,,,,,2016_Aug_25_1214,P8,PLC_L_D2S1,NHGX,60.0201120163,
stim/posf.jpg,stim/negf.jpg,stim/4.jpg,stim/1.jpg,stim/latef.jpg,AB,1,2,,,,,0,1,1,4,,,,,,,,,,,,,,2,1,0.449867777431,,,,,,2016_Aug_25_1214,P8,PLC_L_D2S1,NHGX,60.0201120163,
stim/negf.jpg,stim/posf.jpg,stim/4.jpg,stim/1.jpg,stim/latef.jpg,AB,1,2,,,,,0,2,2,9,,,,,,,,,,,,,,2,1,0.399841102544,,,,,,2016_Aug_25_1214,P8,PLC_L_D2S1,NHGX,60.0201120163,
stim/posf.jpg,stim/negf.jpg,stim/2.jpg,stim/5.jpg,stim/latef.jpg,CD,2,4,,,,,0,3,3,35,,,,,,,,,,,,,,4,1,0.566462811322,,,,,,2016_Aug_25_1214,P8,PLC_L_D2S1,NHGX,60.0201120163,
stim/negf.jpg,stim/posf.jpg,stim/2.jpg,stim/5.jpg,stim/latef.jpg,CD,2,4,,,,,0,4,4,38,,,,,,,,,,,,,,4,1,0.466513448345,,,,,,2016_Aug_25_1214,P8,PLC_L_D2S1,NHGX,60.0201120163,
stim/posf.jpg,stim/negf.jpg,stim/5.jpg,stim/2.jpg,stim/latef.jpg,CD,1,2,,,,,0,5,5,21,,,,,,,,,,,,,,2,1,0.499824967387,,,,,,2016_Aug_25_1214,P8,PLC_L_D2S1,NHGX,60.0201120163,
stim/posf.jpg,stim/negf.jpg,stim/4.jpg,stim/1.jpg,stim/latef.jpg,AB,1,2,,,,,0,6,6,5,,,,,,,,,,,,,,2,1,0.599738036037,,,,,,2016_Aug_25_1214,P8,PLC_L_D2S1,NHGX,60.0201120163,
stim/posf.jpg,stim/negf.jpg,stim/3.jpg,stim/6.jpg,stim/latef.jpg,EF,1,2,,,,,0,7,7,42,,,,,,,,,,,,,,2,1,0.766393452705,,,,,,2016_Aug_25_1214,P8,PLC_L_D2S1,NHGX,60.0201120163,
stim/negf.jpg,stim/posf.jpg,stim/3.jpg,stim/6.jpg,stim/latef.jpg,EF,1,2,,,,,0,8,8,48,,,,,,,,,,,,,,2,1,0.399856437709,,,,,,2016_Aug_25_1214,P8,PLC_L_D2S1,NHGX,60.0201120163,
stim/posf.jpg,stim/negf.jpg,stim/3.jpg,stim/6.jpg,stim/latef.jpg,EF,1,2,,,,,0,9,9,45,,,,,,,,,,,,,,2,1,0.433216278012,,,,,,2016_Aug_25_1214,P8,PLC_L_D2S1,NHGX,60.0201120163,
stim/posf.jpg,stim/negf.jpg,stim/5.jpg,stim/2.jpg,stim/latef.jpg,CD,1,2,,,,,0,10,10,24,,,,,,,,,,,,,,2,1,0.683113176919,,,,,,2016_Aug_25_1214,P8,PLC_L_D2S1,NHGX,60.0201120163,
stim/posf.jpg,stim/negf.jpg,stim/4.jpg,stim/1.jpg,stim/latef.jpg,AB,1,2,,,,,0,11,11,3,,,,,,,,,,,,,,2,1,0.549811717913,,,,,,2016_Aug_25_1214,P8,PLC_L_D2S1,NHGX,60.0201120163,
stim/posf.jpg,stim/negf.jpg,stim/2.jpg,stim/5.jpg,stim/latef.jpg,CD,2,4,,,,,0,12,12,30,,,,,,,,,,,,,,4,1,0.599802023286,,,,,,2016_Aug_25_1214,P8,PLC_L_D2S1,NHGX,60.0201120163,
stim/negf.jpg,stim/posf.jpg,stim/6.jpg,stim/3.jpg,stim/latef.jpg,EF,2,4,,,,,0,13,13,57,,,,,,,,,,,,,,4,1,0.69973700447,,,,,,2016_Aug_25_1214,P8,PLC_L_D2S1,NHGX,60.0201120163,
stim/posf.jpg,stim/negf.jpg,stim/4.jpg,stim/1.jpg,stim/latef.jpg,AB,1,2,,,,,0,14,14,2,,,,,,,,,,,,,,2,1,0.716413911121,,,,,,2016_Aug_25_1214,P8,PLC_L_D2S1,NHGX,60.0201120163,
stim/negf.jpg,stim/posf.jpg,stim/5.jpg,stim/2.jpg,stim/latef.jpg,CD,1,2,,,,,0,15,15,29,,,,,,,,,,,,,,2,1,0.699755771176,,,,,,2016_Aug_25_1214,P8,PLC_L_D2S1,NHGX,60.0201120163,
stim/negf.jpg,stim/posf.jpg,stim/3.jpg,stim/6.jpg,stim/latef.jpg,EF,1,2,,,,,0,16,16,49,,,,,,,,,,,,,,2,1,0.483168547723,,,,,,2016_Aug_25_1214,P8,PLC_L_D2S1,NHGX,60.0201120163,
stim/posf.jpg,stim/negf.jpg,stim/1.jpg,stim/4.jpg,stim/latef.jpg,AB,2,4,,,,,0,17,17,14,,,,,,,,,,,,,,4,1,0.649780376913,,,,,,2016_Aug_25_1214,P8,PLC_L_D2S1,NHGX,60.0201120163,
stim/posf.jpg,stim/negf.jpg,stim/6.jpg,stim/3.jpg,stim/latef.jpg,EF,2,4,,,,,0,18,18,50,,,,,,,,,,,,,,4,1,0.666417226873,,,,,,2016_Aug_25_1214,P8,PLC_L_D2S1,NHGX,60.0201120163,
stim/posf.jpg,stim/negf.jpg,stim/1.jpg,stim/4.jpg,stim/latef.jpg,AB,2,4,,,,,0,19,19,12,,,,,,,,,,,,,,4,1,0.716435977038,,,,,,2016_Aug_25_1214,P8,PLC_L_D2S1,NHGX,60.0201120163,
stim/posf.jpg,stim/negf.jpg,stim/2.jpg,stim/5.jpg,stim/latef.jpg,CD,2,4,,,,,0,20,20,34,,,,,,,,,,,,,,4,1,0.749717478374,,,,,,2016_Aug_25_1214,P8,PLC_L_D2S1,NHGX,60.0201120163,
stim/negf.jpg,stim/posf.jpg,stim/1.jpg,stim/4.jpg,stim/latef.jpg,AB,2,4,,,,,0,21,21,18,,,,,,,,,,,,,,4,1,0.799688352387,,,,,,2016_Aug_25_1214,P8,PLC_L_D2S1,NHGX,60.0201120163,
stim/negf.jpg,stim/posf.jpg,stim/2.jpg,stim/5.jpg,stim/latef.jpg,CD,2,4,,,,,0,22,22,37,,,,,,,,,,,,,,4,1,0.566524079803,,,,,,2016_Aug_25_1214,P8,PLC_L_D2S1,NHGX,60.0201120163,
stim/posf.jpg,stim/negf.jpg,stim/5.jpg,stim/2.jpg,stim/latef.jpg,CD,1,2,,,,,0,23,23,25,,,,,,,,,,,,,,2,1,0.56650987846,,,,,,2016_Aug_25_1214,P8,PLC_L_D2S1,NHGX,60.0201120163,
stim/posf.jpg,stim/negf.jpg,stim/1.jpg,stim/4.jpg,stim/latef.jpg,AB,2,4,,,,,0,24,24,11,,,,,,,,,,,,,,4,1,0.549807528486,,,,,,2016_Aug_25_1214,P8,PLC_L_D2S1,NHGX,60.0201120163,
stim/negf.jpg,stim/posf.jpg,stim/3.jpg,stim/6.jpg,stim/latef.jpg,EF,1,2,,,,,0,25,25,46,,,,,,,,,,,,,,2,1,0.63310567174,,,,,,2016_Aug_25_1214,P8,PLC_L_D2S1,NHGX,60.0201120163,
stim/posf.jpg,stim/negf.jpg,stim/3.jpg,stim/6.jpg,stim/latef.jpg,EF,1,2,,,,,0,26,26,41,,,,,,,,,,,,,,2,1,0.566580879163,,,,,,2016_Aug_25_1214,P8,PLC_L_D2S1,NHGX,60.0201120163,
stim/posf.jpg,stim/negf.jpg,stim/2.jpg,stim/5.jpg,stim/latef.jpg,CD,2,4,,,,,0,27,27,33,,,,,,,,,,,,,,4,1,0.549760861344,,,,,,2016_Aug_25_1214,P8,PLC_L_D2S1,NHGX,60.0201120163,
stim/posf.jpg,stim/negf.jpg,stim/1.jpg,stim/4.jpg,stim/latef.jpg,AB,2,4,,,,,0,28,28,15,,,,,,,,,,,,,,4,1,0.683096951538,,,,,,2016_Aug_25_1214,P8,PLC_L_D2S1,NHGX,60.0201120163,
stim/negf.jpg,stim/posf.jpg,stim/6.jpg,stim/3.jpg,stim/latef.jpg,EF,2,4,,,,,0,29,29,56,,,,,,,,,,,,,,4,1,0.49984685887,,,,,,2016_Aug_25_1214,P8,PLC_L_D2S1,NHGX,60.0201120163,
stim/posf.jpg,stim/negf.jpg,stim/2.jpg,stim/5.jpg,stim/latef.jpg,CD,2,4,,,,,0,30,30,32,,,,,,,,,,,,,,4,1,0.566490131314,,,,,,2016_Aug_25_1214,P8,PLC_L_D2S1,NHGX,60.0201120163,
stim/negf.jpg,stim/posf.jpg,stim/4.jpg,stim/1.jpg,stim/latef.jpg,AB,1,2,,,,,0,31,31,8,,,,,,,,,,,,,,2,1,0.716433781574,,,,,,2016_Aug_25_1214,P8,PLC_L_D2S1,NHGX,60.0201120163,
stim/negf.jpg,stim/posf.jpg,stim/6.jpg,stim/3.jpg,stim/latef.jpg,EF,2,4,,,,,0,32,32,59,,,,,,,,,,,,,,4,1,0.533165370315,,,,,,2016_Aug_25_1214,P8,PLC_L_D2S1,NHGX,60.0201120163,
stim/posf.jpg,stim/negf.jpg,stim/4.jpg,stim/1.jpg,stim/latef.jpg,AB,1,2,,,,,0,33,33,6,,,,,,,,,,,,,,2,1,0.849711258895,,,,,,2016_Aug_25_1214,P8,PLC_L_D2S1,NHGX,60.0201120163,
stim/posf.jpg,stim/negf.jpg,stim/1.jpg,stim/4.jpg,stim/latef.jpg,AB,2,4,,,,,0,34,34,17,,,,,,,,,,,,,,4,1,0.64976501468,,,,,,2016_Aug_25_1214,P8,PLC_L_D2S1,NHGX,60.0201120163,
stim/posf.jpg,stim/negf.jpg,stim/3.jpg,stim/6.jpg,stim/latef.jpg,EF,1,2,,,,,0,35,35,43,,,,,,,,,,,,,,2,1,0.383128764713,,,,,,2016_Aug_25_1214,P8,PLC_L_D2S1,NHGX,60.0201120163,
stim/posf.jpg,stim/negf.jpg,stim/1.jpg,stim/4.jpg,stim/latef.jpg,AB,2,4,,,,,0,36,36,16,,,,,,,,,,,,,,4,1,0.783034443973,,,,,,2016_Aug_25_1214,P8,PLC_L_D2S1,NHGX,60.0201120163,
stim/posf.jpg,stim/negf.jpg,stim/6.jpg,stim/3.jpg,stim/latef.jpg,EF,2,4,,,,,0,37,37,54,,,,,,,,,,,,,,4,1,0.466518037766,,,,,,2016_Aug_25_1214,P8,PLC_L_D2S1,NHGX,60.0201120163,
stim/posf.jpg,stim/negf.jpg,stim/5.jpg,stim/2.jpg,stim/latef.jpg,CD,1,2,,,,,0,38,38,26,,,,,,,,,,,,,,2,1,0.716448283666,,,,,,2016_Aug_25_1214,P8,PLC_L_D2S1,NHGX,60.0201120163,
stim/posf.jpg,stim/negf.jpg,stim/6.jpg,stim/3.jpg,stim/latef.jpg,EF,2,4,,,,,0,39,39,52,,,,,,,,,,,,,,4,1,0.516487221573,,,,,,2016_Aug_25_1214,P8,PLC_L_D2S1,NHGX,60.0201120163,
stim/negf.jpg,stim/posf.jpg,stim/6.jpg,stim/3.jpg,stim/latef.jpg,EF,2,4,,,,,0,40,40,58,,,,,,,,,,,,,,4,1,0.449865094754,,,,,,2016_Aug_25_1214,P8,PLC_L_D2S1,NHGX,60.0201120163,
stim/negf.jpg,stim/posf.jpg,stim/5.jpg,stim/2.jpg,stim/latef.jpg,CD,1,2,,,,,0,41,41,27,,,,,,,,,,,,,,2,1,0.533153698266,,,,,,2016_Aug_25_1214,P8,PLC_L_D2S1,NHGX,60.0201120163,
stim/posf.jpg,stim/negf.jpg,stim/1.jpg,stim/4.jpg,stim/latef.jpg,AB,2,4,,,,,0,42,42,10,,,,,,,,,,,,,,4,1,0.533128934636,,,,,,2016_Aug_25_1214,P8,PLC_L_D2S1,NHGX,60.0201120163,
stim/posf.jpg,stim/negf.jpg,stim/5.jpg,stim/2.jpg,stim/latef.jpg,CD,1,2,,,,,0,43,43,20,,,,,,,,,,,,,,2,1,0.61643750484,,,,,,2016_Aug_25_1214,P8,PLC_L_D2S1,NHGX,60.0201120163,
stim/posf.jpg,stim/negf.jpg,stim/2.jpg,stim/5.jpg,stim/latef.jpg,CD,2,4,,,,,0,44,44,31,,,,,,,,,,,,,,4,1,0.499820702774,,,,,,2016_Aug_25_1214,P8,PLC_L_D2S1,NHGX,60.0201120163,
stim/posf.jpg,stim/negf.jpg,stim/5.jpg,stim/2.jpg,stim/latef.jpg,CD,1,2,,,,,0,45,45,22,,,,,,,,,,,,,,2,1,0.483150006579,,,,,,2016_Aug_25_1214,P8,PLC_L_D2S1,NHGX,60.0201120163,
stim/posf.jpg,stim/negf.jpg,stim/6.jpg,stim/3.jpg,stim/latef.jpg,EF,2,4,,,,,0,46,46,55,,,,,,,,,,,,,,4,1,0.483193855709,,,,,,2016_Aug_25_1214,P8,PLC_L_D2S1,NHGX,60.0201120163,
stim/negf.jpg,stim/posf.jpg,stim/3.jpg,stim/6.jpg,stim/latef.jpg,EF,1,2,,,,,0,47,47,47,,,,,,,,,,,,,,2,1,0.399854275328,,,,,,2016_Aug_25_1214,P8,PLC_L_D2S1,NHGX,60.0201120163,
stim/negf.jpg,stim/posf.jpg,stim/5.jpg,stim/2.jpg,stim/latef.jpg,CD,1,2,,,,,0,48,48,28,,,,,,,,,,,,,,2,1,0.466530338379,,,,,,2016_Aug_25_1214,P8,PLC_L_D2S1,NHGX,60.0201120163,
stim/negf.jpg,stim/posf.jpg,stim/1.jpg,stim/4.jpg,stim/latef.jpg,AB,2,4,,,,,0,49,49,19,,,,,,,,,,,,,,4,1,0.833050337026,,,,,,2016_Aug_25_1214,P8,PLC_L_D2S1,NHGX,60.0201120163,
stim/posf.jpg,stim/negf.jpg,stim/4.jpg,stim/1.jpg,stim/latef.jpg,AB,1,2,,,,,0,50,50,7,,,,,,,,,,,,,,2,1,0.966428859825,,,,,,2016_Aug_25_1214,P8,PLC_L_D2S1,NHGX,60.0201120163,
stim/posf.jpg,stim/negf.jpg,stim/4.jpg,stim/1.jpg,stim/latef.jpg,AB,1,2,,,,,0,51,51,0,,,,,,,,,,,,,,2,1,0.48317716116,,,,,,2016_Aug_25_1214,P8,PLC_L_D2S1,NHGX,60.0201120163,
stim/posf.jpg,stim/negf.jpg,stim/6.jpg,stim/3.jpg,stim/latef.jpg,EF,2,4,,,,,0,52,52,51,,,,,,,,,,,,,,4,1,0.566464808292,,,,,,2016_Aug_25_1214,P8,PLC_L_D2S1,NHGX,60.0201120163,
stim/posf.jpg,stim/negf.jpg,stim/1.jpg,stim/4.jpg,stim/latef.jpg,AB,2,4,,,,,0,53,53,13,,,,,,,,,,,,,,4,1,0.683094458333,,,,,,2016_Aug_25_1214,P8,PLC_L_D2S1,NHGX,60.0201120163,
stim/posf.jpg,stim/negf.jpg,stim/3.jpg,stim/6.jpg,stim/latef.jpg,EF,1,2,,,,,0,54,54,44,,,,,,,,,,,,,,2,1,0.549807757055,,,,,,2016_Aug_25_1214,P8,PLC_L_D2S1,NHGX,60.0201120163,
stim/negf.jpg,stim/posf.jpg,stim/2.jpg,stim/5.jpg,stim/latef.jpg,CD,2,4,,,,,0,55,55,39,,,,,,,,,,,,,,4,1,0.633119566321,,,,,,2016_Aug_25_1214,P8,PLC_L_D2S1,NHGX,60.0201120163,
stim/posf.jpg,stim/negf.jpg,stim/5.jpg,stim/2.jpg,stim/latef.jpg,CD,1,2,,,,,0,56,56,23,,,,,,,,,,,,,,2,1,0.68311052131,,,,,,2016_Aug_25_1214,P8,PLC_L_D2S1,NHGX,60.0201120163,
stim/posf.jpg,stim/negf.jpg,stim/3.jpg,stim/6.jpg,stim/latef.jpg,EF,1,2,,,,,0,57,57,40,,,,,,,,,,,,,,2,1,0.733080613377,,,,,,2016_Aug_25_1214,P8,PLC_L_D2S1,NHGX,60.0201120163,
stim/posf.jpg,stim/negf.jpg,stim/2.jpg,stim/5.jpg,stim/latef.jpg,CD,2,4,,,,,0,58,58,36,,,,,,,,,,,,,,4,1,0.583116271621,,,,,,2016_Aug_25_1214,P8,PLC_L_D2S1,NHGX,60.0201120163,
stim/posf.jpg,stim/negf.jpg,stim/6.jpg,stim/3.jpg,stim/latef.jpg,EF,2,4,,,,,0,59,59,53,,,,,,,,,,,,,,4,1,0.716458758736,,,,,,2016_Aug_25_1214,P8,PLC_L_D2S1,NHGX,60.0201120163,
,,,,,,,,,,,,,,,,,,,,,,,,,,,,,,,,0.9984375,1.0,1,0,0,2016_Aug_25_1214,P8,PLC_L_D2S1,NHGX,60.0201120163,
stim/posf.jpg,stim/negf.jpg,stim/4.jpg,stim/1.jpg,stim/latef.jpg,AB,1,2,,,,,,,,,0,0,0,2,,,,,,,,,,2,1,0.883032889103,,,,,,2016_Aug_25_1214,P8,PLC_L_D2S1,NHGX,60.0201120163,
stim/posf.jpg,stim/negf.jpg,stim/5.jpg,stim/2.jpg,stim/latef.jpg,CD,1,2,,,,,,,,,0,1,1,23,,,,,,,,,,2,1,0.733018370469,,,,,,2016_Aug_25_1214,P8,PLC_L_D2S1,NHGX,60.0201120163,
stim/posf.jpg,stim/negf.jpg,stim/3.jpg,stim/6.jpg,stim/latef.jpg,EF,1,2,,,,,,,,,0,2,2,41,,,,,,,,,,2,1,0.649789564779,,,,,,2016_Aug_25_1214,P8,PLC_L_D2S1,NHGX,60.0201120163,
stim/posf.jpg,stim/negf.jpg,stim/4.jpg,stim/1.jpg,stim/latef.jpg,AB,1,2,,,,,,,,,0,3,3,5,,,,,,,,,,2,1,0.666455852001,,,,,,2016_Aug_25_1214,P8,PLC_L_D2S1,NHGX,60.0201120163,
stim/negf.jpg,stim/posf.jpg,stim/6.jpg,stim/3.jpg,stim/latef.jpg,EF,2,4,,,,,,,,,0,4,4,59,,,,,,,,,,4,1,0.849714389687,,,,,,2016_Aug_25_1214,P8,PLC_L_D2S1,NHGX,60.0201120163,
stim/posf.jpg,stim/negf.jpg,stim/1.jpg,stim/4.jpg,stim/latef.jpg,AB,2,4,,,,,,,,,0,5,5,12,,,,,,,,,,2,0,0.666407632997,,,,,,2016_Aug_25_1214,P8,PLC_L_D2S1,NHGX,60.0201120163,
stim/posf.jpg,stim/negf.jpg,stim/6.jpg,stim/3.jpg,stim/latef.jpg,EF,2,4,,,,,,,,,0,6,6,51,,,,,,,,,,4,1,0.783078696105,,,,,,2016_Aug_25_1214,P8,PLC_L_D2S1,NHGX,60.0201120163,
stim/posf.jpg,stim/negf.jpg,stim/2.jpg,stim/5.jpg,stim/latef.jpg,CD,2,4,,,,,,,,,0,7,7,35,,,,,,,,,,4,1,0.749769871768,,,,,,2016_Aug_25_1214,P8,PLC_L_D2S1,NHGX,60.0201120163,
stim/negf.jpg,stim/posf.jpg,stim/5.jpg,stim/2.jpg,stim/latef.jpg,CD,1,2,,,,,,,,,0,8,8,27,,,,,,,,,,2,1,0.766453897136,,,,,,2016_Aug_25_1214,P8,PLC_L_D2S1,NHGX,60.0201120163,
stim/negf.jpg,stim/posf.jpg,stim/6.jpg,stim/3.jpg,stim/latef.jpg,EF,2,4,,,,,,,,,0,9,9,58,,,,,,,,,,4,1,0.583084626865,,,,,,2016_Aug_25_1214,P8,PLC_L_D2S1,NHGX,60.0201120163,
stim/posf.jpg,stim/negf.jpg,stim/2.jpg,stim/5.jpg,stim/latef.jpg,CD,2,4,,,,,,,,,0,10,10,36,,,,,,,,,,4,1,0.53314702165,,,,,,2016_Aug_25_1214,P8,PLC_L_D2S1,NHGX,60.0201120163,
stim/posf.jpg,stim/negf.jpg,stim/6.jpg,stim/3.jpg,stim/latef.jpg,EF,2,4,,,,,,,,,0,11,11,55,,,,,,,,,,4,1,0.666425067386,,,,,,2016_Aug_25_1214,P8,PLC_L_D2S1,NHGX,60.0201120163,
stim/posf.jpg,stim/negf.jpg,stim/4.jpg,stim/1.jpg,stim/latef.jpg,AB,1,2,,,,,,,,,0,12,12,4,,,,,,,,,,2,1,0.799717780626,,,,,,2016_Aug_25_1214,P8,PLC_L_D2S1,NHGX,60.0201120163,
stim/posf.jpg,stim/negf.jpg,stim/1.jpg,stim/4.jpg,stim/latef.jpg,AB,2,4,,,,,,,,,0,13,13,13,,,,,,,,,,4,1,0.599765256783,,,,,,2016_Aug_25_1214,P8,PLC_L_D2S1,NHGX,60.0201120163,
stim/posf.jpg,stim/negf.jpg,stim/5.jpg,stim/2.jpg,stim/latef.jpg,CD,1,2,,,,,,,,,0,14,14,22,,,,,,,,,,2,1,0.583160650068,,,,,,2016_Aug_25_1214,P8,PLC_L_D2S1,NHGX,60.0201120163,
stim/posf.jpg,stim/negf.jpg,stim/3.jpg,stim/6.jpg,stim/latef.jpg,EF,1,2,,,,,,,,,0,15,15,44,,,,,,,,,,2,1,0.699732261666,,,,,,2016_Aug_25_1214,P8,PLC_L_D2S1,NHGX,60.0201120163,
stim/posf.jpg,stim/negf.jpg,stim/4.jpg,stim/1.jpg,stim/latef.jpg,AB,1,2,,,,,,,,,0,16,16,1,,,,,,,,,,4,0,0.599789497111,,,,,,2016_Aug_25_1214,P8,PLC_L_D2S1,NHGX,60.0201120163,
stim/negf.jpg,stim/posf.jpg,stim/1.jpg,stim/4.jpg,stim/latef.jpg,AB,2,4,,,,,,,,,0,17,17,18,,,,,,,,,,4,1,0.749770313869,,,,,,2016_Aug_25_1214,P8,PLC_L_D2S1,NHGX,60.0201120163,
stim/posf.jpg,stim/negf.jpg,stim/5.jpg,stim/2.jpg,stim/latef.jpg,CD,1,2,,,,,,,,,0,18,18,26,,,,,,,,,,2,1,0.683116659587,,,,,,2016_Aug_25_1214,P8,PLC_L_D2S1,NHGX,60.0201120163,
stim/posf.jpg,stim/negf.jpg,stim/2.jpg,stim/5.jpg,stim/latef.jpg,CD,2,4,,,,,,,,,0,19,19,34,,,,,,,,,,4,1,0.666457596343,,,,,,2016_Aug_25_1214,P8,PLC_L_D2S1,NHGX,60.0201120163,
stim/posf.jpg,stim/negf.jpg,stim/4.jpg,stim/1.jpg,stim/latef.jpg,AB,1,2,,,,,,,,,0,20,20,3,,,,,,,,,,2,1,0.69977572283,,,,,,2016_Aug_25_1214,P8,PLC_L_D2S1,NHGX,60.0201120163,
stim/posf.jpg,stim/negf.jpg,stim/3.jpg,stim/6.jpg,stim/latef.jpg,EF,1,2,,,,,,,,,0,21,21,45,,,,,,,,,,2,1,0.683091838814,,,,,,2016_Aug_25_1214,P8,PLC_L_D2S1,NHGX,60.0201120163,
stim/negf.jpg,stim/posf.jpg,stim/6.jpg,stim/3.jpg,stim/latef.jpg,EF,2,4,,,,,,,,,0,22,22,57,,,,,,,,,,4,1,0.683101186077,,,,,,2016_Aug_25_1214,P8,PLC_L_D2S1,NHGX,60.0201120163,
stim/posf.jpg,stim/negf.jpg,stim/6.jpg,stim/3.jpg,stim/latef.jpg,EF,2,4,,,,,,,,,0,23,23,50,,,,,,,,,,4,1,0.733077963782,,,,,,2016_Aug_25_1214,P8,PLC_L_D2S1,NHGX,60.0201120163,
stim/posf.jpg,stim/negf.jpg,stim/1.jpg,stim/4.jpg,stim/latef.jpg,AB,2,4,,,,,,,,,0,24,24,17,,,,,,,,,,4,1,0.933026944809,,,,,,2016_Aug_25_1214,P8,PLC_L_D2S1,NHGX,60.0201120163,
stim/posf.jpg,stim/negf.jpg,stim/2.jpg,stim/5.jpg,stim/latef.jpg,CD,2,4,,,,,,,,,0,25,25,31,,,,,,,,,,4,1,0.666424165141,,,,,,2016_Aug_25_1214,P8,PLC_L_D2S1,NHGX,60.0201120163,
stim/posf.jpg,stim/negf.jpg,stim/3.jpg,stim/6.jpg,stim/latef.jpg,EF,1,2,,,,,,,,,0,26,26,42,,,,,,,,,,2,1,0.649764449273,,,,,,2016_Aug_25_1214,P8,PLC_L_D2S1,NHGX,60.0201120163,
stim/negf.jpg,stim/posf.jpg,stim/5.jpg,stim/2.jpg,stim/latef.jpg,CD,1,2,,,,,,,,,0,27,27,29,,,,,,,,,,2,1,0.54980479769,,,,,,2016_Aug_25_1214,P8,PLC_L_D2S1,NHGX,60.0201120163,
stim/negf.jpg,stim/posf.jpg,stim/2.jpg,stim/5.jpg,stim/latef.jpg,CD,2,4,,,,,,,,,0,28,28,37,,,,,,,,,,4,1,0.583154051646,,,,,,2016_Aug_25_1214,P8,PLC_L_D2S1,NHGX,60.0201120163,
stim/negf.jpg,stim/posf.jpg,stim/3.jpg,stim/6.jpg,stim/latef.jpg,EF,1,2,,,,,,,,,0,29,29,46,,,,,,,,,,2,1,0.683099871806,,,,,,2016_Aug_25_1214,P8,PLC_L_D2S1,NHGX,60.0201120163,
stim/posf.jpg,stim/negf.jpg,stim/4.jpg,stim/1.jpg,stim/latef.jpg,AB,1,2,,,,,,,,,0,30,30,0,,,,,,,,,,2,1,0.766405242046,,,,,,2016_Aug_25_1214,P8,PLC_L_D2S1,NHGX,60.0201120163,
stim/posf.jpg,stim/negf.jpg,stim/3.jpg,stim/6.jpg,stim/latef.jpg,EF,1,2,,,,,,,,,0,31,31,40,,,,,,,,,,2,1,0.716453688116,,,,,,2016_Aug_25_1214,P8,PLC_L_D2S1,NHGX,60.0201120163,
stim/posf.jpg,stim/negf.jpg,stim/1.jpg,stim/4.jpg,stim/latef.jpg,AB,2,4,,,,,,,,,0,32,32,10,,,,,,,,,,4,1,0.733075795386,,,,,,2016_Aug_25_1214,P8,PLC_L_D2S1,NHGX,60.0201120163,
stim/posf.jpg,stim/negf.jpg,stim/1.jpg,stim/4.jpg,stim/latef.jpg,AB,2,4,,,,,,,,,0,33,33,11,,,,,,,,,,4,1,0.683101880806,,,,,,2016_Aug_25_1214,P8,PLC_L_D2S1,NHGX,60.0201120163,
stim/posf.jpg,stim/negf.jpg,stim/2.jpg,stim/5.jpg,stim/latef.jpg,CD,2,4,,,,,,,,,0,34,34,33,,,,,,,,,,4,1,0.599782104713,,,,,,2016_Aug_25_1214,P8,PLC_L_D2S1,NHGX,60.0201120163,
stim/negf.jpg,stim/posf.jpg,stim/1.jpg,stim/4.jpg,stim/latef.jpg,AB,2,4,,,,,,,,,0,35,35,19,,,,,,,,,,4,1,0.583133994729,,,,,,2016_Aug_25_1214,P8,PLC_L_D2S1,NHGX,60.0201120163,
stim/posf.jpg,stim/negf.jpg,stim/5.jpg,stim/2.jpg,stim/latef.jpg,CD,1,2,,,,,,,,,0,36,36,20,,,,,,,,,,2,1,0.499858567009,,,,,,2016_Aug_25_1214,P8,PLC_L_D2S1,NHGX,60.0201120163,
stim/negf.jpg,stim/posf.jpg,stim/3.jpg,stim/6.jpg,stim/latef.jpg,EF,1,2,,,,,,,,,0,37,37,49,,,,,,,,,,2,1,0.683100515408,,,,,,2016_Aug_25_1214,P8,PLC_L_D2S1,NHGX,60.0201120163,
stim/posf.jpg,stim/negf.jpg,stim/6.jpg,stim/3.jpg,stim/latef.jpg,EF,2,4,,,,,,,,,0,38,38,54,,,,,,,,,,4,1,0.53313716913,,,,,,2016_Aug_25_1214,P8,PLC_L_D2S1,NHGX,60.0201120163,
stim/posf.jpg,stim/negf.jpg,stim/4.jpg,stim/1.jpg,stim/latef.jpg,AB,1,2,,,,,,,,,0,39,39,7,,,,,,,,,,2,1,0.633146378048,,,,,,2016_Aug_25_1214,P8,PLC_L_D2S1,NHGX,60.0201120163,
stim/posf.jpg,stim/negf.jpg,stim/4.jpg,stim/1.jpg,stim/latef.jpg,AB,1,2,,,,,,,,,0,40,40,6,,,,,,,,,,2,1,0.566496955298,,,,,,2016_Aug_25_1214,P8,PLC_L_D2S1,NHGX,60.0201120163,
stim/posf.jpg,stim/negf.jpg,stim/5.jpg,stim/2.jpg,stim/latef.jpg,CD,1,2,,,,,,,,,0,41,41,21,,,,,,,,,,2,1,0.59978018293,,,,,,2016_Aug_25_1214,P8,PLC_L_D2S1,NHGX,60.0201120163,
stim/negf.jpg,stim/posf.jpg,stim/2.jpg,stim/5.jpg,stim/latef.jpg,CD,2,4,,,,,,,,,0,42,42,38,,,,,,,,,,4,1,0.499833102634,,,,,,2016_Aug_25_1214,P8,PLC_L_D2S1,NHGX,60.0201120163,
stim/posf.jpg,stim/negf.jpg,stim/1.jpg,stim/4.jpg,stim/latef.jpg,AB,2,4,,,,,,,,,0,43,43,15,,,,,,,,,,4,1,0.816357611005,,,,,,2016_Aug_25_1214,P8,PLC_L_D2S1,NHGX,60.0201120163,
stim/posf.jpg,stim/negf.jpg,stim/6.jpg,stim/3.jpg,stim/latef.jpg,EF,2,4,,,,,,,,,0,44,44,52,,,,,,,,,,4,1,1.0996046601,,,,,,2016_Aug_25_1214,P8,PLC_L_D2S1,NHGX,60.0201120163,
stim/posf.jpg,stim/negf.jpg,stim/3.jpg,stim/6.jpg,stim/latef.jpg,EF,1,2,,,,,,,,,0,45,45,43,,,,,,,,,,2,1,0.5664631241,,,,,,2016_Aug_25_1214,P8,PLC_L_D2S1,NHGX,60.0201120163,
stim/negf.jpg,stim/posf.jpg,stim/5.jpg,stim/2.jpg,stim/latef.jpg,CD,1,2,,,,,,,,,0,46,46,28,,,,,,,,,,2,1,0.616510313042,,,,,,2016_Aug_25_1214,P8,PLC_L_D2S1,NHGX,60.0201120163,
stim/negf.jpg,stim/posf.jpg,stim/3.jpg,stim/6.jpg,stim/latef.jpg,EF,1,2,,,,,,,,,0,47,47,47,,,,,,,,,,2,1,0.583131898512,,,,,,2016_Aug_25_1214,P8,PLC_L_D2S1,NHGX,60.0201120163,
stim/negf.jpg,stim/posf.jpg,stim/4.jpg,stim/1.jpg,stim/latef.jpg,AB,1,2,,,,,,,,,0,48,48,8,,,,,,,,,,2,1,0.549820385485,,,,,,2016_Aug_25_1214,P8,PLC_L_D2S1,NHGX,60.0201120163,
stim/negf.jpg,stim/posf.jpg,stim/4.jpg,stim/1.jpg,stim/latef.jpg,AB,1,2,,,,,,,,,0,49,49,9,,,,,,,,,,2,1,0.49981801709,,,,,,2016_Aug_25_1214,P8,PLC_L_D2S1,NHGX,60.0201120163,
stim/negf.jpg,stim/posf.jpg,stim/3.jpg,stim/6.jpg,stim/latef.jpg,EF,1,2,,,,,,,,,0,50,50,48,,,,,,,,,,2,1,0.616454382845,,,,,,2016_Aug_25_1214,P8,PLC_L_D2S1,NHGX,60.0201120163,
stim/posf.jpg,stim/negf.jpg,stim/6.jpg,stim/3.jpg,stim/latef.jpg,EF,2,4,,,,,,,,,0,51,51,53,,,,,,,,,,4,1,0.599846170156,,,,,,2016_Aug_25_1214,P8,PLC_L_D2S1,NHGX,60.0201120163,
stim/posf.jpg,stim/negf.jpg,stim/5.jpg,stim/2.jpg,stim/latef.jpg,CD,1,2,,,,,,,,,0,52,52,24,,,,,,,,,,2,1,0.516495146295,,,,,,2016_Aug_25_1214,P8,PLC_L_D2S1,NHGX,60.0201120163,
stim/negf.jpg,stim/posf.jpg,stim/6.jpg,stim/3.jpg,stim/latef.jpg,EF,2,4,,,,,,,,,0,53,53,56,,,,,,,,,,4,1,0.549754858404,,,,,,2016_Aug_25_1214,P8,PLC_L_D2S1,NHGX,60.0201120163,
stim/posf.jpg,stim/negf.jpg,stim/1.jpg,stim/4.jpg,stim/latef.jpg,AB,2,4,,,,,,,,,0,54,54,14,,,,,,,,,,4,1,0.633132011293,,,,,,2016_Aug_25_1214,P8,PLC_L_D2S1,NHGX,60.0201120163,
stim/posf.jpg,stim/negf.jpg,stim/1.jpg,stim/4.jpg,stim/latef.jpg,AB,2,4,,,,,,,,,0,55,55,16,,,,,,,,,,4,1,0.549803257858,,,,,,2016_Aug_25_1214,P8,PLC_L_D2S1,NHGX,60.0201120163,
stim/posf.jpg,stim/negf.jpg,stim/2.jpg,stim/5.jpg,stim/latef.jpg,CD,2,4,,,,,,,,,0,56,56,32,,,,,,,,,,4,1,0.666487084732,,,,,,2016_Aug_25_1214,P8,PLC_L_D2S1,NHGX,60.0201120163,
stim/posf.jpg,stim/negf.jpg,stim/2.jpg,stim/5.jpg,stim/latef.jpg,CD,2,4,,,,,,,,,0,57,57,30,,,,,,,,,,4,1,0.483108951403,,,,,,2016_Aug_25_1214,P8,PLC_L_D2S1,NHGX,60.0201120163,
stim/posf.jpg,stim/negf.jpg,stim/5.jpg,stim/2.jpg,stim/latef.jpg,CD,1,2,,,,,,,,,0,58,58,25,,,,,,,,,,2,1,0.466514741563,,,,,,2016_Aug_25_1214,P8,PLC_L_D2S1,NHGX,60.0201120163,
stim/negf.jpg,stim/posf.jpg,stim/2.jpg,stim/5.jpg,stim/latef.jpg,CD,2,4,,,,,,,,,0,59,59,39,,,,,,,,,,4,1,0.4498460273,,,,,,2016_Aug_25_1214,P8,PLC_L_D2S1,NHGX,60.0201120163,
,,,,,,,,,,,,,,,,,,,,,,,,,,,,,,,,0.9984375,0.96484375,1,0,0,2016_Aug_25_1214,P8,PLC_L_D2S1,NHGX,60.0201120163,
stim/posf.jpg,stim/negf.jpg,stim/2.jpg,stim/5.jpg,stim/latef.jpg,CD,2,4,,,,,,,,,,,,,0,0,0,34,,,,,,4,1,0.849728690278,,,,,,2016_Aug_25_1214,P8,PLC_L_D2S1,NHGX,60.0201120163,
stim/negf.jpg,stim/posf.jpg,stim/5.jpg,stim/2.jpg,stim/latef.jpg,CD,1,2,,,,,,,,,,,,,0,1,1,27,,,,,,2,1,0.533149466735,,,,,,2016_Aug_25_1214,P8,PLC_L_D2S1,NHGX,60.0201120163,
stim/posf.jpg,stim/negf.jpg,stim/1.jpg,stim/4.jpg,stim/latef.jpg,AB,2,4,,,,,,,,,,,,,0,2,2,16,,,,,,4,1,0.7163938121,,,,,,2016_Aug_25_1214,P8,PLC_L_D2S1,NHGX,60.0201120163,
stim/posf.jpg,stim/negf.jpg,stim/6.jpg,stim/3.jpg,stim/latef.jpg,EF,2,4,,,,,,,,,,,,,0,3,3,53,,,,,,4,1,0.782976976951,,,,,,2016_Aug_25_1214,P8,PLC_L_D2S1,NHGX,60.0201120163,
stim/posf.jpg,stim/negf.jpg,stim/4.jpg,stim/1.jpg,stim/latef.jpg,AB,1,2,,,,,,,,,,,,,0,4,4,3,,,,,,2,1,0.699759774138,,,,,,2016_Aug_25_1214,P8,PLC_L_D2S1,NHGX,60.0201120163,
stim/posf.jpg,stim/negf.jpg,stim/2.jpg,stim/5.jpg,stim/latef.jpg,CD,2,4,,,,,,,,,,,,,0,5,5,32,,,,,,4,1,0.533148871253,,,,,,2016_Aug_25_1214,P8,PLC_L_D2S1,NHGX,60.0201120163,
stim/posf.jpg,stim/negf.jpg,stim/1.jpg,stim/4.jpg,stim/latef.jpg,AB,2,4,,,,,,,,,,,,,0,6,6,12,,,,,,4,1,0.733079966767,,,,,,2016_Aug_25_1214,P8,PLC_L_D2S1,NHGX,60.0201120163,
stim/posf.jpg,stim/negf.jpg,stim/1.jpg,stim/4.jpg,stim/latef.jpg,AB,2,4,,,,,,,,,,,,,0,7,7,17,,,,,,4,1,0.499849457337,,,,,,2016_Aug_25_1214,P8,PLC_L_D2S1,NHGX,60.0201120163,
stim/posf.jpg,stim/negf.jpg,stim/3.jpg,stim/6.jpg,stim/latef.jpg,EF,1,2,,,,,,,,,,,,,0,8,8,44,,,,,,2,1,0.633101755995,,,,,,2016_Aug_25_1214,P8,PLC_L_D2S1,NHGX,60.0201120163,
stim/posf.jpg,stim/negf.jpg,stim/5.jpg,stim/2.jpg,stim/latef.jpg,CD,1,2,,,,,,,,,,,,,0,9,9,21,,,,,,2,1,0.466567468788,,,,,,2016_Aug_25_1214,P8,PLC_L_D2S1,NHGX,60.0201120163,
stim/negf.jpg,stim/posf.jpg,stim/3.jpg,stim/6.jpg,stim/latef.jpg,EF,1,2,,,,,,,,,,,,,0,10,10,46,,,,,,2,1,0.666488314793,,,,,,2016_Aug_25_1214,P8,PLC_L_D2S1,NHGX,60.0201120163,
stim/posf.jpg,stim/negf.jpg,stim/5.jpg,stim/2.jpg,stim/latef.jpg,CD,1,2,,,,,,,,,,,,,0,11,11,22,,,,,,2,1,0.466510019812,,,,,,2016_Aug_25_1214,P8,PLC_L_D2S1,NHGX,60.0201120163,
stim/negf.jpg,stim/posf.jpg,stim/6.jpg,stim/3.jpg,stim/latef.jpg,EF,2,4,,,,,,,,,,,,,0,12,12,58,,,,,,4,1,0.733073416465,,,,,,2016_Aug_25_1214,P8,PLC_L_D2S1,NHGX,60.0201120163,
stim/negf.jpg,stim/posf.jpg,stim/2.jpg,stim/5.jpg,stim/latef.jpg,CD,2,4,,,,,,,,,,,,,0,13,13,38,,,,,,4,1,0.516480232178,,,,,,2016_Aug_25_1214,P8,PLC_L_D2S1,NHGX,60.0201120163,
stim/negf.jpg,stim/posf.jpg,stim/4.jpg,stim/1.jpg,stim/latef.jpg,AB,1,2,,,,,,,,,,,,,0,14,14,9,,,,,,2,1,0.6497833453,,,,,,2016_Aug_25_1214,P8,PLC_L_D2S1,NHGX,60.0201120163,
stim/posf.jpg,stim/negf.jpg,stim/1.jpg,stim/4.jpg,stim/latef.jpg,AB,2,4,,,,,,,,,,,,,0,15,15,15,,,,,,4,1,0.499825815498,,,,,,2016_Aug_25_1214,P8,PLC_L_D2S1,NHGX,60.0201120163,
stim/posf.jpg,stim/negf.jpg,stim/2.jpg,stim/5.jpg,stim/latef.jpg,CD,2,4,,,,,,,,,,,,,0,16,16,30,,,,,,4,1,0.566541442014,,,,,,2016_Aug_25_1214,P8,PLC_L_D2S1,NHGX,60.0201120163,
stim/negf.jpg,stim/posf.jpg,stim/1.jpg,stim/4.jpg,stim/latef.jpg,AB,2,4,,,,,,,,,,,,,0,17,17,19,,,,,,4,1,0.84970980628,,,,,,2016_Aug_25_1214,P8,PLC_L_D2S1,NHGX,60.0201120163,
stim/posf.jpg,stim/negf.jpg,stim/4.jpg,stim/1.jpg,stim/latef.jpg,AB,1,2,,,,,,,,,,,,,0,18,18,0,,,,,,2,1,0.766414093074,,,,,,2016_Aug_25_1214,P8,PLC_L_D2S1,NHGX,60.0201120163,
stim/negf.jpg,stim/posf.jpg,stim/3.jpg,stim/6.jpg,stim/latef.jpg,EF,1,2,,,,,,,,,,,,,0,19,19,48,,,,,,2,1,0.766412222419,,,,,,2016_Aug_25_1214,P8,PLC_L_D2S1,NHGX,60.0201120163,
stim/negf.jpg,stim/posf.jpg,stim/1.jpg,stim/4.jpg,stim/latef.jpg,AB,2,4,,,,,,,,,,,,,0,20,20,18,,,,,,4,1,0.599794985771,,,,,,2016_Aug_25_1214,P8,PLC_L_D2S1,NHGX,60.0201120163,
stim/posf.jpg,stim/negf.jpg,stim/6.jpg,stim/3.jpg,stim/latef.jpg,EF,2,4,,,,,,,,,,,,,0,21,21,51,,,,,,4,1,0.749752395274,,,,,,2016_Aug_25_1214,P8,PLC_L_D2S1,NHGX,60.0201120163,
stim/posf.jpg,stim/negf.jpg,stim/3.jpg,stim/6.jpg,stim/latef.jpg,EF,1,2,,,,,,,,,,,,,0,22,22,45,,,,,,2,1,0.733081560734,,,,,,2016_Aug_25_1214,P8,PLC_L_D2S1,NHGX,60.0201120163,
stim/negf.jpg,stim/posf.jpg,stim/4.jpg,stim/1.jpg,stim/latef.jpg,AB,1,2,,,,,,,,,,,,,0,23,23,8,,,,,,2,1,0.633114077661,,,,,,2016_Aug_25_1214,P8,PLC_L_D2S1,NHGX,60.0201120163,
stim/posf.jpg,stim/negf.jpg,stim/1.jpg,stim/4.jpg,stim/latef.jpg,AB,2,4,,,,,,,,,,,,,0,24,24,11,,,,,,4,1,0.649702230426,,,,,,2016_Aug_25_1214,P8,PLC_L_D2S1,NHGX,60.0201120163,
stim/posf.jpg,stim/negf.jpg,stim/5.jpg,stim/2.jpg,stim/latef.jpg,CD,1,2,,,,,,,,,,,,,0,25,25,20,,,,,,2,1,0.483201269159,,,,,,2016_Aug_25_1214,P8,PLC_L_D2S1,NHGX,60.0201120163,
stim/posf.jpg,stim/negf.jpg,stim/2.jpg,stim/5.jpg,stim/latef.jpg,CD,2,4,,,,,,,,,,,,,0,26,26,36,,,,,,4,1,0.599798390243,,,,,,2016_Aug_25_1214,P8,PLC_L_D2S1,NHGX,60.0201120163,
stim/posf.jpg,stim/negf.jpg,stim/3.jpg,stim/6.jpg,stim/latef.jpg,EF,1,2,,,,,,,,,,,,,0,27,27,40,,,,,,2,1,0.866347363,,,,,,2016_Aug_25_1214,P8,PLC_L_D2S1,NHGX,60.0201120163,
stim/negf.jpg,stim/posf.jpg,stim/5.jpg,stim/2.jpg,stim/latef.jpg,CD,1,2,,,,,,,,,,,,,0,28,28,29,,,,,,2,1,0.583145510389,,,,,,2016_Aug_25_1214,P8,PLC_L_D2S1,NHGX,60.0201120163,
stim/posf.jpg,stim/negf.jpg,stim/2.jpg,stim/5.jpg,stim/latef.jpg,CD,2,4,,,,,,,,,,,,,0,29,29,33,,,,,,4,1,0.499822110277,,,,,,2016_Aug_25_1214,P8,PLC_L_D2S1,NHGX,60.0201120163,
stim/posf.jpg,stim/negf.jpg,stim/5.jpg,stim/2.jpg,stim/latef.jpg,CD,1,2,,,,,,,,,,,,,0,30,30,25,,,,,,2,1,0.833035010883,,,,,,2016_Aug_25_1214,P8,PLC_L_D2S1,NHGX,60.0201120163,
stim/posf.jpg,stim/negf.jpg,stim/1.jpg,stim/4.jpg,stim/latef.jpg,AB,2,4,,,,,,,,,,,,,0,31,31,14,,,,,,4,1,0.816339545043,,,,,,2016_Aug_25_1214,P8,PLC_L_D2S1,NHGX,60.0201120163,
stim/posf.jpg,stim/negf.jpg,stim/5.jpg,stim/2.jpg,stim/latef.jpg,CD,1,2,,,,,,,,,,,,,0,32,32,26,,,,,,2,1,0.816398410544,,,,,,2016_Aug_25_1214,P8,PLC_L_D2S1,NHGX,60.0201120163,
stim/posf.jpg,stim/negf.jpg,stim/1.jpg,stim/4.jpg,stim/latef.jpg,AB,2,4,,,,,,,,,,,,,0,33,33,13,,,,,,4,1,0.59981169235,,,,,,2016_Aug_25_1214,P8,PLC_L_D2S1,NHGX,60.0201120163,
stim/posf.jpg,stim/negf.jpg,stim/3.jpg,stim/6.jpg,stim/latef.jpg,EF,1,2,,,,,,,,,,,,,0,34,34,42,,,,,,2,1,0.799743867551,,,,,,2016_Aug_25_1214,P8,PLC_L_D2S1,NHGX,60.0201120163,
stim/posf.jpg,stim/negf.jpg,stim/4.jpg,stim/1.jpg,stim/latef.jpg,AB,1,2,,,,,,,,,,,,,0,35,35,2,,,,,,2,1,0.699766643233,,,,,,2016_Aug_25_1214,P8,PLC_L_D2S1,NHGX,60.0201120163,
stim/posf.jpg,stim/negf.jpg,stim/6.jpg,stim/3.jpg,stim/latef.jpg,EF,2,4,,,,,,,,,,,,,0,36,36,52,,,,,,4,1,0.699823644095,,,,,,2016_Aug_25_1214,P8,PLC_L_D2S1,NHGX,60.0201120163,
stim/posf.jpg,stim/negf.jpg,stim/1.jpg,stim/4.jpg,stim/latef.jpg,AB,2,4,,,,,,,,,,,,,0,37,37,10,,,,,,4,1,0.59979159032,,,,,,2016_Aug_25_1214,P8,PLC_L_D2S1,NHGX,60.0201120163,
stim/posf.jpg,stim/negf.jpg,stim/4.jpg,stim/1.jpg,stim/latef.jpg,AB,1,2,,,,,,,,,,,,,0,38,38,7,,,,,,2,1,0.73311162656,,,,,,2016_Aug_25_1214,P8,PLC_L_D2S1,NHGX,60.0201120163,
stim/negf.jpg,stim/posf.jpg,stim/6.jpg,stim/3.jpg,stim/latef.jpg,EF,2,4,,,,,,,,,,,,,0,39,39,56,,,,,,4,1,0.733049206212,,,,,,2016_Aug_25_1214,P8,PLC_L_D2S1,NHGX,60.0201120163,
stim/negf.jpg,stim/posf.jpg,stim/6.jpg,stim/3.jpg,stim/latef.jpg,EF,2,4,,,,,,,,,,,,,0,40,40,57,,,,,,4,1,0.833054878329,,,,,,2016_Aug_25_1214,P8,PLC_L_D2S1,NHGX,60.0201120163,
stim/posf.jpg,stim/negf.jpg,stim/2.jpg,stim/5.jpg,stim/latef.jpg,CD,2,4,,,,,,,,,,,,,0,41,41,35,,,,,,4,1,0.783043860407,,,,,,2016_Aug_25_1214,P8,PLC_L_D2S1,NHGX,60.0201120163,
stim/posf.jpg,stim/negf.jpg,stim/4.jpg,stim/1.jpg,stim/latef.jpg,AB,1,2,,,,,,,,,,,,,0,42,42,1,,,,,,2,1,0.833035001861,,,,,,2016_Aug_25_1214,P8,PLC_L_D2S1,NHGX,60.0201120163,
stim/negf.jpg,stim/posf.jpg,stim/3.jpg,stim/6.jpg,stim/latef.jpg,EF,1,2,,,,,,,,,,,,,0,43,43,49,,,,,,2,1,0.816381102469,,,,,,2016_Aug_25_1214,P8,PLC_L_D2S1,NHGX,60.0201120163,
stim/posf.jpg,stim/negf.jpg,stim/6.jpg,stim/3.jpg,stim/latef.jpg,EF,2,4,,,,,,,,,,,,,0,44,44,50,,,,,,4,1,0.783105766476,,,,,,2016_Aug_25_1214,P8,PLC_L_D2S1,NHGX,60.0201120163,
stim/posf.jpg,stim/negf.jpg,stim/5.jpg,stim/2.jpg,stim/latef.jpg,CD,1,2,,,,,,,,,,,,,0,45,45,23,,,,,,2,1,0.566473878866,,,,,,2016_Aug_25_1214,P8,PLC_L_D2S1,NHGX,60.0201120163,
stim/negf.jpg,stim/posf.jpg,stim/6.jpg,stim/3.jpg,stim/latef.jpg,EF,2,4,,,,,,,,,,,,,0,46,46,59,,,,,,4,1,0.616441083747,,,,,,2016_Aug_25_1214,P8,PLC_L_D2S1,NHGX,60.0201120163,
stim/negf.jpg,stim/posf.jpg,stim/2.jpg,stim/5.jpg,stim/latef.jpg,CD,2,4,,,,,,,,,,,,,0,47,47,37,,,,,,4,1,0.599790288079,,,,,,2016_Aug_25_1214,P8,PLC_L_D2S1,NHGX,60.0201120163,
stim/posf.jpg,stim/negf.jpg,stim/3.jpg,stim/6.jpg,stim/latef.jpg,EF,1,2,,,,,,,,,,,,,0,48,48,41,,,,,,2,1,0.716418238892,,,,,,2016_Aug_25_1214,P8,PLC_L_D2S1,NHGX,60.0201120163,
stim/posf.jpg,stim/negf.jpg,stim/3.jpg,stim/6.jpg,stim/latef.jpg,EF,1,2,,,,,,,,,,,,,0,49,49,43,,,,,,2,1,0.583147865249,,,,,,2016_Aug_25_1214,P8,PLC_L_D2S1,NHGX,60.0201120163,
stim/negf.jpg,stim/posf.jpg,stim/3.jpg,stim/6.jpg,stim/latef.jpg,EF,1,2,,,,,,,,,,,,,0,50,50,47,,,,,,2,1,0.499843322068,,,,,,2016_Aug_25_1214,P8,PLC_L_D2S1,NHGX,60.0201120163,
stim/posf.jpg,stim/negf.jpg,stim/5.jpg,stim/2.jpg,stim/latef.jpg,CD,1,2,,,,,,,,,,,,,0,51,51,24,,,,,,2,1,0.566459319632,,,,,,2016_Aug_25_1214,P8,PLC_L_D2S1,NHGX,60.0201120163,
stim/negf.jpg,stim/posf.jpg,stim/2.jpg,stim/5.jpg,stim/latef.jpg,CD,2,4,,,,,,,,,,,,,0,52,52,39,,,,,,4,1,0.433195794032,,,,,,2016_Aug_25_1214,P8,PLC_L_D2S1,NHGX,60.0201120163,
stim/posf.jpg,stim/negf.jpg,stim/4.jpg,stim/1.jpg,stim/latef.jpg,AB,1,2,,,,,,,,,,,,,0,53,53,4,,,,,,2,1,0.549838872494,,,,,,2016_Aug_25_1214,P8,PLC_L_D2S1,NHGX,60.0201120163,
stim/posf.jpg,stim/negf.jpg,stim/6.jpg,stim/3.jpg,stim/latef.jpg,EF,2,4,,,,,,,,,,,,,0,54,54,54,,,,,,2,0,0.51649123055,,,,,,2016_Aug_25_1214,P8,PLC_L_D2S1,NHGX,60.0201120163,
stim/posf.jpg,stim/negf.jpg,stim/2.jpg,stim/5.jpg,stim/latef.jpg,CD,2,4,,,,,,,,,,,,,0,55,55,31,,,,,,4,1,0.599790564768,,,,,,2016_Aug_25_1214,P8,PLC_L_D2S1,NHGX,60.0201120163,
stim/posf.jpg,stim/negf.jpg,stim/4.jpg,stim/1.jpg,stim/latef.jpg,AB,1,2,,,,,,,,,,,,,0,56,56,5,,,,,,2,1,0.633112742337,,,,,,2016_Aug_25_1214,P8,PLC_L_D2S1,NHGX,60.0201120163,
stim/posf.jpg,stim/negf.jpg,stim/6.jpg,stim/3.jpg,stim/latef.jpg,EF,2,4,,,,,,,,,,,,,0,57,57,55,,,,,,4,1,0.616391800092,,,,,,2016_Aug_25_1214,P8,PLC_L_D2S1,NHGX,60.0201120163,
stim/negf.jpg,stim/posf.jpg,stim/5.jpg,stim/2.jpg,stim/latef.jpg,CD,1,2,,,,,,,,,,,,,0,58,58,28,,,,,,2,1,0.716417456946,,,,,,2016_Aug_25_1214,P8,PLC_L_D2S1,NHGX,60.0201120163,
stim/posf.jpg,stim/negf.jpg,stim/4.jpg,stim/1.jpg,stim/latef.jpg,AB,1,2,,,,,,,,,,,,,0,59,59,6,,,,,,2,1,0.733069837559,,,,,,2016_Aug_25_1214,P8,PLC_L_D2S1,NHGX,60.0201120163,
