fb_corr,fb_incorr,symbol2,symbol1,fb_late,pair,position,correct,block_01.thisRepN,block_01.thisTrialN,block_01.thisN,block_01.thisIndex,block_02.thisRepN,block_02.thisTrialN,block_02.thisN,block_02.thisIndex,block_03.thisRepN,block_03.thisTrialN,block_03.thisN,block_03.thisIndex,block_04.thisRepN,block_04.thisTrialN,block_04.thisN,block_04.thisIndex,mouse.x,mouse.y,mouse.leftButton,mouse.midButton,mouse.rightButton,buttonBox_2.keys,buttonBox_2.corr,buttonBox_2.rt,mouse_2.x,mouse_2.y,mouse_2.leftButton,mouse_2.midButton,mouse_2.rightButton,expName,Participant,frameRate,SessionNumber,Version,date,Group,
,,,,,,,,,,,,,,,,,,,,,,,,0.86875,1.0,1,0,0,,,,,,,,,PLC_L_D2S1,P11,60.0140018382,02,A,2015_Jan_30_1416,Y,
stim/negf.jpg,stim/posf.jpg,stim/6.jpg,stim/2.jpg,stim/latef.jpg,EF,1,2,0,0,0,48,,,,,,,,,,,,,,,,,,4,0,1.36631013601,,,,,,PLC_L_D2S1,P11,60.0140018382,02,A,2015_Jan_30_1416,Y,
stim/posf.jpg,stim/negf.jpg,stim/1.jpg,stim/5.jpg,stim/latef.jpg,AB,2,4,0,1,1,13,,,,,,,,,,,,,,,,,,4,1,0.932970058872,,,,,,PLC_L_D2S1,P11,60.0140018382,02,A,2015_Jan_30_1416,Y,
stim/posf.jpg,stim/negf.jpg,stim/5.jpg,stim/1.jpg,stim/latef.jpg,AB,1,2,0,2,2,6,,,,,,,,,,,,,,,,,,2,1,1.56616980323,,,,,,PLC_L_D2S1,P11,60.0140018382,02,A,2015_Jan_30_1416,Y,
stim/posf.jpg,stim/negf.jpg,stim/4.jpg,stim/3.jpg,stim/latef.jpg,CD,2,4,0,3,3,35,,,,,,,,,,,,,,,,,,2,0,1.11625251239,,,,,,PLC_L_D2S1,P11,60.0140018382,02,A,2015_Jan_30_1416,Y,
stim/negf.jpg,stim/posf.jpg,stim/3.jpg,stim/4.jpg,stim/latef.jpg,CD,1,2,0,4,4,29,,,,,,,,,,,,,,,,,,2,1,1.11627840693,,,,,,PLC_L_D2S1,P11,60.0140018382,02,A,2015_Jan_30_1416,Y,
stim/posf.jpg,stim/negf.jpg,stim/2.jpg,stim/6.jpg,stim/latef.jpg,EF,2,4,0,5,5,52,,,,,,,,,,,,,,,,,,2,0,0.949727818588,,,,,,PLC_L_D2S1,P11,60.0140018382,02,A,2015_Jan_30_1416,Y,
stim/posf.jpg,stim/negf.jpg,stim/1.jpg,stim/5.jpg,stim/latef.jpg,AB,2,4,0,6,6,17,,,,,,,,,,,,,,,,,,4,1,0.933090548191,,,,,,PLC_L_D2S1,P11,60.0140018382,02,A,2015_Jan_30_1416,Y,
stim/posf.jpg,stim/negf.jpg,stim/3.jpg,stim/4.jpg,stim/latef.jpg,CD,1,2,0,7,7,20,,,,,,,,,,,,,,,,,,4,0,0.799730991496,,,,,,PLC_L_D2S1,P11,60.0140018382,02,A,2015_Jan_30_1416,Y,
stim/negf.jpg,stim/posf.jpg,stim/6.jpg,stim/2.jpg,stim/latef.jpg,EF,1,2,0,8,8,49,,,,,,,,,,,,,,,,,,4,0,0.933015628454,,,,,,PLC_L_D2S1,P11,60.0140018382,02,A,2015_Jan_30_1416,Y,
stim/posf.jpg,stim/negf.jpg,stim/4.jpg,stim/3.jpg,stim/latef.jpg,CD,2,4,0,9,9,31,,,,,,,,,,,,,,,,,,2,0,1.13295087405,,,,,,PLC_L_D2S1,P11,60.0140018382,02,A,2015_Jan_30_1416,Y,
stim/negf.jpg,stim/posf.jpg,stim/2.jpg,stim/6.jpg,stim/latef.jpg,EF,2,4,0,10,10,56,,,,,,,,,,,,,,,,,,2,0,0.749729325343,,,,,,PLC_L_D2S1,P11,60.0140018382,02,A,2015_Jan_30_1416,Y,
stim/posf.jpg,stim/negf.jpg,stim/5.jpg,stim/1.jpg,stim/latef.jpg,AB,1,2,0,11,11,1,,,,,,,,,,,,,,,,,,2,1,0.916361723596,,,,,,PLC_L_D2S1,P11,60.0140018382,02,A,2015_Jan_30_1416,Y,
stim/posf.jpg,stim/negf.jpg,stim/1.jpg,stim/5.jpg,stim/latef.jpg,AB,2,4,0,12,12,15,,,,,,,,,,,,,,,,,,4,1,1.23294154179,,,,,,PLC_L_D2S1,P11,60.0140018382,02,A,2015_Jan_30_1416,Y,
stim/posf.jpg,stim/negf.jpg,stim/3.jpg,stim/4.jpg,stim/latef.jpg,CD,1,2,0,13,13,25,,,,,,,,,,,,,,,,,,2,1,0.883055044699,,,,,,PLC_L_D2S1,P11,60.0140018382,02,A,2015_Jan_30_1416,Y,
stim/posf.jpg,stim/negf.jpg,stim/1.jpg,stim/5.jpg,stim/latef.jpg,AB,2,4,0,14,14,11,,,,,,,,,,,,,,,,,,2,0,1.19964872745,,,,,,PLC_L_D2S1,P11,60.0140018382,02,A,2015_Jan_30_1416,Y,
stim/posf.jpg,stim/negf.jpg,stim/1.jpg,stim/5.jpg,stim/latef.jpg,AB,2,4,0,15,15,10,,,,,,,,,,,,,,,,,,4,1,0.716420432929,,,,,,PLC_L_D2S1,P11,60.0140018382,02,A,2015_Jan_30_1416,Y,
stim/negf.jpg,stim/posf.jpg,stim/5.jpg,stim/1.jpg,stim/latef.jpg,AB,1,2,0,16,16,9,,,,,,,,,,,,,,,,,,2,1,0.599778696401,,,,,,PLC_L_D2S1,P11,60.0140018382,02,A,2015_Jan_30_1416,Y,
stim/posf.jpg,stim/negf.jpg,stim/6.jpg,stim/2.jpg,stim/latef.jpg,EF,1,2,0,17,17,44,,,,,,,,,,,,,,,,,,4,0,0.733091059466,,,,,,PLC_L_D2S1,P11,60.0140018382,02,A,2015_Jan_30_1416,Y,
stim/posf.jpg,stim/negf.jpg,stim/6.jpg,stim/2.jpg,stim/latef.jpg,EF,1,2,0,18,18,42,,,,,,,,,,,,,,,,,,4,0,0.916351834949,,,,,,PLC_L_D2S1,P11,60.0140018382,02,A,2015_Jan_30_1416,Y,
stim/posf.jpg,stim/negf.jpg,stim/2.jpg,stim/6.jpg,stim/latef.jpg,EF,2,4,0,19,19,50,,,,,,,,,,,,,,,,,,4,1,0.76642157277,,,,,,PLC_L_D2S1,P11,60.0140018382,02,A,2015_Jan_30_1416,Y,
stim/posf.jpg,stim/negf.jpg,stim/1.jpg,stim/5.jpg,stim/latef.jpg,AB,2,4,0,20,20,16,,,,,,,,,,,,,,,,,,4,1,0.866365699506,,,,,,PLC_L_D2S1,P11,60.0140018382,02,A,2015_Jan_30_1416,Y,
stim/posf.jpg,stim/negf.jpg,stim/5.jpg,stim/1.jpg,stim/latef.jpg,AB,1,2,0,21,21,5,,,,,,,,,,,,,,,,,,2,1,0.999682414418,,,,,,PLC_L_D2S1,P11,60.0140018382,02,A,2015_Jan_30_1416,Y,
stim/posf.jpg,stim/negf.jpg,stim/4.jpg,stim/3.jpg,stim/latef.jpg,CD,2,4,0,22,22,36,,,,,,,,,,,,,,,,,,4,1,0.783075146803,,,,,,PLC_L_D2S1,P11,60.0140018382,02,A,2015_Jan_30_1416,Y,
stim/posf.jpg,stim/negf.jpg,stim/6.jpg,stim/2.jpg,stim/latef.jpg,EF,1,2,0,23,23,40,,,,,,,,,,,,,,,,,,2,1,0.933027165209,,,,,,PLC_L_D2S1,P11,60.0140018382,02,A,2015_Jan_30_1416,Y,
stim/negf.jpg,stim/posf.jpg,stim/4.jpg,stim/3.jpg,stim/latef.jpg,CD,2,4,0,24,24,38,,,,,,,,,,,,,,,,,,4,1,1.13295124097,,,,,,PLC_L_D2S1,P11,60.0140018382,02,A,2015_Jan_30_1416,Y,
stim/posf.jpg,stim/negf.jpg,stim/5.jpg,stim/1.jpg,stim/latef.jpg,AB,1,2,0,25,25,4,,,,,,,,,,,,,,,,,,2,1,0.866413675085,,,,,,PLC_L_D2S1,P11,60.0140018382,02,A,2015_Jan_30_1416,Y,
stim/negf.jpg,stim/posf.jpg,stim/6.jpg,stim/2.jpg,stim/latef.jpg,EF,1,2,0,26,26,47,,,,,,,,,,,,,,,,,,2,1,0.883050774054,,,,,,PLC_L_D2S1,P11,60.0140018382,02,A,2015_Jan_30_1416,Y,
stim/negf.jpg,stim/posf.jpg,stim/4.jpg,stim/3.jpg,stim/latef.jpg,CD,2,4,0,27,27,37,,,,,,,,,,,,,,,,,,4,1,0.716430784731,,,,,,PLC_L_D2S1,P11,60.0140018382,02,A,2015_Jan_30_1416,Y,
stim/posf.jpg,stim/negf.jpg,stim/4.jpg,stim/3.jpg,stim/latef.jpg,CD,2,4,0,28,28,34,,,,,,,,,,,,,,,,,,4,1,0.833057134909,,,,,,PLC_L_D2S1,P11,60.0140018382,02,A,2015_Jan_30_1416,Y,
stim/posf.jpg,stim/negf.jpg,stim/5.jpg,stim/1.jpg,stim/latef.jpg,AB,1,2,0,29,29,7,,,,,,,,,,,,,,,,,,2,1,0.649785908377,,,,,,PLC_L_D2S1,P11,60.0140018382,02,A,2015_Jan_30_1416,Y,
stim/posf.jpg,stim/negf.jpg,stim/2.jpg,stim/6.jpg,stim/latef.jpg,EF,2,4,0,30,30,51,,,,,,,,,,,,,,,,,,4,1,0.749770934053,,,,,,PLC_L_D2S1,P11,60.0140018382,02,A,2015_Jan_30_1416,Y,
stim/posf.jpg,stim/negf.jpg,stim/4.jpg,stim/3.jpg,stim/latef.jpg,CD,2,4,0,31,31,32,,,,,,,,,,,,,,,,,,4,1,0.799689566244,,,,,,PLC_L_D2S1,P11,60.0140018382,02,A,2015_Jan_30_1416,Y,
stim/negf.jpg,stim/posf.jpg,stim/2.jpg,stim/6.jpg,stim/latef.jpg,EF,2,4,0,32,32,57,,,,,,,,,,,,,,,,,,4,1,0.749756191307,,,,,,PLC_L_D2S1,P11,60.0140018382,02,A,2015_Jan_30_1416,Y,
stim/posf.jpg,stim/negf.jpg,stim/6.jpg,stim/2.jpg,stim/latef.jpg,EF,1,2,0,33,33,43,,,,,,,,,,,,,,,,,,2,1,0.882999393989,,,,,,PLC_L_D2S1,P11,60.0140018382,02,A,2015_Jan_30_1416,Y,
stim/negf.jpg,stim/posf.jpg,stim/3.jpg,stim/4.jpg,stim/latef.jpg,CD,1,2,0,34,34,28,,,,,,,,,,,,,,,,,,2,1,0.833099760152,,,,,,PLC_L_D2S1,P11,60.0140018382,02,A,2015_Jan_30_1416,Y,
stim/posf.jpg,stim/negf.jpg,stim/4.jpg,stim/3.jpg,stim/latef.jpg,CD,2,4,0,35,35,30,,,,,,,,,,,,,,,,,,2,0,1.23298106029,,,,,,PLC_L_D2S1,P11,60.0140018382,02,A,2015_Jan_30_1416,Y,
stim/negf.jpg,stim/posf.jpg,stim/6.jpg,stim/2.jpg,stim/latef.jpg,EF,1,2,0,36,36,46,,,,,,,,,,,,,,,,,,2,1,1.11628010616,,,,,,PLC_L_D2S1,P11,60.0140018382,02,A,2015_Jan_30_1416,Y,
stim/posf.jpg,stim/negf.jpg,stim/2.jpg,stim/6.jpg,stim/latef.jpg,EF,2,4,0,37,37,54,,,,,,,,,,,,,,,,,,4,1,0.699764155157,,,,,,PLC_L_D2S1,P11,60.0140018382,02,A,2015_Jan_30_1416,Y,
stim/negf.jpg,stim/posf.jpg,stim/2.jpg,stim/6.jpg,stim/latef.jpg,EF,2,4,0,38,38,59,,,,,,,,,,,,,,,,,,4,1,0.666373828768,,,,,,PLC_L_D2S1,P11,60.0140018382,02,A,2015_Jan_30_1416,Y,
stim/negf.jpg,stim/posf.jpg,stim/4.jpg,stim/3.jpg,stim/latef.jpg,CD,2,4,0,39,39,39,,,,,,,,,,,,,,,,,,4,1,0.949673728769,,,,,,PLC_L_D2S1,P11,60.0140018382,02,A,2015_Jan_30_1416,Y,
stim/posf.jpg,stim/negf.jpg,stim/1.jpg,stim/5.jpg,stim/latef.jpg,AB,2,4,0,40,40,14,,,,,,,,,,,,,,,,,,4,1,1.0496290464,,,,,,PLC_L_D2S1,P11,60.0140018382,02,A,2015_Jan_30_1416,Y,
stim/posf.jpg,stim/negf.jpg,stim/5.jpg,stim/1.jpg,stim/latef.jpg,AB,1,2,0,41,41,0,,,,,,,,,,,,,,,,,,2,1,0.799722738927,,,,,,PLC_L_D2S1,P11,60.0140018382,02,A,2015_Jan_30_1416,Y,
stim/posf.jpg,stim/negf.jpg,stim/6.jpg,stim/2.jpg,stim/latef.jpg,EF,1,2,0,42,42,41,,,,,,,,,,,,,,,,,,2,1,0.716463376967,,,,,,PLC_L_D2S1,P11,60.0140018382,02,A,2015_Jan_30_1416,Y,
stim/posf.jpg,stim/negf.jpg,stim/3.jpg,stim/4.jpg,stim/latef.jpg,CD,1,2,0,43,43,24,,,,,,,,,,,,,,,,,,2,1,0.699811123225,,,,,,PLC_L_D2S1,P11,60.0140018382,02,A,2015_Jan_30_1416,Y,
stim/posf.jpg,stim/negf.jpg,stim/3.jpg,stim/4.jpg,stim/latef.jpg,CD,1,2,0,44,44,26,,,,,,,,,,,,,,,,,,2,1,0.649776338524,,,,,,PLC_L_D2S1,P11,60.0140018382,02,A,2015_Jan_30_1416,Y,
stim/posf.jpg,stim/negf.jpg,stim/2.jpg,stim/6.jpg,stim/latef.jpg,EF,2,4,0,45,45,55,,,,,,,,,,,,,,,,,,4,1,0.733053336441,,,,,,PLC_L_D2S1,P11,60.0140018382,02,A,2015_Jan_30_1416,Y,
stim/negf.jpg,stim/posf.jpg,stim/1.jpg,stim/5.jpg,stim/latef.jpg,AB,2,4,0,46,46,19,,,,,,,,,,,,,,,,,,4,1,0.666440044812,,,,,,PLC_L_D2S1,P11,60.0140018382,02,A,2015_Jan_30_1416,Y,
stim/posf.jpg,stim/negf.jpg,stim/5.jpg,stim/1.jpg,stim/latef.jpg,AB,1,2,0,47,47,3,,,,,,,,,,,,,,,,,,2,1,0.86637833099,,,,,,PLC_L_D2S1,P11,60.0140018382,02,A,2015_Jan_30_1416,Y,
stim/posf.jpg,stim/negf.jpg,stim/2.jpg,stim/6.jpg,stim/latef.jpg,EF,2,4,0,48,48,53,,,,,,,,,,,,,,,,,,4,1,0.683104632296,,,,,,PLC_L_D2S1,P11,60.0140018382,02,A,2015_Jan_30_1416,Y,
stim/negf.jpg,stim/posf.jpg,stim/2.jpg,stim/6.jpg,stim/latef.jpg,EF,2,4,0,49,49,58,,,,,,,,,,,,,,,,,,4,1,0.716480170826,,,,,,PLC_L_D2S1,P11,60.0140018382,02,A,2015_Jan_30_1416,Y,
stim/posf.jpg,stim/negf.jpg,stim/3.jpg,stim/4.jpg,stim/latef.jpg,CD,1,2,0,50,50,22,,,,,,,,,,,,,,,,,,2,1,0.816373284411,,,,,,PLC_L_D2S1,P11,60.0140018382,02,A,2015_Jan_30_1416,Y,
stim/posf.jpg,stim/negf.jpg,stim/3.jpg,stim/4.jpg,stim/latef.jpg,CD,1,2,0,51,51,21,,,,,,,,,,,,,,,,,,2,1,0.833054064255,,,,,,PLC_L_D2S1,P11,60.0140018382,02,A,2015_Jan_30_1416,Y,
stim/negf.jpg,stim/posf.jpg,stim/3.jpg,stim/4.jpg,stim/latef.jpg,CD,1,2,0,52,52,27,,,,,,,,,,,,,,,,,,2,1,0.733114800641,,,,,,PLC_L_D2S1,P11,60.0140018382,02,A,2015_Jan_30_1416,Y,
stim/posf.jpg,stim/negf.jpg,stim/1.jpg,stim/5.jpg,stim/latef.jpg,AB,2,4,0,53,53,12,,,,,,,,,,,,,,,,,,4,1,0.99968463395,,,,,,PLC_L_D2S1,P11,60.0140018382,02,A,2015_Jan_30_1416,Y,
stim/negf.jpg,stim/posf.jpg,stim/5.jpg,stim/1.jpg,stim/latef.jpg,AB,1,2,0,54,54,8,,,,,,,,,,,,,,,,,,2,1,0.666456300328,,,,,,PLC_L_D2S1,P11,60.0140018382,02,A,2015_Jan_30_1416,Y,
stim/negf.jpg,stim/posf.jpg,stim/1.jpg,stim/5.jpg,stim/latef.jpg,AB,2,4,0,55,55,18,,,,,,,,,,,,,,,,,,4,1,0.583122782535,,,,,,PLC_L_D2S1,P11,60.0140018382,02,A,2015_Jan_30_1416,Y,
stim/posf.jpg,stim/negf.jpg,stim/5.jpg,stim/1.jpg,stim/latef.jpg,AB,1,2,0,56,56,2,,,,,,,,,,,,,,,,,,2,1,0.633113248773,,,,,,PLC_L_D2S1,P11,60.0140018382,02,A,2015_Jan_30_1416,Y,
stim/posf.jpg,stim/negf.jpg,stim/4.jpg,stim/3.jpg,stim/latef.jpg,CD,2,4,0,57,57,33,,,,,,,,,,,,,,,,,,4,1,0.783034004256,,,,,,PLC_L_D2S1,P11,60.0140018382,02,A,2015_Jan_30_1416,Y,
stim/posf.jpg,stim/negf.jpg,stim/6.jpg,stim/2.jpg,stim/latef.jpg,EF,1,2,0,58,58,45,,,,,,,,,,,,,,,,,,2,1,0.86637430696,,,,,,PLC_L_D2S1,P11,60.0140018382,02,A,2015_Jan_30_1416,Y,
stim/posf.jpg,stim/negf.jpg,stim/3.jpg,stim/4.jpg,stim/latef.jpg,CD,1,2,0,59,59,23,,,,,,,,,,,,,,,,,,4,0,0.816336331306,,,,,,PLC_L_D2S1,P11,60.0140018382,02,A,2015_Jan_30_1416,Y,
,,,,,,,,,,,,,,,,,,,,,,,,,,,,,,,,0.86875,1.0,1,0,0,PLC_L_D2S1,P11,60.0140018382,02,A,2015_Jan_30_1416,Y,
stim/posf.jpg,stim/negf.jpg,stim/1.jpg,stim/5.jpg,stim/latef.jpg,AB,2,4,,,,,0,0,0,11,,,,,,,,,,,,,,4,1,0.799739788423,,,,,,PLC_L_D2S1,P11,60.0140018382,02,A,2015_Jan_30_1416,Y,
stim/posf.jpg,stim/negf.jpg,stim/1.jpg,stim/5.jpg,stim/latef.jpg,AB,2,4,,,,,0,1,1,14,,,,,,,,,,,,,,4,1,0.749765965669,,,,,,PLC_L_D2S1,P11,60.0140018382,02,A,2015_Jan_30_1416,Y,
stim/posf.jpg,stim/negf.jpg,stim/3.jpg,stim/4.jpg,stim/latef.jpg,CD,1,2,,,,,0,2,2,22,,,,,,,,,,,,,,2,1,0.733094178239,,,,,,PLC_L_D2S1,P11,60.0140018382,02,A,2015_Jan_30_1416,Y,
stim/negf.jpg,stim/posf.jpg,stim/2.jpg,stim/6.jpg,stim/latef.jpg,EF,2,4,,,,,0,3,3,58,,,,,,,,,,,,,,4,1,0.633111877354,,,,,,PLC_L_D2S1,P11,60.0140018382,02,A,2015_Jan_30_1416,Y,
stim/negf.jpg,stim/posf.jpg,stim/6.jpg,stim/2.jpg,stim/latef.jpg,EF,1,2,,,,,0,4,4,47,,,,,,,,,,,,,,2,1,0.666440375636,,,,,,PLC_L_D2S1,P11,60.0140018382,02,A,2015_Jan_30_1416,Y,
stim/posf.jpg,stim/negf.jpg,stim/5.jpg,stim/1.jpg,stim/latef.jpg,AB,1,2,,,,,0,5,5,7,,,,,,,,,,,,,,2,1,0.749810109698,,,,,,PLC_L_D2S1,P11,60.0140018382,02,A,2015_Jan_30_1416,Y,
stim/posf.jpg,stim/negf.jpg,stim/1.jpg,stim/5.jpg,stim/latef.jpg,AB,2,4,,,,,0,6,6,13,,,,,,,,,,,,,,4,1,0.599810981872,,,,,,PLC_L_D2S1,P11,60.0140018382,02,A,2015_Jan_30_1416,Y,
stim/negf.jpg,stim/posf.jpg,stim/4.jpg,stim/3.jpg,stim/latef.jpg,CD,2,4,,,,,0,7,7,39,,,,,,,,,,,,,,4,1,0.849741782393,,,,,,PLC_L_D2S1,P11,60.0140018382,02,A,2015_Jan_30_1416,Y,
stim/negf.jpg,stim/posf.jpg,stim/3.jpg,stim/4.jpg,stim/latef.jpg,CD,1,2,,,,,0,8,8,27,,,,,,,,,,,,,,2,1,0.783068803994,,,,,,PLC_L_D2S1,P11,60.0140018382,02,A,2015_Jan_30_1416,Y,
stim/posf.jpg,stim/negf.jpg,stim/6.jpg,stim/2.jpg,stim/latef.jpg,EF,1,2,,,,,0,9,9,44,,,,,,,,,,,,,,2,1,0.749763770197,,,,,,PLC_L_D2S1,P11,60.0140018382,02,A,2015_Jan_30_1416,Y,
stim/posf.jpg,stim/negf.jpg,stim/4.jpg,stim/3.jpg,stim/latef.jpg,CD,2,4,,,,,0,10,10,31,,,,,,,,,,,,,,4,1,0.8664018857,,,,,,PLC_L_D2S1,P11,60.0140018382,02,A,2015_Jan_30_1416,Y,
stim/posf.jpg,stim/negf.jpg,stim/3.jpg,stim/4.jpg,stim/latef.jpg,CD,1,2,,,,,0,11,11,26,,,,,,,,,,,,,,2,1,0.683100087969,,,,,,PLC_L_D2S1,P11,60.0140018382,02,A,2015_Jan_30_1416,Y,
stim/negf.jpg,stim/posf.jpg,stim/2.jpg,stim/6.jpg,stim/latef.jpg,EF,2,4,,,,,0,12,12,56,,,,,,,,,,,,,,2,0,0.932935932812,,,,,,PLC_L_D2S1,P11,60.0140018382,02,A,2015_Jan_30_1416,Y,
stim/posf.jpg,stim/negf.jpg,stim/1.jpg,stim/5.jpg,stim/latef.jpg,AB,2,4,,,,,0,13,13,12,,,,,,,,,,,,,,4,1,0.63318819257,,,,,,PLC_L_D2S1,P11,60.0140018382,02,A,2015_Jan_30_1416,Y,
stim/posf.jpg,stim/negf.jpg,stim/5.jpg,stim/1.jpg,stim/latef.jpg,AB,1,2,,,,,0,14,14,6,,,,,,,,,,,,,,2,1,0.74976316569,,,,,,PLC_L_D2S1,P11,60.0140018382,02,A,2015_Jan_30_1416,Y,
stim/posf.jpg,stim/negf.jpg,stim/3.jpg,stim/4.jpg,stim/latef.jpg,CD,1,2,,,,,0,15,15,24,,,,,,,,,,,,,,2,1,0.833059793535,,,,,,PLC_L_D2S1,P11,60.0140018382,02,A,2015_Jan_30_1416,Y,
stim/posf.jpg,stim/negf.jpg,stim/1.jpg,stim/5.jpg,stim/latef.jpg,AB,2,4,,,,,0,16,16,15,,,,,,,,,,,,,,4,1,0.76638802415,,,,,,PLC_L_D2S1,P11,60.0140018382,02,A,2015_Jan_30_1416,Y,
stim/posf.jpg,stim/negf.jpg,stim/3.jpg,stim/4.jpg,stim/latef.jpg,CD,1,2,,,,,0,17,17,23,,,,,,,,,,,,,,2,1,0.799737463628,,,,,,PLC_L_D2S1,P11,60.0140018382,02,A,2015_Jan_30_1416,Y,
stim/negf.jpg,stim/posf.jpg,stim/5.jpg,stim/1.jpg,stim/latef.jpg,AB,1,2,,,,,0,18,18,8,,,,,,,,,,,,,,2,1,0.69976744235,,,,,,PLC_L_D2S1,P11,60.0140018382,02,A,2015_Jan_30_1416,Y,
stim/posf.jpg,stim/negf.jpg,stim/2.jpg,stim/6.jpg,stim/latef.jpg,EF,2,4,,,,,0,19,19,52,,,,,,,,,,,,,,4,1,0.883043826738,,,,,,PLC_L_D2S1,P11,60.0140018382,02,A,2015_Jan_30_1416,Y,
stim/negf.jpg,stim/posf.jpg,stim/3.jpg,stim/4.jpg,stim/latef.jpg,CD,1,2,,,,,0,20,20,28,,,,,,,,,,,,,,2,1,0.649798521815,,,,,,PLC_L_D2S1,P11,60.0140018382,02,A,2015_Jan_30_1416,Y,
stim/posf.jpg,stim/negf.jpg,stim/5.jpg,stim/1.jpg,stim/latef.jpg,AB,1,2,,,,,0,21,21,1,,,,,,,,,,,,,,2,1,0.716439843309,,,,,,PLC_L_D2S1,P11,60.0140018382,02,A,2015_Jan_30_1416,Y,
stim/posf.jpg,stim/negf.jpg,stim/4.jpg,stim/3.jpg,stim/latef.jpg,CD,2,4,,,,,0,22,22,34,,,,,,,,,,,,,,4,1,0.799726522357,,,,,,PLC_L_D2S1,P11,60.0140018382,02,A,2015_Jan_30_1416,Y,
stim/posf.jpg,stim/negf.jpg,stim/6.jpg,stim/2.jpg,stim/latef.jpg,EF,1,2,,,,,0,23,23,45,,,,,,,,,,,,,,2,1,0.966406664612,,,,,,PLC_L_D2S1,P11,60.0140018382,02,A,2015_Jan_30_1416,Y,
stim/posf.jpg,stim/negf.jpg,stim/5.jpg,stim/1.jpg,stim/latef.jpg,AB,1,2,,,,,0,24,24,5,,,,,,,,,,,,,,2,1,0.749740573379,,,,,,PLC_L_D2S1,P11,60.0140018382,02,A,2015_Jan_30_1416,Y,
stim/negf.jpg,stim/posf.jpg,stim/6.jpg,stim/2.jpg,stim/latef.jpg,EF,1,2,,,,,0,25,25,49,,,,,,,,,,,,,,2,1,0.749766861903,,,,,,PLC_L_D2S1,P11,60.0140018382,02,A,2015_Jan_30_1416,Y,
stim/posf.jpg,stim/negf.jpg,stim/2.jpg,stim/6.jpg,stim/latef.jpg,EF,2,4,,,,,0,26,26,54,,,,,,,,,,,,,,4,1,0.833036440328,,,,,,PLC_L_D2S1,P11,60.0140018382,02,A,2015_Jan_30_1416,Y,
stim/posf.jpg,stim/negf.jpg,stim/1.jpg,stim/5.jpg,stim/latef.jpg,AB,2,4,,,,,0,27,27,17,,,,,,,,,,,,,,4,1,0.733101874422,,,,,,PLC_L_D2S1,P11,60.0140018382,02,A,2015_Jan_30_1416,Y,
stim/posf.jpg,stim/negf.jpg,stim/2.jpg,stim/6.jpg,stim/latef.jpg,EF,2,4,,,,,0,28,28,55,,,,,,,,,,,,,,4,1,0.683098878956,,,,,,PLC_L_D2S1,P11,60.0140018382,02,A,2015_Jan_30_1416,Y,
stim/negf.jpg,stim/posf.jpg,stim/3.jpg,stim/4.jpg,stim/latef.jpg,CD,1,2,,,,,0,29,29,29,,,,,,,,,,,,,,2,1,0.683100596236,,,,,,PLC_L_D2S1,P11,60.0140018382,02,A,2015_Jan_30_1416,Y,
stim/posf.jpg,stim/negf.jpg,stim/4.jpg,stim/3.jpg,stim/latef.jpg,CD,2,4,,,,,0,30,30,36,,,,,,,,,,,,,,4,1,0.649671545327,,,,,,PLC_L_D2S1,P11,60.0140018382,02,A,2015_Jan_30_1416,Y,
stim/negf.jpg,stim/posf.jpg,stim/1.jpg,stim/5.jpg,stim/latef.jpg,AB,2,4,,,,,0,31,31,19,,,,,,,,,,,,,,4,1,0.533124223126,,,,,,PLC_L_D2S1,P11,60.0140018382,02,A,2015_Jan_30_1416,Y,
stim/negf.jpg,stim/posf.jpg,stim/2.jpg,stim/6.jpg,stim/latef.jpg,EF,2,4,,,,,0,32,32,57,,,,,,,,,,,,,,4,1,0.633134529816,,,,,,PLC_L_D2S1,P11,60.0140018382,02,A,2015_Jan_30_1416,Y,
stim/posf.jpg,stim/negf.jpg,stim/5.jpg,stim/1.jpg,stim/latef.jpg,AB,1,2,,,,,0,33,33,3,,,,,,,,,,,,,,2,1,0.666414165307,,,,,,PLC_L_D2S1,P11,60.0140018382,02,A,2015_Jan_30_1416,Y,
stim/posf.jpg,stim/negf.jpg,stim/3.jpg,stim/4.jpg,stim/latef.jpg,CD,1,2,,,,,0,34,34,21,,,,,,,,,,,,,,4,0,0.56646899497,,,,,,PLC_L_D2S1,P11,60.0140018382,02,A,2015_Jan_30_1416,Y,
stim/posf.jpg,stim/negf.jpg,stim/2.jpg,stim/6.jpg,stim/latef.jpg,EF,2,4,,,,,0,35,35,50,,,,,,,,,,,,,,4,1,0.616484294103,,,,,,PLC_L_D2S1,P11,60.0140018382,02,A,2015_Jan_30_1416,Y,
stim/posf.jpg,stim/negf.jpg,stim/6.jpg,stim/2.jpg,stim/latef.jpg,EF,1,2,,,,,0,36,36,43,,,,,,,,,,,,,,2,1,0.633103733055,,,,,,PLC_L_D2S1,P11,60.0140018382,02,A,2015_Jan_30_1416,Y,
stim/negf.jpg,stim/posf.jpg,stim/4.jpg,stim/3.jpg,stim/latef.jpg,CD,2,4,,,,,0,37,37,38,,,,,,,,,,,,,,4,1,0.599800079699,,,,,,PLC_L_D2S1,P11,60.0140018382,02,A,2015_Jan_30_1416,Y,
stim/posf.jpg,stim/negf.jpg,stim/6.jpg,stim/2.jpg,stim/latef.jpg,EF,1,2,,,,,0,38,38,40,,,,,,,,,,,,,,2,1,0.716442811708,,,,,,PLC_L_D2S1,P11,60.0140018382,02,A,2015_Jan_30_1416,Y,
stim/negf.jpg,stim/posf.jpg,stim/1.jpg,stim/5.jpg,stim/latef.jpg,AB,2,4,,,,,0,39,39,18,,,,,,,,,,,,,,4,1,0.699831306531,,,,,,PLC_L_D2S1,P11,60.0140018382,02,A,2015_Jan_30_1416,Y,
stim/negf.jpg,stim/posf.jpg,stim/2.jpg,stim/6.jpg,stim/latef.jpg,EF,2,4,,,,,0,40,40,59,,,,,,,,,,,,,,4,1,0.649797454155,,,,,,PLC_L_D2S1,P11,60.0140018382,02,A,2015_Jan_30_1416,Y,
stim/posf.jpg,stim/negf.jpg,stim/2.jpg,stim/6.jpg,stim/latef.jpg,EF,2,4,,,,,0,41,41,51,,,,,,,,,,,,,,4,1,0.683123179525,,,,,,PLC_L_D2S1,P11,60.0140018382,02,A,2015_Jan_30_1416,Y,
stim/posf.jpg,stim/negf.jpg,stim/1.jpg,stim/5.jpg,stim/latef.jpg,AB,2,4,,,,,0,42,42,16,,,,,,,,,,,,,,4,1,0.683110226239,,,,,,PLC_L_D2S1,P11,60.0140018382,02,A,2015_Jan_30_1416,Y,
stim/posf.jpg,stim/negf.jpg,stim/5.jpg,stim/1.jpg,stim/latef.jpg,AB,1,2,,,,,0,43,43,4,,,,,,,,,,,,,,2,1,0.649832202765,,,,,,PLC_L_D2S1,P11,60.0140018382,02,A,2015_Jan_30_1416,Y,
stim/negf.jpg,stim/posf.jpg,stim/4.jpg,stim/3.jpg,stim/latef.jpg,CD,2,4,,,,,0,44,44,37,,,,,,,,,,,,,,4,1,0.549747376336,,,,,,PLC_L_D2S1,P11,60.0140018382,02,A,2015_Jan_30_1416,Y,
stim/negf.jpg,stim/posf.jpg,stim/6.jpg,stim/2.jpg,stim/latef.jpg,EF,1,2,,,,,0,45,45,46,,,,,,,,,,,,,,2,1,0.916378703919,,,,,,PLC_L_D2S1,P11,60.0140018382,02,A,2015_Jan_30_1416,Y,
stim/posf.jpg,stim/negf.jpg,stim/1.jpg,stim/5.jpg,stim/latef.jpg,AB,2,4,,,,,0,46,46,10,,,,,,,,,,,,,,4,1,0.68311358862,,,,,,PLC_L_D2S1,P11,60.0140018382,02,A,2015_Jan_30_1416,Y,
stim/negf.jpg,stim/posf.jpg,stim/6.jpg,stim/2.jpg,stim/latef.jpg,EF,1,2,,,,,0,47,47,48,,,,,,,,,,,,,,2,1,0.666386625664,,,,,,PLC_L_D2S1,P11,60.0140018382,02,A,2015_Jan_30_1416,Y,
stim/posf.jpg,stim/negf.jpg,stim/4.jpg,stim/3.jpg,stim/latef.jpg,CD,2,4,,,,,0,48,48,32,,,,,,,,,,,,,,4,1,0.749777755055,,,,,,PLC_L_D2S1,P11,60.0140018382,02,A,2015_Jan_30_1416,Y,
stim/posf.jpg,stim/negf.jpg,stim/3.jpg,stim/4.jpg,stim/latef.jpg,CD,1,2,,,,,0,49,49,20,,,,,,,,,,,,,,2,1,0.649817808889,,,,,,PLC_L_D2S1,P11,60.0140018382,02,A,2015_Jan_30_1416,Y,
stim/posf.jpg,stim/negf.jpg,stim/4.jpg,stim/3.jpg,stim/latef.jpg,CD,2,4,,,,,0,50,50,30,,,,,,,,,,,,,,4,1,0.583103302983,,,,,,PLC_L_D2S1,P11,60.0140018382,02,A,2015_Jan_30_1416,Y,
stim/posf.jpg,stim/negf.jpg,stim/4.jpg,stim/3.jpg,stim/latef.jpg,CD,2,4,,,,,0,51,51,33,,,,,,,,,,,,,,4,1,0.566469428049,,,,,,PLC_L_D2S1,P11,60.0140018382,02,A,2015_Jan_30_1416,Y,
stim/posf.jpg,stim/negf.jpg,stim/3.jpg,stim/4.jpg,stim/latef.jpg,CD,1,2,,,,,0,52,52,25,,,,,,,,,,,,,,2,1,0.583148213923,,,,,,PLC_L_D2S1,P11,60.0140018382,02,A,2015_Jan_30_1416,Y,
stim/posf.jpg,stim/negf.jpg,stim/6.jpg,stim/2.jpg,stim/latef.jpg,EF,1,2,,,,,0,53,53,42,,,,,,,,,,,,,,2,1,0.733022377275,,,,,,PLC_L_D2S1,P11,60.0140018382,02,A,2015_Jan_30_1416,Y,
stim/negf.jpg,stim/posf.jpg,stim/5.jpg,stim/1.jpg,stim/latef.jpg,AB,1,2,,,,,0,54,54,9,,,,,,,,,,,,,,2,1,0.666401401493,,,,,,PLC_L_D2S1,P11,60.0140018382,02,A,2015_Jan_30_1416,Y,
stim/posf.jpg,stim/negf.jpg,stim/4.jpg,stim/3.jpg,stim/latef.jpg,CD,2,4,,,,,0,55,55,35,,,,,,,,,,,,,,4,1,0.533196496267,,,,,,PLC_L_D2S1,P11,60.0140018382,02,A,2015_Jan_30_1416,Y,
stim/posf.jpg,stim/negf.jpg,stim/2.jpg,stim/6.jpg,stim/latef.jpg,EF,2,4,,,,,0,56,56,53,,,,,,,,,,,,,,2,0,0.633124704325,,,,,,PLC_L_D2S1,P11,60.0140018382,02,A,2015_Jan_30_1416,Y,
stim/posf.jpg,stim/negf.jpg,stim/6.jpg,stim/2.jpg,stim/latef.jpg,EF,1,2,,,,,0,57,57,41,,,,,,,,,,,,,,2,1,0.899703298471,,,,,,PLC_L_D2S1,P11,60.0140018382,02,A,2015_Jan_30_1416,Y,
stim/posf.jpg,stim/negf.jpg,stim/5.jpg,stim/1.jpg,stim/latef.jpg,AB,1,2,,,,,0,58,58,2,,,,,,,,,,,,,,2,1,0.716467446109,,,,,,PLC_L_D2S1,P11,60.0140018382,02,A,2015_Jan_30_1416,Y,
stim/posf.jpg,stim/negf.jpg,stim/5.jpg,stim/1.jpg,stim/latef.jpg,AB,1,2,,,,,0,59,59,0,,,,,,,,,,,,,,2,1,0.833117922422,,,,,,PLC_L_D2S1,P11,60.0140018382,02,A,2015_Jan_30_1416,Y,
,,,,,,,,,,,,,,,,,,,,,,,,,,,,,,,,0.86875,1.0,1,0,0,PLC_L_D2S1,P11,60.0140018382,02,A,2015_Jan_30_1416,Y,
stim/posf.jpg,stim/negf.jpg,stim/4.jpg,stim/3.jpg,stim/latef.jpg,CD,2,4,,,,,,,,,0,0,0,32,,,,,,,,,,4,1,0.816444640266,,,,,,PLC_L_D2S1,P11,60.0140018382,02,A,2015_Jan_30_1416,Y,
stim/posf.jpg,stim/negf.jpg,stim/5.jpg,stim/1.jpg,stim/latef.jpg,AB,1,2,,,,,,,,,0,1,1,4,,,,,,,,,,2,1,0.716420366764,,,,,,PLC_L_D2S1,P11,60.0140018382,02,A,2015_Jan_30_1416,Y,
stim/posf.jpg,stim/negf.jpg,stim/3.jpg,stim/4.jpg,stim/latef.jpg,CD,1,2,,,,,,,,,0,2,2,22,,,,,,,,,,2,1,0.649802142841,,,,,,PLC_L_D2S1,P11,60.0140018382,02,A,2015_Jan_30_1416,Y,
stim/negf.jpg,stim/posf.jpg,stim/5.jpg,stim/1.jpg,stim/latef.jpg,AB,1,2,,,,,,,,,0,3,3,9,,,,,,,,,,2,1,0.549784197111,,,,,,PLC_L_D2S1,P11,60.0140018382,02,A,2015_Jan_30_1416,Y,
stim/posf.jpg,stim/negf.jpg,stim/1.jpg,stim/5.jpg,stim/latef.jpg,AB,2,4,,,,,,,,,0,4,4,17,,,,,,,,,,4,1,0.633124499816,,,,,,PLC_L_D2S1,P11,60.0140018382,02,A,2015_Jan_30_1416,Y,
stim/negf.jpg,stim/posf.jpg,stim/3.jpg,stim/4.jpg,stim/latef.jpg,CD,1,2,,,,,,,,,0,5,5,29,,,,,,,,,,2,1,0.583155064999,,,,,,PLC_L_D2S1,P11,60.0140018382,02,A,2015_Jan_30_1416,Y,
stim/posf.jpg,stim/negf.jpg,stim/5.jpg,stim/1.jpg,stim/latef.jpg,AB,1,2,,,,,,,,,0,6,6,1,,,,,,,,,,2,1,0.566494324103,,,,,,PLC_L_D2S1,P11,60.0140018382,02,A,2015_Jan_30_1416,Y,
stim/negf.jpg,stim/posf.jpg,stim/3.jpg,stim/4.jpg,stim/latef.jpg,CD,1,2,,,,,,,,,0,7,7,27,,,,,,,,,,2,1,0.583110695408,,,,,,PLC_L_D2S1,P11,60.0140018382,02,A,2015_Jan_30_1416,Y,
stim/posf.jpg,stim/negf.jpg,stim/3.jpg,stim/4.jpg,stim/latef.jpg,CD,1,2,,,,,,,,,0,8,8,20,,,,,,,,,,2,1,0.549811715701,,,,,,PLC_L_D2S1,P11,60.0140018382,02,A,2015_Jan_30_1416,Y,
stim/posf.jpg,stim/negf.jpg,stim/6.jpg,stim/2.jpg,stim/latef.jpg,EF,1,2,,,,,,,,,0,9,9,42,,,,,,,,,,2,1,0.749742516222,,,,,,PLC_L_D2S1,P11,60.0140018382,02,A,2015_Jan_30_1416,Y,
stim/posf.jpg,stim/negf.jpg,stim/2.jpg,stim/6.jpg,stim/latef.jpg,EF,2,4,,,,,,,,,0,10,10,50,,,,,,,,,,4,1,0.816367173179,,,,,,PLC_L_D2S1,P11,60.0140018382,02,A,2015_Jan_30_1416,Y,
stim/posf.jpg,stim/negf.jpg,stim/1.jpg,stim/5.jpg,stim/latef.jpg,AB,2,4,,,,,,,,,0,11,11,12,,,,,,,,,,4,1,0.766414878084,,,,,,PLC_L_D2S1,P11,60.0140018382,02,A,2015_Jan_30_1416,Y,
stim/posf.jpg,stim/negf.jpg,stim/5.jpg,stim/1.jpg,stim/latef.jpg,AB,1,2,,,,,,,,,0,12,12,0,,,,,,,,,,2,1,0.649791150443,,,,,,PLC_L_D2S1,P11,60.0140018382,02,A,2015_Jan_30_1416,Y,
stim/negf.jpg,stim/posf.jpg,stim/3.jpg,stim/4.jpg,stim/latef.jpg,CD,1,2,,,,,,,,,0,13,13,28,,,,,,,,,,2,1,0.666451491342,,,,,,PLC_L_D2S1,P11,60.0140018382,02,A,2015_Jan_30_1416,Y,
stim/posf.jpg,stim/negf.jpg,stim/3.jpg,stim/4.jpg,stim/latef.jpg,CD,1,2,,,,,,,,,0,14,14,24,,,,,,,,,,2,1,0.799735018534,,,,,,PLC_L_D2S1,P11,60.0140018382,02,A,2015_Jan_30_1416,Y,
stim/negf.jpg,stim/posf.jpg,stim/2.jpg,stim/6.jpg,stim/latef.jpg,EF,2,4,,,,,,,,,0,15,15,57,,,,,,,,,,4,1,0.883019631431,,,,,,PLC_L_D2S1,P11,60.0140018382,02,A,2015_Jan_30_1416,Y,
stim/posf.jpg,stim/negf.jpg,stim/4.jpg,stim/3.jpg,stim/latef.jpg,CD,2,4,,,,,,,,,0,16,16,34,,,,,,,,,,4,1,0.866409930752,,,,,,PLC_L_D2S1,P11,60.0140018382,02,A,2015_Jan_30_1416,Y,
stim/posf.jpg,stim/negf.jpg,stim/6.jpg,stim/2.jpg,stim/latef.jpg,EF,1,2,,,,,,,,,0,17,17,41,,,,,,,,,,2,1,0.73303050353,,,,,,PLC_L_D2S1,P11,60.0140018382,02,A,2015_Jan_30_1416,Y,
stim/negf.jpg,stim/posf.jpg,stim/6.jpg,stim/2.jpg,stim/latef.jpg,EF,1,2,,,,,,,,,0,18,18,49,,,,,,,,,,2,1,0.63315226502,,,,,,PLC_L_D2S1,P11,60.0140018382,02,A,2015_Jan_30_1416,Y,
stim/negf.jpg,stim/posf.jpg,stim/4.jpg,stim/3.jpg,stim/latef.jpg,CD,2,4,,,,,,,,,0,19,19,38,,,,,,,,,,4,1,0.816402481184,,,,,,PLC_L_D2S1,P11,60.0140018382,02,A,2015_Jan_30_1416,Y,
stim/posf.jpg,stim/negf.jpg,stim/3.jpg,stim/4.jpg,stim/latef.jpg,CD,1,2,,,,,,,,,0,20,20,21,,,,,,,,,,2,1,0.716470934805,,,,,,PLC_L_D2S1,P11,60.0140018382,02,A,2015_Jan_30_1416,Y,
stim/posf.jpg,stim/negf.jpg,stim/5.jpg,stim/1.jpg,stim/latef.jpg,AB,1,2,,,,,,,,,0,21,21,2,,,,,,,,,,2,1,0.733088268509,,,,,,PLC_L_D2S1,P11,60.0140018382,02,A,2015_Jan_30_1416,Y,
stim/negf.jpg,stim/posf.jpg,stim/6.jpg,stim/2.jpg,stim/latef.jpg,EF,1,2,,,,,,,,,0,22,22,48,,,,,,,,,,4,0,0.949679521207,,,,,,PLC_L_D2S1,P11,60.0140018382,02,A,2015_Jan_30_1416,Y,
stim/posf.jpg,stim/negf.jpg,stim/6.jpg,stim/2.jpg,stim/latef.jpg,EF,1,2,,,,,,,,,0,23,23,45,,,,,,,,,,2,1,0.666500922549,,,,,,PLC_L_D2S1,P11,60.0140018382,02,A,2015_Jan_30_1416,Y,
stim/posf.jpg,stim/negf.jpg,stim/6.jpg,stim/2.jpg,stim/latef.jpg,EF,1,2,,,,,,,,,0,24,24,40,,,,,,,,,,2,1,0.733075832513,,,,,,PLC_L_D2S1,P11,60.0140018382,02,A,2015_Jan_30_1416,Y,
stim/posf.jpg,stim/negf.jpg,stim/1.jpg,stim/5.jpg,stim/latef.jpg,AB,2,4,,,,,,,,,0,25,25,10,,,,,,,,,,4,1,0.666441298938,,,,,,PLC_L_D2S1,P11,60.0140018382,02,A,2015_Jan_30_1416,Y,
stim/posf.jpg,stim/negf.jpg,stim/5.jpg,stim/1.jpg,stim/latef.jpg,AB,1,2,,,,,,,,,0,26,26,6,,,,,,,,,,2,1,0.599788876775,,,,,,PLC_L_D2S1,P11,60.0140018382,02,A,2015_Jan_30_1416,Y,
stim/negf.jpg,stim/posf.jpg,stim/5.jpg,stim/1.jpg,stim/latef.jpg,AB,1,2,,,,,,,,,0,27,27,8,,,,,,,,,,2,1,0.533156033413,,,,,,PLC_L_D2S1,P11,60.0140018382,02,A,2015_Jan_30_1416,Y,
stim/posf.jpg,stim/negf.jpg,stim/2.jpg,stim/6.jpg,stim/latef.jpg,EF,2,4,,,,,,,,,0,28,28,55,,,,,,,,,,4,1,0.76641578334,,,,,,PLC_L_D2S1,P11,60.0140018382,02,A,2015_Jan_30_1416,Y,
stim/posf.jpg,stim/negf.jpg,stim/4.jpg,stim/3.jpg,stim/latef.jpg,CD,2,4,,,,,,,,,0,29,29,35,,,,,,,,,,4,1,0.749775063346,,,,,,PLC_L_D2S1,P11,60.0140018382,02,A,2015_Jan_30_1416,Y,
stim/posf.jpg,stim/negf.jpg,stim/4.jpg,stim/3.jpg,stim/latef.jpg,CD,2,4,,,,,,,,,0,30,30,31,,,,,,,,,,2,0,0.699771463372,,,,,,PLC_L_D2S1,P11,60.0140018382,02,A,2015_Jan_30_1416,Y,
stim/negf.jpg,stim/posf.jpg,stim/4.jpg,stim/3.jpg,stim/latef.jpg,CD,2,4,,,,,,,,,0,31,31,37,,,,,,,,,,4,1,0.599791908331,,,,,,PLC_L_D2S1,P11,60.0140018382,02,A,2015_Jan_30_1416,Y,
stim/posf.jpg,stim/negf.jpg,stim/4.jpg,stim/3.jpg,stim/latef.jpg,CD,2,4,,,,,,,,,0,32,32,30,,,,,,,,,,4,1,0.66648683243,,,,,,PLC_L_D2S1,P11,60.0140018382,02,A,2015_Jan_30_1416,Y,
stim/posf.jpg,stim/negf.jpg,stim/1.jpg,stim/5.jpg,stim/latef.jpg,AB,2,4,,,,,,,,,0,33,33,13,,,,,,,,,,4,1,0.516503515011,,,,,,PLC_L_D2S1,P11,60.0140018382,02,A,2015_Jan_30_1416,Y,
stim/posf.jpg,stim/negf.jpg,stim/3.jpg,stim/4.jpg,stim/latef.jpg,CD,1,2,,,,,,,,,0,34,34,25,,,,,,,,,,2,1,0.666420053984,,,,,,PLC_L_D2S1,P11,60.0140018382,02,A,2015_Jan_30_1416,Y,
stim/posf.jpg,stim/negf.jpg,stim/4.jpg,stim/3.jpg,stim/latef.jpg,CD,2,4,,,,,,,,,0,35,35,33,,,,,,,,,,4,1,0.516496315065,,,,,,PLC_L_D2S1,P11,60.0140018382,02,A,2015_Jan_30_1416,Y,
stim/posf.jpg,stim/negf.jpg,stim/5.jpg,stim/1.jpg,stim/latef.jpg,AB,1,2,,,,,,,,,0,36,36,5,,,,,,,,,,4,0,0.699790251201,,,,,,PLC_L_D2S1,P11,60.0140018382,02,A,2015_Jan_30_1416,Y,
stim/negf.jpg,stim/posf.jpg,stim/1.jpg,stim/5.jpg,stim/latef.jpg,AB,2,4,,,,,,,,,0,37,37,18,,,,,,,,,,4,1,0.73309954662,,,,,,PLC_L_D2S1,P11,60.0140018382,02,A,2015_Jan_30_1416,Y,
stim/posf.jpg,stim/negf.jpg,stim/1.jpg,stim/5.jpg,stim/latef.jpg,AB,2,4,,,,,,,,,0,38,38,15,,,,,,,,,,4,1,0.666432471936,,,,,,PLC_L_D2S1,P11,60.0140018382,02,A,2015_Jan_30_1416,Y,
stim/posf.jpg,stim/negf.jpg,stim/2.jpg,stim/6.jpg,stim/latef.jpg,EF,2,4,,,,,,,,,0,39,39,54,,,,,,,,,,4,1,0.749762221336,,,,,,PLC_L_D2S1,P11,60.0140018382,02,A,2015_Jan_30_1416,Y,
stim/negf.jpg,stim/posf.jpg,stim/6.jpg,stim/2.jpg,stim/latef.jpg,EF,1,2,,,,,,,,,0,40,40,46,,,,,,,,,,2,1,0.816385320411,,,,,,PLC_L_D2S1,P11,60.0140018382,02,A,2015_Jan_30_1416,Y,
stim/negf.jpg,stim/posf.jpg,stim/4.jpg,stim/3.jpg,stim/latef.jpg,CD,2,4,,,,,,,,,0,41,41,39,,,,,,,,,,4,1,0.999693764708,,,,,,PLC_L_D2S1,P11,60.0140018382,02,A,2015_Jan_30_1416,Y,
stim/posf.jpg,stim/negf.jpg,stim/3.jpg,stim/4.jpg,stim/latef.jpg,CD,1,2,,,,,,,,,0,42,42,26,,,,,,,,,,2,1,0.666440553079,,,,,,PLC_L_D2S1,P11,60.0140018382,02,A,2015_Jan_30_1416,Y,
stim/posf.jpg,stim/negf.jpg,stim/2.jpg,stim/6.jpg,stim/latef.jpg,EF,2,4,,,,,,,,,0,43,43,51,,,,,,,,,,4,1,0.933023538169,,,,,,PLC_L_D2S1,P11,60.0140018382,02,A,2015_Jan_30_1416,Y,
stim/posf.jpg,stim/negf.jpg,stim/1.jpg,stim/5.jpg,stim/latef.jpg,AB,2,4,,,,,,,,,0,44,44,11,,,,,,,,,,4,1,0.616450213156,,,,,,PLC_L_D2S1,P11,60.0140018382,02,A,2015_Jan_30_1416,Y,
stim/posf.jpg,stim/negf.jpg,stim/4.jpg,stim/3.jpg,stim/latef.jpg,CD,2,4,,,,,,,,,0,45,45,36,,,,,,,,,,4,1,0.533124869738,,,,,,PLC_L_D2S1,P11,60.0140018382,02,A,2015_Jan_30_1416,Y,
stim/posf.jpg,stim/negf.jpg,stim/6.jpg,stim/2.jpg,stim/latef.jpg,EF,1,2,,,,,,,,,0,46,46,44,,,,,,,,,,2,1,0.633097134608,,,,,,PLC_L_D2S1,P11,60.0140018382,02,A,2015_Jan_30_1416,Y,
stim/posf.jpg,stim/negf.jpg,stim/5.jpg,stim/1.jpg,stim/latef.jpg,AB,1,2,,,,,,,,,0,47,47,7,,,,,,,,,,4,0,0.733133792979,,,,,,PLC_L_D2S1,P11,60.0140018382,02,A,2015_Jan_30_1416,Y,
stim/posf.jpg,stim/negf.jpg,stim/3.jpg,stim/4.jpg,stim/latef.jpg,CD,1,2,,,,,,,,,0,48,48,23,,,,,,,,,,2,1,0.766425109586,,,,,,PLC_L_D2S1,P11,60.0140018382,02,A,2015_Jan_30_1416,Y,
stim/posf.jpg,stim/negf.jpg,stim/2.jpg,stim/6.jpg,stim/latef.jpg,EF,2,4,,,,,,,,,0,49,49,53,,,,,,,,,,4,1,0.683028136631,,,,,,PLC_L_D2S1,P11,60.0140018382,02,A,2015_Jan_30_1416,Y,
stim/negf.jpg,stim/posf.jpg,stim/2.jpg,stim/6.jpg,stim/latef.jpg,EF,2,4,,,,,,,,,0,50,50,58,,,,,,,,,,4,1,0.599803535312,,,,,,PLC_L_D2S1,P11,60.0140018382,02,A,2015_Jan_30_1416,Y,
stim/negf.jpg,stim/posf.jpg,stim/2.jpg,stim/6.jpg,stim/latef.jpg,EF,2,4,,,,,,,,,0,51,51,56,,,,,,,,,,4,1,0.583139672634,,,,,,PLC_L_D2S1,P11,60.0140018382,02,A,2015_Jan_30_1416,Y,
stim/negf.jpg,stim/posf.jpg,stim/6.jpg,stim/2.jpg,stim/latef.jpg,EF,1,2,,,,,,,,,0,52,52,47,,,,,,,,,,2,1,0.716393371478,,,,,,PLC_L_D2S1,P11,60.0140018382,02,A,2015_Jan_30_1416,Y,
stim/posf.jpg,stim/negf.jpg,stim/6.jpg,stim/2.jpg,stim/latef.jpg,EF,1,2,,,,,,,,,0,53,53,43,,,,,,,,,,2,1,0.749765099511,,,,,,PLC_L_D2S1,P11,60.0140018382,02,A,2015_Jan_30_1416,Y,
stim/posf.jpg,stim/negf.jpg,stim/5.jpg,stim/1.jpg,stim/latef.jpg,AB,1,2,,,,,,,,,0,54,54,3,,,,,,,,,,2,1,0.699765141615,,,,,,PLC_L_D2S1,P11,60.0140018382,02,A,2015_Jan_30_1416,Y,
stim/posf.jpg,stim/negf.jpg,stim/2.jpg,stim/6.jpg,stim/latef.jpg,EF,2,4,,,,,,,,,0,55,55,52,,,,,,,,,,4,1,0.78307733626,,,,,,PLC_L_D2S1,P11,60.0140018382,02,A,2015_Jan_30_1416,Y,
stim/negf.jpg,stim/posf.jpg,stim/2.jpg,stim/6.jpg,stim/latef.jpg,EF,2,4,,,,,,,,,0,56,56,59,,,,,,,,,,4,1,0.749731583973,,,,,,PLC_L_D2S1,P11,60.0140018382,02,A,2015_Jan_30_1416,Y,
stim/posf.jpg,stim/negf.jpg,stim/1.jpg,stim/5.jpg,stim/latef.jpg,AB,2,4,,,,,,,,,0,57,57,14,,,,,,,,,,4,1,0.933015968301,,,,,,PLC_L_D2S1,P11,60.0140018382,02,A,2015_Jan_30_1416,Y,
stim/posf.jpg,stim/negf.jpg,stim/1.jpg,stim/5.jpg,stim/latef.jpg,AB,2,4,,,,,,,,,0,58,58,16,,,,,,,,,,4,1,0.449853089826,,,,,,PLC_L_D2S1,P11,60.0140018382,02,A,2015_Jan_30_1416,Y,
stim/negf.jpg,stim/posf.jpg,stim/1.jpg,stim/5.jpg,stim/latef.jpg,AB,2,4,,,,,,,,,0,59,59,19,,,,,,,,,,4,1,0.449850722927,,,,,,PLC_L_D2S1,P11,60.0140018382,02,A,2015_Jan_30_1416,Y,
,,,,,,,,,,,,,,,,,,,,,,,,,,,,,,,,0.86875,1.0,1,0,0,PLC_L_D2S1,P11,60.0140018382,02,A,2015_Jan_30_1416,Y,
stim/posf.jpg,stim/negf.jpg,stim/4.jpg,stim/3.jpg,stim/latef.jpg,CD,2,4,,,,,,,,,,,,,0,0,0,34,,,,,,4,1,0.733072972384,,,,,,PLC_L_D2S1,P11,60.0140018382,02,A,2015_Jan_30_1416,Y,
stim/negf.jpg,stim/posf.jpg,stim/6.jpg,stim/2.jpg,stim/latef.jpg,EF,1,2,,,,,,,,,,,,,0,1,1,49,,,,,,2,1,0.683062602537,,,,,,PLC_L_D2S1,P11,60.0140018382,02,A,2015_Jan_30_1416,Y,
stim/negf.jpg,stim/posf.jpg,stim/2.jpg,stim/6.jpg,stim/latef.jpg,EF,2,4,,,,,,,,,,,,,0,2,2,56,,,,,,4,1,0.599753758243,,,,,,PLC_L_D2S1,P11,60.0140018382,02,A,2015_Jan_30_1416,Y,
stim/posf.jpg,stim/negf.jpg,stim/5.jpg,stim/1.jpg,stim/latef.jpg,AB,1,2,,,,,,,,,,,,,0,3,3,1,,,,,,2,1,0.599810903677,,,,,,PLC_L_D2S1,P11,60.0140018382,02,A,2015_Jan_30_1416,Y,
stim/posf.jpg,stim/negf.jpg,stim/6.jpg,stim/2.jpg,stim/latef.jpg,EF,1,2,,,,,,,,,,,,,0,4,4,42,,,,,,4,0,0.666444778611,,,,,,PLC_L_D2S1,P11,60.0140018382,02,A,2015_Jan_30_1416,Y,
stim/posf.jpg,stim/negf.jpg,stim/2.jpg,stim/6.jpg,stim/latef.jpg,EF,2,4,,,,,,,,,,,,,0,5,5,55,,,,,,2,0,1.01628184149,,,,,,PLC_L_D2S1,P11,60.0140018382,02,A,2015_Jan_30_1416,Y,
stim/posf.jpg,stim/negf.jpg,stim/5.jpg,stim/1.jpg,stim/latef.jpg,AB,1,2,,,,,,,,,,,,,0,6,6,6,,,,,,2,1,0.866415214923,,,,,,PLC_L_D2S1,P11,60.0140018382,02,A,2015_Jan_30_1416,Y,
stim/posf.jpg,stim/negf.jpg,stim/6.jpg,stim/2.jpg,stim/latef.jpg,EF,1,2,,,,,,,,,,,,,0,7,7,44,,,,,,4,0,0.816398252645,,,,,,PLC_L_D2S1,P11,60.0140018382,02,A,2015_Jan_30_1416,Y,
stim/posf.jpg,stim/negf.jpg,stim/1.jpg,stim/5.jpg,stim/latef.jpg,AB,2,4,,,,,,,,,,,,,0,8,8,17,,,,,,4,1,0.699786230179,,,,,,PLC_L_D2S1,P11,60.0140018382,02,A,2015_Jan_30_1416,Y,
stim/posf.jpg,stim/negf.jpg,stim/2.jpg,stim/6.jpg,stim/latef.jpg,EF,2,4,,,,,,,,,,,,,0,9,9,53,,,,,,4,1,0.633108746551,,,,,,PLC_L_D2S1,P11,60.0140018382,02,A,2015_Jan_30_1416,Y,
stim/posf.jpg,stim/negf.jpg,stim/4.jpg,stim/3.jpg,stim/latef.jpg,CD,2,4,,,,,,,,,,,,,0,10,10,36,,,,,,4,1,0.766402661634,,,,,,PLC_L_D2S1,P11,60.0140018382,02,A,2015_Jan_30_1416,Y,
stim/posf.jpg,stim/negf.jpg,stim/4.jpg,stim/3.jpg,stim/latef.jpg,CD,2,4,,,,,,,,,,,,,0,11,11,35,,,,,,4,1,0.733085775295,,,,,,PLC_L_D2S1,P11,60.0140018382,02,A,2015_Jan_30_1416,Y,
stim/posf.jpg,stim/negf.jpg,stim/2.jpg,stim/6.jpg,stim/latef.jpg,EF,2,4,,,,,,,,,,,,,0,12,12,54,,,,,,4,1,0.799709463839,,,,,,PLC_L_D2S1,P11,60.0140018382,02,A,2015_Jan_30_1416,Y,
stim/posf.jpg,stim/negf.jpg,stim/3.jpg,stim/4.jpg,stim/latef.jpg,CD,1,2,,,,,,,,,,,,,0,13,13,24,,,,,,2,1,0.64978351441,,,,,,PLC_L_D2S1,P11,60.0140018382,02,A,2015_Jan_30_1416,Y,
stim/posf.jpg,stim/negf.jpg,stim/6.jpg,stim/2.jpg,stim/latef.jpg,EF,1,2,,,,,,,,,,,,,0,14,14,43,,,,,,2,1,0.933006987917,,,,,,PLC_L_D2S1,P11,60.0140018382,02,A,2015_Jan_30_1416,Y,
stim/posf.jpg,stim/negf.jpg,stim/1.jpg,stim/5.jpg,stim/latef.jpg,AB,2,4,,,,,,,,,,,,,0,15,15,12,,,,,,4,1,0.549860873226,,,,,,PLC_L_D2S1,P11,60.0140018382,02,A,2015_Jan_30_1416,Y,
stim/negf.jpg,stim/posf.jpg,stim/1.jpg,stim/5.jpg,stim/latef.jpg,AB,2,4,,,,,,,,,,,,,0,16,16,19,,,,,,4,1,0.51645137405,,,,,,PLC_L_D2S1,P11,60.0140018382,02,A,2015_Jan_30_1416,Y,
stim/posf.jpg,stim/negf.jpg,stim/5.jpg,stim/1.jpg,stim/latef.jpg,AB,1,2,,,,,,,,,,,,,0,17,17,7,,,,,,2,1,0.582150825934,,,,,,PLC_L_D2S1,P11,60.0140018382,02,A,2015_Jan_30_1416,Y,
stim/posf.jpg,stim/negf.jpg,stim/4.jpg,stim/3.jpg,stim/latef.jpg,CD,2,4,,,,,,,,,,,,,0,18,18,33,,,,,,4,1,0.683117702874,,,,,,PLC_L_D2S1,P11,60.0140018382,02,A,2015_Jan_30_1416,Y,
stim/posf.jpg,stim/negf.jpg,stim/2.jpg,stim/6.jpg,stim/latef.jpg,EF,2,4,,,,,,,,,,,,,0,19,19,52,,,,,,2,0,0.799743505688,,,,,,PLC_L_D2S1,P11,60.0140018382,02,A,2015_Jan_30_1416,Y,
stim/posf.jpg,stim/negf.jpg,stim/2.jpg,stim/6.jpg,stim/latef.jpg,EF,2,4,,,,,,,,,,,,,0,20,20,50,,,,,,4,1,0.599784431696,,,,,,PLC_L_D2S1,P11,60.0140018382,02,A,2015_Jan_30_1416,Y,
stim/posf.jpg,stim/negf.jpg,stim/1.jpg,stim/5.jpg,stim/latef.jpg,AB,2,4,,,,,,,,,,,,,0,21,21,13,,,,,,4,1,0.549747331223,,,,,,PLC_L_D2S1,P11,60.0140018382,02,A,2015_Jan_30_1416,Y,
stim/negf.jpg,stim/posf.jpg,stim/4.jpg,stim/3.jpg,stim/latef.jpg,CD,2,4,,,,,,,,,,,,,0,22,22,39,,,,,,2,0,0.599793024113,,,,,,PLC_L_D2S1,P11,60.0140018382,02,A,2015_Jan_30_1416,Y,
stim/posf.jpg,stim/negf.jpg,stim/5.jpg,stim/1.jpg,stim/latef.jpg,AB,1,2,,,,,,,,,,,,,0,23,23,2,,,,,,2,1,0.766410475109,,,,,,PLC_L_D2S1,P11,60.0140018382,02,A,2015_Jan_30_1416,Y,
stim/posf.jpg,stim/negf.jpg,stim/6.jpg,stim/2.jpg,stim/latef.jpg,EF,1,2,,,,,,,,,,,,,0,24,24,45,,,,,,2,1,0.699763532605,,,,,,PLC_L_D2S1,P11,60.0140018382,02,A,2015_Jan_30_1416,Y,
stim/posf.jpg,stim/negf.jpg,stim/3.jpg,stim/4.jpg,stim/latef.jpg,CD,1,2,,,,,,,,,,,,,0,25,25,21,,,,,,2,1,0.766423515613,,,,,,PLC_L_D2S1,P11,60.0140018382,02,A,2015_Jan_30_1416,Y,
stim/posf.jpg,stim/negf.jpg,stim/3.jpg,stim/4.jpg,stim/latef.jpg,CD,1,2,,,,,,,,,,,,,0,26,26,23,,,,,,2,1,0.633125272742,,,,,,PLC_L_D2S1,P11,60.0140018382,02,A,2015_Jan_30_1416,Y,
stim/posf.jpg,stim/negf.jpg,stim/5.jpg,stim/1.jpg,stim/latef.jpg,AB,1,2,,,,,,,,,,,,,0,27,27,4,,,,,,2,1,0.816415055526,,,,,,PLC_L_D2S1,P11,60.0140018382,02,A,2015_Jan_30_1416,Y,
stim/posf.jpg,stim/negf.jpg,stim/5.jpg,stim/1.jpg,stim/latef.jpg,AB,1,2,,,,,,,,,,,,,0,28,28,0,,,,,,2,1,0.549815002895,,,,,,PLC_L_D2S1,P11,60.0140018382,02,A,2015_Jan_30_1416,Y,
stim/posf.jpg,stim/negf.jpg,stim/5.jpg,stim/1.jpg,stim/latef.jpg,AB,1,2,,,,,,,,,,,,,0,29,29,3,,,,,,2,1,0.616467683702,,,,,,PLC_L_D2S1,P11,60.0140018382,02,A,2015_Jan_30_1416,Y,
stim/negf.jpg,stim/posf.jpg,stim/6.jpg,stim/2.jpg,stim/latef.jpg,EF,1,2,,,,,,,,,,,,,0,30,30,46,,,,,,2,1,0.799687394831,,,,,,PLC_L_D2S1,P11,60.0140018382,02,A,2015_Jan_30_1416,Y,
stim/posf.jpg,stim/negf.jpg,stim/4.jpg,stim/3.jpg,stim/latef.jpg,CD,2,4,,,,,,,,,,,,,0,31,31,31,,,,,,4,1,0.833053574033,,,,,,PLC_L_D2S1,P11,60.0140018382,02,A,2015_Jan_30_1416,Y,
stim/negf.jpg,stim/posf.jpg,stim/4.jpg,stim/3.jpg,stim/latef.jpg,CD,2,4,,,,,,,,,,,,,0,32,32,38,,,,,,4,1,0.699762089007,,,,,,PLC_L_D2S1,P11,60.0140018382,02,A,2015_Jan_30_1416,Y,
stim/posf.jpg,stim/negf.jpg,stim/3.jpg,stim/4.jpg,stim/latef.jpg,CD,1,2,,,,,,,,,,,,,0,33,33,22,,,,,,2,1,0.649801493222,,,,,,PLC_L_D2S1,P11,60.0140018382,02,A,2015_Jan_30_1416,Y,
stim/posf.jpg,stim/negf.jpg,stim/3.jpg,stim/4.jpg,stim/latef.jpg,CD,1,2,,,,,,,,,,,,,0,34,34,25,,,,,,2,1,0.599814873572,,,,,,PLC_L_D2S1,P11,60.0140018382,02,A,2015_Jan_30_1416,Y,
stim/posf.jpg,stim/negf.jpg,stim/1.jpg,stim/5.jpg,stim/latef.jpg,AB,2,4,,,,,,,,,,,,,0,35,35,14,,,,,,4,1,0.633121555477,,,,,,PLC_L_D2S1,P11,60.0140018382,02,A,2015_Jan_30_1416,Y,
stim/negf.jpg,stim/posf.jpg,stim/3.jpg,stim/4.jpg,stim/latef.jpg,CD,1,2,,,,,,,,,,,,,0,36,36,28,,,,,,2,1,0.616465969429,,,,,,PLC_L_D2S1,P11,60.0140018382,02,A,2015_Jan_30_1416,Y,
stim/posf.jpg,stim/negf.jpg,stim/1.jpg,stim/5.jpg,stim/latef.jpg,AB,2,4,,,,,,,,,,,,,0,37,37,11,,,,,,4,1,0.633112075849,,,,,,PLC_L_D2S1,P11,60.0140018382,02,A,2015_Jan_30_1416,Y,
stim/posf.jpg,stim/negf.jpg,stim/6.jpg,stim/2.jpg,stim/latef.jpg,EF,1,2,,,,,,,,,,,,,0,38,38,40,,,,,,2,1,0.816389040684,,,,,,PLC_L_D2S1,P11,60.0140018382,02,A,2015_Jan_30_1416,Y,
stim/negf.jpg,stim/posf.jpg,stim/3.jpg,stim/4.jpg,stim/latef.jpg,CD,1,2,,,,,,,,,,,,,0,39,39,29,,,,,,2,1,0.56648309712,,,,,,PLC_L_D2S1,P11,60.0140018382,02,A,2015_Jan_30_1416,Y,
stim/posf.jpg,stim/negf.jpg,stim/1.jpg,stim/5.jpg,stim/latef.jpg,AB,2,4,,,,,,,,,,,,,0,40,40,16,,,,,,4,1,0.599855387553,,,,,,PLC_L_D2S1,P11,60.0140018382,02,A,2015_Jan_30_1416,Y,
stim/negf.jpg,stim/posf.jpg,stim/2.jpg,stim/6.jpg,stim/latef.jpg,EF,2,4,,,,,,,,,,,,,0,41,41,57,,,,,,2,0,0.699767661897,,,,,,PLC_L_D2S1,P11,60.0140018382,02,A,2015_Jan_30_1416,Y,
stim/negf.jpg,stim/posf.jpg,stim/6.jpg,stim/2.jpg,stim/latef.jpg,EF,1,2,,,,,,,,,,,,,0,42,42,47,,,,,,2,1,0.649755571763,,,,,,PLC_L_D2S1,P11,60.0140018382,02,A,2015_Jan_30_1416,Y,
stim/negf.jpg,stim/posf.jpg,stim/2.jpg,stim/6.jpg,stim/latef.jpg,EF,2,4,,,,,,,,,,,,,0,43,43,58,,,,,,2,0,0.633123784032,,,,,,PLC_L_D2S1,P11,60.0140018382,02,A,2015_Jan_30_1416,Y,
stim/posf.jpg,stim/negf.jpg,stim/3.jpg,stim/4.jpg,stim/latef.jpg,CD,1,2,,,,,,,,,,,,,0,44,44,20,,,,,,2,1,0.81641207209,,,,,,PLC_L_D2S1,P11,60.0140018382,02,A,2015_Jan_30_1416,Y,
stim/negf.jpg,stim/posf.jpg,stim/6.jpg,stim/2.jpg,stim/latef.jpg,EF,1,2,,,,,,,,,,,,,0,45,45,48,,,,,,4,0,0.56648867001,,,,,,PLC_L_D2S1,P11,60.0140018382,02,A,2015_Jan_30_1416,Y,
stim/posf.jpg,stim/negf.jpg,stim/1.jpg,stim/5.jpg,stim/latef.jpg,AB,2,4,,,,,,,,,,,,,0,46,46,10,,,,,,4,1,0.766473734784,,,,,,PLC_L_D2S1,P11,60.0140018382,02,A,2015_Jan_30_1416,Y,
stim/negf.jpg,stim/posf.jpg,stim/2.jpg,stim/6.jpg,stim/latef.jpg,EF,2,4,,,,,,,,,,,,,0,47,47,59,,,,,,2,0,0.499867829565,,,,,,PLC_L_D2S1,P11,60.0140018382,02,A,2015_Jan_30_1416,Y,
stim/posf.jpg,stim/negf.jpg,stim/3.jpg,stim/4.jpg,stim/latef.jpg,CD,1,2,,,,,,,,,,,,,0,48,48,26,,,,,,2,1,0.649793625612,,,,,,PLC_L_D2S1,P11,60.0140018382,02,A,2015_Jan_30_1416,Y,
stim/negf.jpg,stim/posf.jpg,stim/5.jpg,stim/1.jpg,stim/latef.jpg,AB,1,2,,,,,,,,,,,,,0,49,49,9,,,,,,2,1,0.516500149623,,,,,,PLC_L_D2S1,P11,60.0140018382,02,A,2015_Jan_30_1416,Y,
stim/posf.jpg,stim/negf.jpg,stim/1.jpg,stim/5.jpg,stim/latef.jpg,AB,2,4,,,,,,,,,,,,,0,50,50,15,,,,,,4,1,0.749748877076,,,,,,PLC_L_D2S1,P11,60.0140018382,02,A,2015_Jan_30_1416,Y,
stim/posf.jpg,stim/negf.jpg,stim/4.jpg,stim/3.jpg,stim/latef.jpg,CD,2,4,,,,,,,,,,,,,0,51,51,32,,,,,,4,1,0.782996019579,,,,,,PLC_L_D2S1,P11,60.0140018382,02,A,2015_Jan_30_1416,Y,
stim/posf.jpg,stim/negf.jpg,stim/2.jpg,stim/6.jpg,stim/latef.jpg,EF,2,4,,,,,,,,,,,,,0,52,52,51,,,,,,4,1,0.583120716386,,,,,,PLC_L_D2S1,P11,60.0140018382,02,A,2015_Jan_30_1416,Y,
stim/negf.jpg,stim/posf.jpg,stim/3.jpg,stim/4.jpg,stim/latef.jpg,CD,1,2,,,,,,,,,,,,,0,53,53,27,,,,,,2,1,0.699727764453,,,,,,PLC_L_D2S1,P11,60.0140018382,02,A,2015_Jan_30_1416,Y,
stim/posf.jpg,stim/negf.jpg,stim/5.jpg,stim/1.jpg,stim/latef.jpg,AB,1,2,,,,,,,,,,,,,0,54,54,5,,,,,,2,1,0.683112075849,,,,,,PLC_L_D2S1,P11,60.0140018382,02,A,2015_Jan_30_1416,Y,
stim/negf.jpg,stim/posf.jpg,stim/5.jpg,stim/1.jpg,stim/latef.jpg,AB,1,2,,,,,,,,,,,,,0,55,55,8,,,,,,2,1,0.616459127375,,,,,,PLC_L_D2S1,P11,60.0140018382,02,A,2015_Jan_30_1416,Y,
stim/posf.jpg,stim/negf.jpg,stim/6.jpg,stim/2.jpg,stim/latef.jpg,EF,1,2,,,,,,,,,,,,,0,56,56,41,,,,,,2,1,0.96635304697,,,,,,PLC_L_D2S1,P11,60.0140018382,02,A,2015_Jan_30_1416,Y,
stim/posf.jpg,stim/negf.jpg,stim/4.jpg,stim/3.jpg,stim/latef.jpg,CD,2,4,,,,,,,,,,,,,0,57,57,30,,,,,,4,1,0.849736459124,,,,,,PLC_L_D2S1,P11,60.0140018382,02,A,2015_Jan_30_1416,Y,
stim/negf.jpg,stim/posf.jpg,stim/4.jpg,stim/3.jpg,stim/latef.jpg,CD,2,4,,,,,,,,,,,,,0,58,58,37,,,,,,4,1,0.699632174194,,,,,,PLC_L_D2S1,P11,60.0140018382,02,A,2015_Jan_30_1416,Y,
stim/negf.jpg,stim/posf.jpg,stim/1.jpg,stim/5.jpg,stim/latef.jpg,AB,2,4,,,,,,,,,,,,,0,59,59,18,,,,,,4,1,0.733077158818,,,,,,PLC_L_D2S1,P11,60.0140018382,02,A,2015_Jan_30_1416,Y,
