fb_corr,fb_incorr,symbol2,symbol1,fb_late,pair,position,correct,block_01.thisRepN,block_01.thisTrialN,block_01.thisN,block_01.thisIndex,block_02.thisRepN,block_02.thisTrialN,block_02.thisN,block_02.thisIndex,block_03.thisRepN,block_03.thisTrialN,block_03.thisN,block_03.thisIndex,block_04.thisRepN,block_04.thisTrialN,block_04.thisN,block_04.thisIndex,mouse.x,mouse.y,mouse.leftButton,mouse.midButton,mouse.rightButton,buttonBox_2.keys,buttonBox_2.corr,buttonBox_2.rt,mouse_2.x,mouse_2.y,mouse_2.leftButton,mouse_2.midButton,mouse_2.rightButton,expName,Participant,frameRate,SessionNumber,Version,date,Group,
,,,,,,,,,,,,,,,,,,,,,,,,0.9984375,1.0,1,0,0,,,,,,,,,PLC_L_D2S1,P14,60.0251470939,02,A,2015_Feb_05_1638,Y,
stim/posf.jpg,stim/negf.jpg,stim/3.jpg,stim/5.jpg,stim/latef.jpg,CD,2,4,0,0,0,34,,,,,,,,,,,,,,,,,,2,0,0.949725427157,,,,,,PLC_L_D2S1,P14,60.0251470939,02,A,2015_Feb_05_1638,Y,
stim/negf.jpg,stim/posf.jpg,stim/1.jpg,stim/6.jpg,stim/latef.jpg,EF,2,4,0,1,1,57,,,,,,,,,,,,,,,,,,4,1,1.0995758123,,,,,,PLC_L_D2S1,P14,60.0251470939,02,A,2015_Feb_05_1638,Y,
stim/negf.jpg,stim/posf.jpg,stim/2.jpg,stim/4.jpg,stim/latef.jpg,AB,2,4,0,2,2,19,,,,,,,,,,,,,,,,,,2,0,0.949675842754,,,,,,PLC_L_D2S1,P14,60.0251470939,02,A,2015_Feb_05_1638,Y,
stim/negf.jpg,stim/posf.jpg,stim/2.jpg,stim/4.jpg,stim/latef.jpg,AB,2,4,0,3,3,18,,,,,,,,,,,,,,,,,,2,0,0.649793636913,,,,,,PLC_L_D2S1,P14,60.0251470939,02,A,2015_Feb_05_1638,Y,
stim/posf.jpg,stim/negf.jpg,stim/1.jpg,stim/6.jpg,stim/latef.jpg,EF,2,4,0,4,4,54,,,,,,,,,,,,,,,,,,2,0,1.04964089277,,,,,,PLC_L_D2S1,P14,60.0251470939,02,A,2015_Feb_05_1638,Y,
stim/posf.jpg,stim/negf.jpg,stim/1.jpg,stim/6.jpg,stim/latef.jpg,EF,2,4,0,5,5,55,,,,,,,,,,,,,,,,,,2,0,1.26618354831,,,,,,PLC_L_D2S1,P14,60.0251470939,02,A,2015_Feb_05_1638,Y,
stim/posf.jpg,stim/negf.jpg,stim/2.jpg,stim/4.jpg,stim/latef.jpg,AB,2,4,0,6,6,11,,,,,,,,,,,,,,,,,,2,0,0.99970215975,,,,,,PLC_L_D2S1,P14,60.0251470939,02,A,2015_Feb_05_1638,Y,
stim/posf.jpg,stim/negf.jpg,stim/3.jpg,stim/5.jpg,stim/latef.jpg,CD,2,4,0,7,7,35,,,,,,,,,,,,,,,,,,4,1,1.03298698436,,,,,,PLC_L_D2S1,P14,60.0251470939,02,A,2015_Feb_05_1638,Y,
stim/negf.jpg,stim/posf.jpg,stim/1.jpg,stim/6.jpg,stim/latef.jpg,EF,2,4,0,8,8,56,,,,,,,,,,,,,,,,,,4,1,1.14962647188,,,,,,PLC_L_D2S1,P14,60.0251470939,02,A,2015_Feb_05_1638,Y,
stim/posf.jpg,stim/negf.jpg,stim/5.jpg,stim/3.jpg,stim/latef.jpg,CD,1,2,0,9,9,24,,,,,,,,,,,,,,,,,,2,1,1.18293720597,,,,,,PLC_L_D2S1,P14,60.0251470939,02,A,2015_Feb_05_1638,Y,
stim/negf.jpg,stim/posf.jpg,stim/6.jpg,stim/1.jpg,stim/latef.jpg,EF,1,2,0,10,10,47,,,,,,,,,,,,,,,,,,4,0,1.26624141833,,,,,,PLC_L_D2S1,P14,60.0251470939,02,A,2015_Feb_05_1638,Y,
stim/posf.jpg,stim/negf.jpg,stim/2.jpg,stim/4.jpg,stim/latef.jpg,AB,2,4,0,11,11,16,,,,,,,,,,,,,,,,,,2,0,1.01633235114,,,,,,PLC_L_D2S1,P14,60.0251470939,02,A,2015_Feb_05_1638,Y,
stim/posf.jpg,stim/negf.jpg,stim/1.jpg,stim/6.jpg,stim/latef.jpg,EF,2,4,0,12,12,51,,,,,,,,,,,,,,,,,,2,0,1.31623722138,,,,,,PLC_L_D2S1,P14,60.0251470939,02,A,2015_Feb_05_1638,Y,
stim/posf.jpg,stim/negf.jpg,stim/6.jpg,stim/1.jpg,stim/latef.jpg,EF,1,2,0,13,13,42,,,,,,,,,,,,,,,,,,2,1,1.34948059984,,,,,,PLC_L_D2S1,P14,60.0251470939,02,A,2015_Feb_05_1638,Y,
stim/posf.jpg,stim/negf.jpg,stim/2.jpg,stim/4.jpg,stim/latef.jpg,AB,2,4,0,14,14,15,,,,,,,,,,,,,,,,,,4,1,1.18300439018,,,,,,PLC_L_D2S1,P14,60.0251470939,02,A,2015_Feb_05_1638,Y,
stim/posf.jpg,stim/negf.jpg,stim/3.jpg,stim/5.jpg,stim/latef.jpg,CD,2,4,0,15,15,30,,,,,,,,,,,,,,,,,,4,1,1.11630707924,,,,,,PLC_L_D2S1,P14,60.0251470939,02,A,2015_Feb_05_1638,Y,
stim/posf.jpg,stim/negf.jpg,stim/5.jpg,stim/3.jpg,stim/latef.jpg,CD,1,2,0,16,16,22,,,,,,,,,,,,,,,,,,2,1,1.38287853596,,,,,,PLC_L_D2S1,P14,60.0251470939,02,A,2015_Feb_05_1638,Y,
stim/negf.jpg,stim/posf.jpg,stim/1.jpg,stim/6.jpg,stim/latef.jpg,EF,2,4,0,17,17,58,,,,,,,,,,,,,,,,,,2,0,1.23293917136,,,,,,PLC_L_D2S1,P14,60.0251470939,02,A,2015_Feb_05_1638,Y,
stim/posf.jpg,stim/negf.jpg,stim/6.jpg,stim/1.jpg,stim/latef.jpg,EF,1,2,0,18,18,45,,,,,,,,,,,,,,,,,,4,0,1.04965101296,,,,,,PLC_L_D2S1,P14,60.0251470939,02,A,2015_Feb_05_1638,Y,
stim/posf.jpg,stim/negf.jpg,stim/4.jpg,stim/2.jpg,stim/latef.jpg,AB,1,2,0,19,19,1,,,,,,,,,,,,,,,,,,2,1,0.949687599012,,,,,,PLC_L_D2S1,P14,60.0251470939,02,A,2015_Feb_05_1638,Y,
stim/posf.jpg,stim/negf.jpg,stim/4.jpg,stim/2.jpg,stim/latef.jpg,AB,1,2,0,20,20,7,,,,,,,,,,,,,,,,,,2,1,0.899643104777,,,,,,PLC_L_D2S1,P14,60.0251470939,02,A,2015_Feb_05_1638,Y,
stim/posf.jpg,stim/negf.jpg,stim/2.jpg,stim/4.jpg,stim/latef.jpg,AB,2,4,0,21,21,17,,,,,,,,,,,,,,,,,,4,1,1.09962004639,,,,,,PLC_L_D2S1,P14,60.0251470939,02,A,2015_Feb_05_1638,Y,
stim/posf.jpg,stim/negf.jpg,stim/5.jpg,stim/3.jpg,stim/latef.jpg,CD,1,2,0,22,22,21,,,,,,,,,,,,,,,,,,2,1,1.08295290504,,,,,,PLC_L_D2S1,P14,60.0251470939,02,A,2015_Feb_05_1638,Y,
stim/posf.jpg,stim/negf.jpg,stim/4.jpg,stim/2.jpg,stim/latef.jpg,AB,1,2,0,23,23,6,,,,,,,,,,,,,,,,,,2,1,0.916333391729,,,,,,PLC_L_D2S1,P14,60.0251470939,02,A,2015_Feb_05_1638,Y,
stim/posf.jpg,stim/negf.jpg,stim/4.jpg,stim/2.jpg,stim/latef.jpg,AB,1,2,0,24,24,5,,,,,,,,,,,,,,,,,,2,1,0.999678638212,,,,,,PLC_L_D2S1,P14,60.0251470939,02,A,2015_Feb_05_1638,Y,
stim/negf.jpg,stim/posf.jpg,stim/6.jpg,stim/1.jpg,stim/latef.jpg,EF,1,2,0,25,25,46,,,,,,,,,,,,,,,,,,4,0,1.09962779066,,,,,,PLC_L_D2S1,P14,60.0251470939,02,A,2015_Feb_05_1638,Y,
stim/posf.jpg,stim/negf.jpg,stim/5.jpg,stim/3.jpg,stim/latef.jpg,CD,1,2,0,26,26,20,,,,,,,,,,,,,,,,,,2,1,0.933023230565,,,,,,PLC_L_D2S1,P14,60.0251470939,02,A,2015_Feb_05_1638,Y,
stim/negf.jpg,stim/posf.jpg,stim/1.jpg,stim/6.jpg,stim/latef.jpg,EF,2,4,0,27,27,59,,,,,,,,,,,,,,,,,,2,0,1.08294532919,,,,,,PLC_L_D2S1,P14,60.0251470939,02,A,2015_Feb_05_1638,Y,
stim/posf.jpg,stim/negf.jpg,stim/5.jpg,stim/3.jpg,stim/latef.jpg,CD,1,2,0,28,28,26,,,,,,,,,,,,,,,,,,2,1,0.766425539561,,,,,,PLC_L_D2S1,P14,60.0251470939,02,A,2015_Feb_05_1638,Y,
stim/posf.jpg,stim/negf.jpg,stim/6.jpg,stim/1.jpg,stim/latef.jpg,EF,1,2,0,29,29,44,,,,,,,,,,,,,,,,,,4,0,0.916361541787,,,,,,PLC_L_D2S1,P14,60.0251470939,02,A,2015_Feb_05_1638,Y,
stim/posf.jpg,stim/negf.jpg,stim/3.jpg,stim/5.jpg,stim/latef.jpg,CD,2,4,0,30,30,33,,,,,,,,,,,,,,,,,,4,1,0.783067667658,,,,,,PLC_L_D2S1,P14,60.0251470939,02,A,2015_Feb_05_1638,Y,
stim/posf.jpg,stim/negf.jpg,stim/3.jpg,stim/5.jpg,stim/latef.jpg,CD,2,4,0,31,31,31,,,,,,,,,,,,,,,,,,4,1,0.866385612192,,,,,,PLC_L_D2S1,P14,60.0251470939,02,A,2015_Feb_05_1638,Y,
stim/posf.jpg,stim/negf.jpg,stim/6.jpg,stim/1.jpg,stim/latef.jpg,EF,1,2,0,32,32,43,,,,,,,,,,,,,,,,,,4,0,0.833063332369,,,,,,PLC_L_D2S1,P14,60.0251470939,02,A,2015_Feb_05_1638,Y,
stim/posf.jpg,stim/negf.jpg,stim/3.jpg,stim/5.jpg,stim/latef.jpg,CD,2,4,0,33,33,36,,,,,,,,,,,,,,,,,,4,1,0.733094231268,,,,,,PLC_L_D2S1,P14,60.0251470939,02,A,2015_Feb_05_1638,Y,
stim/posf.jpg,stim/negf.jpg,stim/4.jpg,stim/2.jpg,stim/latef.jpg,AB,1,2,0,34,34,2,,,,,,,,,,,,,,,,,,2,1,0.932980828035,,,,,,PLC_L_D2S1,P14,60.0251470939,02,A,2015_Feb_05_1638,Y,
stim/negf.jpg,stim/posf.jpg,stim/3.jpg,stim/5.jpg,stim/latef.jpg,CD,2,4,0,35,35,38,,,,,,,,,,,,,,,,,,4,1,0.849742217945,,,,,,PLC_L_D2S1,P14,60.0251470939,02,A,2015_Feb_05_1638,Y,
stim/posf.jpg,stim/negf.jpg,stim/2.jpg,stim/4.jpg,stim/latef.jpg,AB,2,4,0,36,36,14,,,,,,,,,,,,,,,,,,4,1,1.08299187904,,,,,,PLC_L_D2S1,P14,60.0251470939,02,A,2015_Feb_05_1638,Y,
stim/posf.jpg,stim/negf.jpg,stim/2.jpg,stim/4.jpg,stim/latef.jpg,AB,2,4,0,37,37,10,,,,,,,,,,,,,,,,,,4,1,1.16626291884,,,,,,PLC_L_D2S1,P14,60.0251470939,02,A,2015_Feb_05_1638,Y,
stim/negf.jpg,stim/posf.jpg,stim/5.jpg,stim/3.jpg,stim/latef.jpg,CD,1,2,0,38,38,27,,,,,,,,,,,,,,,,,,2,1,0.816399493238,,,,,,PLC_L_D2S1,P14,60.0251470939,02,A,2015_Feb_05_1638,Y,
stim/posf.jpg,stim/negf.jpg,stim/5.jpg,stim/3.jpg,stim/latef.jpg,CD,1,2,0,39,39,25,,,,,,,,,,,,,,,,,,4,0,1.01632657977,,,,,,PLC_L_D2S1,P14,60.0251470939,02,A,2015_Feb_05_1638,Y,
stim/negf.jpg,stim/posf.jpg,stim/5.jpg,stim/3.jpg,stim/latef.jpg,CD,1,2,0,40,40,29,,,,,,,,,,,,,,,,,,2,1,0.999702713128,,,,,,PLC_L_D2S1,P14,60.0251470939,02,A,2015_Feb_05_1638,Y,
stim/negf.jpg,stim/posf.jpg,stim/6.jpg,stim/1.jpg,stim/latef.jpg,EF,1,2,0,41,41,48,,,,,,,,,,,,,,,,,,4,0,0.932989985827,,,,,,PLC_L_D2S1,P14,60.0251470939,02,A,2015_Feb_05_1638,Y,
stim/posf.jpg,stim/negf.jpg,stim/2.jpg,stim/4.jpg,stim/latef.jpg,AB,2,4,0,42,42,13,,,,,,,,,,,,,,,,,,4,1,1.04959449029,,,,,,PLC_L_D2S1,P14,60.0251470939,02,A,2015_Feb_05_1638,Y,
stim/posf.jpg,stim/negf.jpg,stim/6.jpg,stim/1.jpg,stim/latef.jpg,EF,1,2,0,43,43,40,,,,,,,,,,,,,,,,,,4,0,1.39950880253,,,,,,PLC_L_D2S1,P14,60.0251470939,02,A,2015_Feb_05_1638,Y,
stim/posf.jpg,stim/negf.jpg,stim/6.jpg,stim/1.jpg,stim/latef.jpg,EF,1,2,0,44,44,41,,,,,,,,,,,,,,,,,,4,0,1.04967269091,,,,,,PLC_L_D2S1,P14,60.0251470939,02,A,2015_Feb_05_1638,Y,
stim/negf.jpg,stim/posf.jpg,stim/5.jpg,stim/3.jpg,stim/latef.jpg,CD,1,2,0,45,45,28,,,,,,,,,,,,,,,,,,2,1,0.866373341654,,,,,,PLC_L_D2S1,P14,60.0251470939,02,A,2015_Feb_05_1638,Y,
stim/posf.jpg,stim/negf.jpg,stim/5.jpg,stim/3.jpg,stim/latef.jpg,CD,1,2,0,46,46,23,,,,,,,,,,,,,,,,,,2,1,1.0663167047,,,,,,PLC_L_D2S1,P14,60.0251470939,02,A,2015_Feb_05_1638,Y,
stim/posf.jpg,stim/negf.jpg,stim/4.jpg,stim/2.jpg,stim/latef.jpg,AB,1,2,0,47,47,4,,,,,,,,,,,,,,,,,,2,1,0.816383956572,,,,,,PLC_L_D2S1,P14,60.0251470939,02,A,2015_Feb_05_1638,Y,
stim/negf.jpg,stim/posf.jpg,stim/3.jpg,stim/5.jpg,stim/latef.jpg,CD,2,4,0,48,48,37,,,,,,,,,,,,,,,,,,4,1,0.833056499363,,,,,,PLC_L_D2S1,P14,60.0251470939,02,A,2015_Feb_05_1638,Y,
stim/posf.jpg,stim/negf.jpg,stim/4.jpg,stim/2.jpg,stim/latef.jpg,AB,1,2,0,49,49,0,,,,,,,,,,,,,,,,,,2,1,0.883006841276,,,,,,PLC_L_D2S1,P14,60.0251470939,02,A,2015_Feb_05_1638,Y,
stim/negf.jpg,stim/posf.jpg,stim/4.jpg,stim/2.jpg,stim/latef.jpg,AB,1,2,0,50,50,9,,,,,,,,,,,,,,,,,,2,1,1.23292345124,,,,,,PLC_L_D2S1,P14,60.0251470939,02,A,2015_Feb_05_1638,Y,
stim/posf.jpg,stim/negf.jpg,stim/3.jpg,stim/5.jpg,stim/latef.jpg,CD,2,4,0,51,51,32,,,,,,,,,,,,,,,,,,2,0,0.866377870927,,,,,,PLC_L_D2S1,P14,60.0251470939,02,A,2015_Feb_05_1638,Y,
stim/posf.jpg,stim/negf.jpg,stim/2.jpg,stim/4.jpg,stim/latef.jpg,AB,2,4,0,52,52,12,,,,,,,,,,,,,,,,,,4,1,1.11629988835,,,,,,PLC_L_D2S1,P14,60.0251470939,02,A,2015_Feb_05_1638,Y,
stim/posf.jpg,stim/negf.jpg,stim/4.jpg,stim/2.jpg,stim/latef.jpg,AB,1,2,0,53,53,3,,,,,,,,,,,,,,,,,,2,1,0.849723526427,,,,,,PLC_L_D2S1,P14,60.0251470939,02,A,2015_Feb_05_1638,Y,
stim/negf.jpg,stim/posf.jpg,stim/4.jpg,stim/2.jpg,stim/latef.jpg,AB,1,2,0,54,54,8,,,,,,,,,,,,,,,,,,2,1,0.916357135822,,,,,,PLC_L_D2S1,P14,60.0251470939,02,A,2015_Feb_05_1638,Y,
stim/posf.jpg,stim/negf.jpg,stim/1.jpg,stim/6.jpg,stim/latef.jpg,EF,2,4,0,55,55,53,,,,,,,,,,,,,,,,,,2,0,1.16618994523,,,,,,PLC_L_D2S1,P14,60.0251470939,02,A,2015_Feb_05_1638,Y,
stim/negf.jpg,stim/posf.jpg,stim/6.jpg,stim/1.jpg,stim/latef.jpg,EF,1,2,0,56,56,49,,,,,,,,,,,,,,,,,,4,0,0.966391912873,,,,,,PLC_L_D2S1,P14,60.0251470939,02,A,2015_Feb_05_1638,Y,
stim/posf.jpg,stim/negf.jpg,stim/1.jpg,stim/6.jpg,stim/latef.jpg,EF,2,4,0,57,57,52,,,,,,,,,,,,,,,,,,2,0,0.783062807563,,,,,,PLC_L_D2S1,P14,60.0251470939,02,A,2015_Feb_05_1638,Y,
stim/posf.jpg,stim/negf.jpg,stim/1.jpg,stim/6.jpg,stim/latef.jpg,EF,2,4,0,58,58,50,,,,,,,,,,,,,,,,,,2,0,0.833046367146,,,,,,PLC_L_D2S1,P14,60.0251470939,02,A,2015_Feb_05_1638,Y,
stim/negf.jpg,stim/posf.jpg,stim/3.jpg,stim/5.jpg,stim/latef.jpg,CD,2,4,0,59,59,39,,,,,,,,,,,,,,,,,,4,1,1.06629079522,,,,,,PLC_L_D2S1,P14,60.0251470939,02,A,2015_Feb_05_1638,Y,
,,,,,,,,,,,,,,,,,,,,,,,,,,,,,,,,0.9984375,1.0,1,0,0,PLC_L_D2S1,P14,60.0251470939,02,A,2015_Feb_05_1638,Y,
stim/posf.jpg,stim/negf.jpg,stim/1.jpg,stim/6.jpg,stim/latef.jpg,EF,2,4,,,,,0,0,0,51,,,,,,,,,,,,,,4,1,1.36618458589,,,,,,PLC_L_D2S1,P14,60.0251470939,02,A,2015_Feb_05_1638,Y,
stim/posf.jpg,stim/negf.jpg,stim/2.jpg,stim/4.jpg,stim/latef.jpg,AB,2,4,,,,,0,1,1,16,,,,,,,,,,,,,,4,1,1.1329522449,,,,,,PLC_L_D2S1,P14,60.0251470939,02,A,2015_Feb_05_1638,Y,
stim/posf.jpg,stim/negf.jpg,stim/6.jpg,stim/1.jpg,stim/latef.jpg,EF,1,2,,,,,0,2,2,43,,,,,,,,,,,,,,2,1,1.38291360323,,,,,,PLC_L_D2S1,P14,60.0251470939,02,A,2015_Feb_05_1638,Y,
stim/posf.jpg,stim/negf.jpg,stim/6.jpg,stim/1.jpg,stim/latef.jpg,EF,1,2,,,,,0,3,3,44,,,,,,,,,,,,,,2,1,1.06630669579,,,,,,PLC_L_D2S1,P14,60.0251470939,02,A,2015_Feb_05_1638,Y,
stim/posf.jpg,stim/negf.jpg,stim/3.jpg,stim/5.jpg,stim/latef.jpg,CD,2,4,,,,,0,4,4,30,,,,,,,,,,,,,,4,1,1.06628597723,,,,,,PLC_L_D2S1,P14,60.0251470939,02,A,2015_Feb_05_1638,Y,
stim/posf.jpg,stim/negf.jpg,stim/2.jpg,stim/4.jpg,stim/latef.jpg,AB,2,4,,,,,0,5,5,14,,,,,,,,,,,,,,4,1,0.983005472871,,,,,,PLC_L_D2S1,P14,60.0251470939,02,A,2015_Feb_05_1638,Y,
stim/posf.jpg,stim/negf.jpg,stim/4.jpg,stim/2.jpg,stim/latef.jpg,AB,1,2,,,,,0,6,6,7,,,,,,,,,,,,,,2,1,1.09959272941,,,,,,PLC_L_D2S1,P14,60.0251470939,02,A,2015_Feb_05_1638,Y,
stim/posf.jpg,stim/negf.jpg,stim/1.jpg,stim/6.jpg,stim/latef.jpg,EF,2,4,,,,,0,7,7,50,,,,,,,,,,,,,,4,1,0.849693686161,,,,,,PLC_L_D2S1,P14,60.0251470939,02,A,2015_Feb_05_1638,Y,
stim/posf.jpg,stim/negf.jpg,stim/3.jpg,stim/5.jpg,stim/latef.jpg,CD,2,4,,,,,0,8,8,35,,,,,,,,,,,,,,4,1,0.882980679165,,,,,,PLC_L_D2S1,P14,60.0251470939,02,A,2015_Feb_05_1638,Y,
stim/posf.jpg,stim/negf.jpg,stim/4.jpg,stim/2.jpg,stim/latef.jpg,AB,1,2,,,,,0,9,9,2,,,,,,,,,,,,,,2,1,0.816369156739,,,,,,PLC_L_D2S1,P14,60.0251470939,02,A,2015_Feb_05_1638,Y,
stim/posf.jpg,stim/negf.jpg,stim/4.jpg,stim/2.jpg,stim/latef.jpg,AB,1,2,,,,,0,10,10,1,,,,,,,,,,,,,,2,1,0.849691424533,,,,,,PLC_L_D2S1,P14,60.0251470939,02,A,2015_Feb_05_1638,Y,
stim/posf.jpg,stim/negf.jpg,stim/4.jpg,stim/2.jpg,stim/latef.jpg,AB,1,2,,,,,0,11,11,0,,,,,,,,,,,,,,2,1,0.949699926692,,,,,,PLC_L_D2S1,P14,60.0251470939,02,A,2015_Feb_05_1638,Y,
stim/posf.jpg,stim/negf.jpg,stim/1.jpg,stim/6.jpg,stim/latef.jpg,EF,2,4,,,,,0,12,12,55,,,,,,,,,,,,,,4,1,1.03298095435,,,,,,PLC_L_D2S1,P14,60.0251470939,02,A,2015_Feb_05_1638,Y,
stim/posf.jpg,stim/negf.jpg,stim/3.jpg,stim/5.jpg,stim/latef.jpg,CD,2,4,,,,,0,13,13,34,,,,,,,,,,,,,,4,1,0.899641378481,,,,,,PLC_L_D2S1,P14,60.0251470939,02,A,2015_Feb_05_1638,Y,
stim/posf.jpg,stim/negf.jpg,stim/5.jpg,stim/3.jpg,stim/latef.jpg,CD,1,2,,,,,0,14,14,22,,,,,,,,,,,,,,2,1,0.73307745251,,,,,,PLC_L_D2S1,P14,60.0251470939,02,A,2015_Feb_05_1638,Y,
stim/negf.jpg,stim/posf.jpg,stim/1.jpg,stim/6.jpg,stim/latef.jpg,EF,2,4,,,,,0,15,15,59,,,,,,,,,,,,,,4,1,0.799697371834,,,,,,PLC_L_D2S1,P14,60.0251470939,02,A,2015_Feb_05_1638,Y,
stim/posf.jpg,stim/negf.jpg,stim/3.jpg,stim/5.jpg,stim/latef.jpg,CD,2,4,,,,,0,16,16,36,,,,,,,,,,,,,,4,1,0.699767488336,,,,,,PLC_L_D2S1,P14,60.0251470939,02,A,2015_Feb_05_1638,Y,
stim/posf.jpg,stim/negf.jpg,stim/1.jpg,stim/6.jpg,stim/latef.jpg,EF,2,4,,,,,0,17,17,52,,,,,,,,,,,,,,4,1,0.933067828558,,,,,,PLC_L_D2S1,P14,60.0251470939,02,A,2015_Feb_05_1638,Y,
stim/negf.jpg,stim/posf.jpg,stim/6.jpg,stim/1.jpg,stim/latef.jpg,EF,1,2,,,,,0,18,18,46,,,,,,,,,,,,,,2,1,0.733111052131,,,,,,PLC_L_D2S1,P14,60.0251470939,02,A,2015_Feb_05_1638,Y,
stim/negf.jpg,stim/posf.jpg,stim/5.jpg,stim/3.jpg,stim/latef.jpg,CD,1,2,,,,,0,19,19,28,,,,,,,,,,,,,,2,1,0.683117357323,,,,,,PLC_L_D2S1,P14,60.0251470939,02,A,2015_Feb_05_1638,Y,
stim/posf.jpg,stim/negf.jpg,stim/3.jpg,stim/5.jpg,stim/latef.jpg,CD,2,4,,,,,0,20,20,33,,,,,,,,,,,,,,4,1,0.699720661797,,,,,,PLC_L_D2S1,P14,60.0251470939,02,A,2015_Feb_05_1638,Y,
stim/negf.jpg,stim/posf.jpg,stim/2.jpg,stim/4.jpg,stim/latef.jpg,AB,2,4,,,,,0,21,21,19,,,,,,,,,,,,,,4,1,1.03296906576,,,,,,PLC_L_D2S1,P14,60.0251470939,02,A,2015_Feb_05_1638,Y,
stim/posf.jpg,stim/negf.jpg,stim/5.jpg,stim/3.jpg,stim/latef.jpg,CD,1,2,,,,,0,22,22,21,,,,,,,,,,,,,,2,1,0.749738139795,,,,,,PLC_L_D2S1,P14,60.0251470939,02,A,2015_Feb_05_1638,Y,
stim/posf.jpg,stim/negf.jpg,stim/3.jpg,stim/5.jpg,stim/latef.jpg,CD,2,4,,,,,0,23,23,32,,,,,,,,,,,,,,4,1,0.666441569456,,,,,,PLC_L_D2S1,P14,60.0251470939,02,A,2015_Feb_05_1638,Y,
stim/negf.jpg,stim/posf.jpg,stim/5.jpg,stim/3.jpg,stim/latef.jpg,CD,1,2,,,,,0,24,24,27,,,,,,,,,,,,,,2,1,0.599845183701,,,,,,PLC_L_D2S1,P14,60.0251470939,02,A,2015_Feb_05_1638,Y,
stim/posf.jpg,stim/negf.jpg,stim/5.jpg,stim/3.jpg,stim/latef.jpg,CD,1,2,,,,,0,25,25,24,,,,,,,,,,,,,,2,1,0.533153165941,,,,,,PLC_L_D2S1,P14,60.0251470939,02,A,2015_Feb_05_1638,Y,
stim/negf.jpg,stim/posf.jpg,stim/1.jpg,stim/6.jpg,stim/latef.jpg,EF,2,4,,,,,0,26,26,58,,,,,,,,,,,,,,4,1,0.849689605005,,,,,,PLC_L_D2S1,P14,60.0251470939,02,A,2015_Feb_05_1638,Y,
stim/posf.jpg,stim/negf.jpg,stim/4.jpg,stim/2.jpg,stim/latef.jpg,AB,1,2,,,,,0,27,27,3,,,,,,,,,,,,,,2,1,0.816397661681,,,,,,PLC_L_D2S1,P14,60.0251470939,02,A,2015_Feb_05_1638,Y,
stim/posf.jpg,stim/negf.jpg,stim/5.jpg,stim/3.jpg,stim/latef.jpg,CD,1,2,,,,,0,28,28,25,,,,,,,,,,,,,,2,1,0.849667755627,,,,,,PLC_L_D2S1,P14,60.0251470939,02,A,2015_Feb_05_1638,Y,
stim/negf.jpg,stim/posf.jpg,stim/3.jpg,stim/5.jpg,stim/latef.jpg,CD,2,4,,,,,0,29,29,37,,,,,,,,,,,,,,4,1,0.683144523934,,,,,,PLC_L_D2S1,P14,60.0251470939,02,A,2015_Feb_05_1638,Y,
stim/posf.jpg,stim/negf.jpg,stim/2.jpg,stim/4.jpg,stim/latef.jpg,AB,2,4,,,,,0,30,30,17,,,,,,,,,,,,,,4,1,0.899695007951,,,,,,PLC_L_D2S1,P14,60.0251470939,02,A,2015_Feb_05_1638,Y,
stim/negf.jpg,stim/posf.jpg,stim/3.jpg,stim/5.jpg,stim/latef.jpg,CD,2,4,,,,,0,31,31,38,,,,,,,,,,,,,,2,0,1.14964823404,,,,,,PLC_L_D2S1,P14,60.0251470939,02,A,2015_Feb_05_1638,Y,
stim/posf.jpg,stim/negf.jpg,stim/6.jpg,stim/1.jpg,stim/latef.jpg,EF,1,2,,,,,0,32,32,41,,,,,,,,,,,,,,2,1,0.94967908783,,,,,,PLC_L_D2S1,P14,60.0251470939,02,A,2015_Feb_05_1638,Y,
stim/posf.jpg,stim/negf.jpg,stim/2.jpg,stim/4.jpg,stim/latef.jpg,AB,2,4,,,,,0,33,33,13,,,,,,,,,,,,,,4,1,0.966349332903,,,,,,PLC_L_D2S1,P14,60.0251470939,02,A,2015_Feb_05_1638,Y,
stim/posf.jpg,stim/negf.jpg,stim/1.jpg,stim/6.jpg,stim/latef.jpg,EF,2,4,,,,,0,34,34,54,,,,,,,,,,,,,,4,1,1.19955075995,,,,,,PLC_L_D2S1,P14,60.0251470939,02,A,2015_Feb_05_1638,Y,
stim/posf.jpg,stim/negf.jpg,stim/6.jpg,stim/1.jpg,stim/latef.jpg,EF,1,2,,,,,0,35,35,40,,,,,,,,,,,,,,2,1,0.849693785409,,,,,,PLC_L_D2S1,P14,60.0251470939,02,A,2015_Feb_05_1638,Y,
stim/negf.jpg,stim/posf.jpg,stim/6.jpg,stim/1.jpg,stim/latef.jpg,EF,1,2,,,,,0,36,36,49,,,,,,,,,,,,,,2,1,0.866376523573,,,,,,PLC_L_D2S1,P14,60.0251470939,02,A,2015_Feb_05_1638,Y,
stim/posf.jpg,stim/negf.jpg,stim/6.jpg,stim/1.jpg,stim/latef.jpg,EF,1,2,,,,,0,37,37,42,,,,,,,,,,,,,,2,1,0.849720419694,,,,,,PLC_L_D2S1,P14,60.0251470939,02,A,2015_Feb_05_1638,Y,
stim/negf.jpg,stim/posf.jpg,stim/2.jpg,stim/4.jpg,stim/latef.jpg,AB,2,4,,,,,0,38,38,18,,,,,,,,,,,,,,4,1,0.799711591222,,,,,,PLC_L_D2S1,P14,60.0251470939,02,A,2015_Feb_05_1638,Y,
stim/posf.jpg,stim/negf.jpg,stim/3.jpg,stim/5.jpg,stim/latef.jpg,CD,2,4,,,,,0,39,39,31,,,,,,,,,,,,,,2,0,1.13298816028,,,,,,PLC_L_D2S1,P14,60.0251470939,02,A,2015_Feb_05_1638,Y,
stim/negf.jpg,stim/posf.jpg,stim/3.jpg,stim/5.jpg,stim/latef.jpg,CD,2,4,,,,,0,40,40,39,,,,,,,,,,,,,,4,1,1.23298416033,,,,,,PLC_L_D2S1,P14,60.0251470939,02,A,2015_Feb_05_1638,Y,
stim/posf.jpg,stim/negf.jpg,stim/5.jpg,stim/3.jpg,stim/latef.jpg,CD,1,2,,,,,0,41,41,20,,,,,,,,,,,,,,2,1,1.21622516137,,,,,,PLC_L_D2S1,P14,60.0251470939,02,A,2015_Feb_05_1638,Y,
stim/posf.jpg,stim/negf.jpg,stim/4.jpg,stim/2.jpg,stim/latef.jpg,AB,1,2,,,,,0,42,42,4,,,,,,,,,,,,,,2,1,0.966329727108,,,,,,PLC_L_D2S1,P14,60.0251470939,02,A,2015_Feb_05_1638,Y,
stim/negf.jpg,stim/posf.jpg,stim/6.jpg,stim/1.jpg,stim/latef.jpg,EF,1,2,,,,,0,43,43,47,,,,,,,,,,,,,,2,1,0.949683508832,,,,,,PLC_L_D2S1,P14,60.0251470939,02,A,2015_Feb_05_1638,Y,
stim/posf.jpg,stim/negf.jpg,stim/2.jpg,stim/4.jpg,stim/latef.jpg,AB,2,4,,,,,0,44,44,15,,,,,,,,,,,,,,4,1,0.86639115198,,,,,,PLC_L_D2S1,P14,60.0251470939,02,A,2015_Feb_05_1638,Y,
stim/posf.jpg,stim/negf.jpg,stim/5.jpg,stim/3.jpg,stim/latef.jpg,CD,1,2,,,,,0,45,45,23,,,,,,,,,,,,,,2,1,0.982991942195,,,,,,PLC_L_D2S1,P14,60.0251470939,02,A,2015_Feb_05_1638,Y,
stim/negf.jpg,stim/posf.jpg,stim/1.jpg,stim/6.jpg,stim/latef.jpg,EF,2,4,,,,,0,46,46,57,,,,,,,,,,,,,,4,1,1.0829753499,,,,,,PLC_L_D2S1,P14,60.0251470939,02,A,2015_Feb_05_1638,Y,
stim/negf.jpg,stim/posf.jpg,stim/4.jpg,stim/2.jpg,stim/latef.jpg,AB,1,2,,,,,0,47,47,8,,,,,,,,,,,,,,2,1,1.14959605719,,,,,,PLC_L_D2S1,P14,60.0251470939,02,A,2015_Feb_05_1638,Y,
stim/negf.jpg,stim/posf.jpg,stim/4.jpg,stim/2.jpg,stim/latef.jpg,AB,1,2,,,,,0,48,48,9,,,,,,,,,,,,,,2,1,0.899650927246,,,,,,PLC_L_D2S1,P14,60.0251470939,02,A,2015_Feb_05_1638,Y,
stim/posf.jpg,stim/negf.jpg,stim/4.jpg,stim/2.jpg,stim/latef.jpg,AB,1,2,,,,,0,49,49,5,,,,,,,,,,,,,,2,1,0.716371959715,,,,,,PLC_L_D2S1,P14,60.0251470939,02,A,2015_Feb_05_1638,Y,
stim/posf.jpg,stim/negf.jpg,stim/6.jpg,stim/1.jpg,stim/latef.jpg,EF,1,2,,,,,0,50,50,45,,,,,,,,,,,,,,2,1,0.933028911704,,,,,,PLC_L_D2S1,P14,60.0251470939,02,A,2015_Feb_05_1638,Y,
stim/posf.jpg,stim/negf.jpg,stim/5.jpg,stim/3.jpg,stim/latef.jpg,CD,1,2,,,,,0,51,51,26,,,,,,,,,,,,,,2,1,0.933007934497,,,,,,PLC_L_D2S1,P14,60.0251470939,02,A,2015_Feb_05_1638,Y,
stim/posf.jpg,stim/negf.jpg,stim/1.jpg,stim/6.jpg,stim/latef.jpg,EF,2,4,,,,,0,52,52,53,,,,,,,,,,,,,,4,1,1.08295256219,,,,,,PLC_L_D2S1,P14,60.0251470939,02,A,2015_Feb_05_1638,Y,
stim/negf.jpg,stim/posf.jpg,stim/6.jpg,stim/1.jpg,stim/latef.jpg,EF,1,2,,,,,0,53,53,48,,,,,,,,,,,,,,2,1,0.733083275,,,,,,PLC_L_D2S1,P14,60.0251470939,02,A,2015_Feb_05_1638,Y,
stim/negf.jpg,stim/posf.jpg,stim/1.jpg,stim/6.jpg,stim/latef.jpg,EF,2,4,,,,,0,54,54,56,,,,,,,,,,,,,,4,1,1.08298424905,,,,,,PLC_L_D2S1,P14,60.0251470939,02,A,2015_Feb_05_1638,Y,
stim/posf.jpg,stim/negf.jpg,stim/2.jpg,stim/4.jpg,stim/latef.jpg,AB,2,4,,,,,0,55,55,12,,,,,,,,,,,,,,4,1,1.1829164032,,,,,,PLC_L_D2S1,P14,60.0251470939,02,A,2015_Feb_05_1638,Y,
stim/negf.jpg,stim/posf.jpg,stim/5.jpg,stim/3.jpg,stim/latef.jpg,CD,1,2,,,,,0,56,56,29,,,,,,,,,,,,,,2,1,0.782986679097,,,,,,PLC_L_D2S1,P14,60.0251470939,02,A,2015_Feb_05_1638,Y,
stim/posf.jpg,stim/negf.jpg,stim/4.jpg,stim/2.jpg,stim/latef.jpg,AB,1,2,,,,,0,57,57,6,,,,,,,,,,,,,,2,1,0.749789751243,,,,,,PLC_L_D2S1,P14,60.0251470939,02,A,2015_Feb_05_1638,Y,
stim/posf.jpg,stim/negf.jpg,stim/2.jpg,stim/4.jpg,stim/latef.jpg,AB,2,4,,,,,0,58,58,11,,,,,,,,,,,,,,4,1,0.866387888858,,,,,,PLC_L_D2S1,P14,60.0251470939,02,A,2015_Feb_05_1638,Y,
stim/posf.jpg,stim/negf.jpg,stim/2.jpg,stim/4.jpg,stim/latef.jpg,AB,2,4,,,,,0,59,59,10,,,,,,,,,,,,,,4,1,0.799739837521,,,,,,PLC_L_D2S1,P14,60.0251470939,02,A,2015_Feb_05_1638,Y,
,,,,,,,,,,,,,,,,,,,,,,,,,,,,,,,,0.9984375,1.0,1,0,0,PLC_L_D2S1,P14,60.0251470939,02,A,2015_Feb_05_1638,Y,
stim/posf.jpg,stim/negf.jpg,stim/4.jpg,stim/2.jpg,stim/latef.jpg,AB,1,2,,,,,,,,,0,0,0,2,,,,,,,,,,2,1,1.03298649714,,,,,,PLC_L_D2S1,P14,60.0251470939,02,A,2015_Feb_05_1638,Y,
stim/posf.jpg,stim/negf.jpg,stim/6.jpg,stim/1.jpg,stim/latef.jpg,EF,1,2,,,,,,,,,0,1,1,45,,,,,,,,,,2,1,0.849717165595,,,,,,PLC_L_D2S1,P14,60.0251470939,02,A,2015_Feb_05_1638,Y,
stim/posf.jpg,stim/negf.jpg,stim/1.jpg,stim/6.jpg,stim/latef.jpg,EF,2,4,,,,,,,,,0,2,2,52,,,,,,,,,,4,1,1.33288706368,,,,,,PLC_L_D2S1,P14,60.0251470939,02,A,2015_Feb_05_1638,Y,
stim/posf.jpg,stim/negf.jpg,stim/2.jpg,stim/4.jpg,stim/latef.jpg,AB,2,4,,,,,,,,,0,3,3,17,,,,,,,,,,4,1,0.899775554411,,,,,,PLC_L_D2S1,P14,60.0251470939,02,A,2015_Feb_05_1638,Y,
stim/posf.jpg,stim/negf.jpg,stim/1.jpg,stim/6.jpg,stim/latef.jpg,EF,2,4,,,,,,,,,0,4,4,55,,,,,,,,,,4,1,0.849651467089,,,,,,PLC_L_D2S1,P14,60.0251470939,02,A,2015_Feb_05_1638,Y,
stim/posf.jpg,stim/negf.jpg,stim/4.jpg,stim/2.jpg,stim/latef.jpg,AB,1,2,,,,,,,,,0,5,5,4,,,,,,,,,,2,1,0.616427874874,,,,,,PLC_L_D2S1,P14,60.0251470939,02,A,2015_Feb_05_1638,Y,
stim/negf.jpg,stim/posf.jpg,stim/6.jpg,stim/1.jpg,stim/latef.jpg,EF,1,2,,,,,,,,,0,6,6,49,,,,,,,,,,2,1,1.09962082834,,,,,,PLC_L_D2S1,P14,60.0251470939,02,A,2015_Feb_05_1638,Y,
stim/posf.jpg,stim/negf.jpg,stim/2.jpg,stim/4.jpg,stim/latef.jpg,AB,2,4,,,,,,,,,0,7,7,13,,,,,,,,,,4,1,0.816414566753,,,,,,PLC_L_D2S1,P14,60.0251470939,02,A,2015_Feb_05_1638,Y,
stim/negf.jpg,stim/posf.jpg,stim/1.jpg,stim/6.jpg,stim/latef.jpg,EF,2,4,,,,,,,,,0,8,8,59,,,,,,,,,,4,1,0.899677402134,,,,,,PLC_L_D2S1,P14,60.0251470939,02,A,2015_Feb_05_1638,Y,
stim/posf.jpg,stim/negf.jpg,stim/3.jpg,stim/5.jpg,stim/latef.jpg,CD,2,4,,,,,,,,,0,9,9,36,,,,,,,,,,4,1,1.28290564242,,,,,,PLC_L_D2S1,P14,60.0251470939,02,A,2015_Feb_05_1638,Y,
stim/posf.jpg,stim/negf.jpg,stim/4.jpg,stim/2.jpg,stim/latef.jpg,AB,1,2,,,,,,,,,0,10,10,5,,,,,,,,,,2,1,0.883048891929,,,,,,PLC_L_D2S1,P14,60.0251470939,02,A,2015_Feb_05_1638,Y,
stim/posf.jpg,stim/negf.jpg,stim/2.jpg,stim/4.jpg,stim/latef.jpg,AB,2,4,,,,,,,,,0,11,11,12,,,,,,,,,,4,1,0.899708451409,,,,,,PLC_L_D2S1,P14,60.0251470939,02,A,2015_Feb_05_1638,Y,
stim/posf.jpg,stim/negf.jpg,stim/3.jpg,stim/5.jpg,stim/latef.jpg,CD,2,4,,,,,,,,,0,12,12,34,,,,,,,,,,4,1,0.84967948181,,,,,,PLC_L_D2S1,P14,60.0251470939,02,A,2015_Feb_05_1638,Y,
stim/negf.jpg,stim/posf.jpg,stim/6.jpg,stim/1.jpg,stim/latef.jpg,EF,1,2,,,,,,,,,0,13,13,46,,,,,,,,,,2,1,0.81639162265,,,,,,PLC_L_D2S1,P14,60.0251470939,02,A,2015_Feb_05_1638,Y,
stim/posf.jpg,stim/negf.jpg,stim/6.jpg,stim/1.jpg,stim/latef.jpg,EF,1,2,,,,,,,,,0,14,14,43,,,,,,,,,,2,1,0.999657300105,,,,,,PLC_L_D2S1,P14,60.0251470939,02,A,2015_Feb_05_1638,Y,
stim/negf.jpg,stim/posf.jpg,stim/1.jpg,stim/6.jpg,stim/latef.jpg,EF,2,4,,,,,,,,,0,15,15,57,,,,,,,,,,4,1,1.28292169938,,,,,,PLC_L_D2S1,P14,60.0251470939,02,A,2015_Feb_05_1638,Y,
stim/negf.jpg,stim/posf.jpg,stim/5.jpg,stim/3.jpg,stim/latef.jpg,CD,1,2,,,,,,,,,0,16,16,28,,,,,,,,,,2,1,1.01631132581,,,,,,PLC_L_D2S1,P14,60.0251470939,02,A,2015_Feb_05_1638,Y,
stim/posf.jpg,stim/negf.jpg,stim/3.jpg,stim/5.jpg,stim/latef.jpg,CD,2,4,,,,,,,,,0,17,17,33,,,,,,,,,,4,1,1.01636229366,,,,,,PLC_L_D2S1,P14,60.0251470939,02,A,2015_Feb_05_1638,Y,
stim/posf.jpg,stim/negf.jpg,stim/5.jpg,stim/3.jpg,stim/latef.jpg,CD,1,2,,,,,,,,,0,18,18,24,,,,,,,,,,2,1,0.699750123119,,,,,,PLC_L_D2S1,P14,60.0251470939,02,A,2015_Feb_05_1638,Y,
stim/negf.jpg,stim/posf.jpg,stim/4.jpg,stim/2.jpg,stim/latef.jpg,AB,1,2,,,,,,,,,0,19,19,8,,,,,,,,,,2,1,0.966344117924,,,,,,PLC_L_D2S1,P14,60.0251470939,02,A,2015_Feb_05_1638,Y,
stim/negf.jpg,stim/posf.jpg,stim/5.jpg,stim/3.jpg,stim/latef.jpg,CD,1,2,,,,,,,,,0,20,20,27,,,,,,,,,,2,1,0.78307805551,,,,,,PLC_L_D2S1,P14,60.0251470939,02,A,2015_Feb_05_1638,Y,
stim/posf.jpg,stim/negf.jpg,stim/4.jpg,stim/2.jpg,stim/latef.jpg,AB,1,2,,,,,,,,,0,21,21,1,,,,,,,,,,2,1,0.983001039838,,,,,,PLC_L_D2S1,P14,60.0251470939,02,A,2015_Feb_05_1638,Y,
stim/posf.jpg,stim/negf.jpg,stim/4.jpg,stim/2.jpg,stim/latef.jpg,AB,1,2,,,,,,,,,0,22,22,7,,,,,,,,,,2,1,0.566502904103,,,,,,PLC_L_D2S1,P14,60.0251470939,02,A,2015_Feb_05_1638,Y,
stim/negf.jpg,stim/posf.jpg,stim/2.jpg,stim/4.jpg,stim/latef.jpg,AB,2,4,,,,,,,,,0,23,23,19,,,,,,,,,,2,0,0.966370652963,,,,,,PLC_L_D2S1,P14,60.0251470939,02,A,2015_Feb_05_1638,Y,
stim/posf.jpg,stim/negf.jpg,stim/2.jpg,stim/4.jpg,stim/latef.jpg,AB,2,4,,,,,,,,,0,24,24,11,,,,,,,,,,4,1,0.883028209456,,,,,,PLC_L_D2S1,P14,60.0251470939,02,A,2015_Feb_05_1638,Y,
stim/posf.jpg,stim/negf.jpg,stim/2.jpg,stim/4.jpg,stim/latef.jpg,AB,2,4,,,,,,,,,0,25,25,10,,,,,,,,,,4,1,0.849712729556,,,,,,PLC_L_D2S1,P14,60.0251470939,02,A,2015_Feb_05_1638,Y,
stim/negf.jpg,stim/posf.jpg,stim/2.jpg,stim/4.jpg,stim/latef.jpg,AB,2,4,,,,,,,,,0,26,26,18,,,,,,,,,,4,1,0.783046603235,,,,,,PLC_L_D2S1,P14,60.0251470939,02,A,2015_Feb_05_1638,Y,
stim/posf.jpg,stim/negf.jpg,stim/5.jpg,stim/3.jpg,stim/latef.jpg,CD,1,2,,,,,,,,,0,27,27,21,,,,,,,,,,4,0,1.01631823701,,,,,,PLC_L_D2S1,P14,60.0251470939,02,A,2015_Feb_05_1638,Y,
stim/posf.jpg,stim/negf.jpg,stim/3.jpg,stim/5.jpg,stim/latef.jpg,CD,2,4,,,,,,,,,0,28,28,35,,,,,,,,,,4,1,0.833061506825,,,,,,PLC_L_D2S1,P14,60.0251470939,02,A,2015_Feb_05_1638,Y,
stim/posf.jpg,stim/negf.jpg,stim/5.jpg,stim/3.jpg,stim/latef.jpg,CD,1,2,,,,,,,,,0,29,29,25,,,,,,,,,,2,1,0.783061114348,,,,,,PLC_L_D2S1,P14,60.0251470939,02,A,2015_Feb_05_1638,Y,
stim/negf.jpg,stim/posf.jpg,stim/4.jpg,stim/2.jpg,stim/latef.jpg,AB,1,2,,,,,,,,,0,30,30,9,,,,,,,,,,2,1,0.982999448878,,,,,,PLC_L_D2S1,P14,60.0251470939,02,A,2015_Feb_05_1638,Y,
stim/posf.jpg,stim/negf.jpg,stim/2.jpg,stim/4.jpg,stim/latef.jpg,AB,2,4,,,,,,,,,0,31,31,14,,,,,,,,,,4,1,0.983016916351,,,,,,PLC_L_D2S1,P14,60.0251470939,02,A,2015_Feb_05_1638,Y,
stim/posf.jpg,stim/negf.jpg,stim/4.jpg,stim/2.jpg,stim/latef.jpg,AB,1,2,,,,,,,,,0,32,32,6,,,,,,,,,,2,1,0.749748762231,,,,,,PLC_L_D2S1,P14,60.0251470939,02,A,2015_Feb_05_1638,Y,
stim/posf.jpg,stim/negf.jpg,stim/2.jpg,stim/4.jpg,stim/latef.jpg,AB,2,4,,,,,,,,,0,33,33,16,,,,,,,,,,4,1,1.01632734368,,,,,,PLC_L_D2S1,P14,60.0251470939,02,A,2015_Feb_05_1638,Y,
stim/posf.jpg,stim/negf.jpg,stim/1.jpg,stim/6.jpg,stim/latef.jpg,EF,2,4,,,,,,,,,0,34,34,50,,,,,,,,,,4,1,1.13294248862,,,,,,PLC_L_D2S1,P14,60.0251470939,02,A,2015_Feb_05_1638,Y,
stim/negf.jpg,stim/posf.jpg,stim/3.jpg,stim/5.jpg,stim/latef.jpg,CD,2,4,,,,,,,,,0,35,35,37,,,,,,,,,,4,1,0.949711517539,,,,,,PLC_L_D2S1,P14,60.0251470939,02,A,2015_Feb_05_1638,Y,
stim/negf.jpg,stim/posf.jpg,stim/1.jpg,stim/6.jpg,stim/latef.jpg,EF,2,4,,,,,,,,,0,36,36,58,,,,,,,,,,4,1,1.04968215546,,,,,,PLC_L_D2S1,P14,60.0251470939,02,A,2015_Feb_05_1638,Y,
stim/posf.jpg,stim/negf.jpg,stim/3.jpg,stim/5.jpg,stim/latef.jpg,CD,2,4,,,,,,,,,0,37,37,31,,,,,,,,,,4,1,0.933036818382,,,,,,PLC_L_D2S1,P14,60.0251470939,02,A,2015_Feb_05_1638,Y,
stim/posf.jpg,stim/negf.jpg,stim/6.jpg,stim/1.jpg,stim/latef.jpg,EF,1,2,,,,,,,,,0,38,38,40,,,,,,,,,,2,1,0.783033349248,,,,,,PLC_L_D2S1,P14,60.0251470939,02,A,2015_Feb_05_1638,Y,
stim/negf.jpg,stim/posf.jpg,stim/3.jpg,stim/5.jpg,stim/latef.jpg,CD,2,4,,,,,,,,,0,39,39,39,,,,,,,,,,4,1,0.916364092134,,,,,,PLC_L_D2S1,P14,60.0251470939,02,A,2015_Feb_05_1638,Y,
stim/posf.jpg,stim/negf.jpg,stim/5.jpg,stim/3.jpg,stim/latef.jpg,CD,1,2,,,,,,,,,0,40,40,23,,,,,,,,,,2,1,0.699724276794,,,,,,PLC_L_D2S1,P14,60.0251470939,02,A,2015_Feb_05_1638,Y,
stim/posf.jpg,stim/negf.jpg,stim/6.jpg,stim/1.jpg,stim/latef.jpg,EF,1,2,,,,,,,,,0,41,41,41,,,,,,,,,,2,1,0.699754962162,,,,,,PLC_L_D2S1,P14,60.0251470939,02,A,2015_Feb_05_1638,Y,
stim/posf.jpg,stim/negf.jpg,stim/3.jpg,stim/5.jpg,stim/latef.jpg,CD,2,4,,,,,,,,,0,42,42,30,,,,,,,,,,4,1,0.716418383251,,,,,,PLC_L_D2S1,P14,60.0251470939,02,A,2015_Feb_05_1638,Y,
stim/negf.jpg,stim/posf.jpg,stim/3.jpg,stim/5.jpg,stim/latef.jpg,CD,2,4,,,,,,,,,0,43,43,38,,,,,,,,,,4,1,0.683098461295,,,,,,PLC_L_D2S1,P14,60.0251470939,02,A,2015_Feb_05_1638,Y,
stim/negf.jpg,stim/posf.jpg,stim/6.jpg,stim/1.jpg,stim/latef.jpg,EF,1,2,,,,,,,,,0,44,44,48,,,,,,,,,,2,1,0.666433599621,,,,,,PLC_L_D2S1,P14,60.0251470939,02,A,2015_Feb_05_1638,Y,
stim/posf.jpg,stim/negf.jpg,stim/1.jpg,stim/6.jpg,stim/latef.jpg,EF,2,4,,,,,,,,,0,45,45,54,,,,,,,,,,4,1,0.816402494709,,,,,,PLC_L_D2S1,P14,60.0251470939,02,A,2015_Feb_05_1638,Y,
stim/posf.jpg,stim/negf.jpg,stim/5.jpg,stim/3.jpg,stim/latef.jpg,CD,1,2,,,,,,,,,0,46,46,26,,,,,,,,,,2,1,0.616477754011,,,,,,PLC_L_D2S1,P14,60.0251470939,02,A,2015_Feb_05_1638,Y,
stim/posf.jpg,stim/negf.jpg,stim/6.jpg,stim/1.jpg,stim/latef.jpg,EF,1,2,,,,,,,,,0,47,47,42,,,,,,,,,,2,1,0.633088390732,,,,,,PLC_L_D2S1,P14,60.0251470939,02,A,2015_Feb_05_1638,Y,
stim/posf.jpg,stim/negf.jpg,stim/5.jpg,stim/3.jpg,stim/latef.jpg,CD,1,2,,,,,,,,,0,48,48,22,,,,,,,,,,2,1,0.549824102735,,,,,,PLC_L_D2S1,P14,60.0251470939,02,A,2015_Feb_05_1638,Y,
stim/posf.jpg,stim/negf.jpg,stim/5.jpg,stim/3.jpg,stim/latef.jpg,CD,1,2,,,,,,,,,0,49,49,20,,,,,,,,,,2,1,0.566537917241,,,,,,PLC_L_D2S1,P14,60.0251470939,02,A,2015_Feb_05_1638,Y,
stim/posf.jpg,stim/negf.jpg,stim/1.jpg,stim/6.jpg,stim/latef.jpg,EF,2,4,,,,,,,,,0,50,50,53,,,,,,,,,,4,1,0.999677940475,,,,,,PLC_L_D2S1,P14,60.0251470939,02,A,2015_Feb_05_1638,Y,
stim/negf.jpg,stim/posf.jpg,stim/5.jpg,stim/3.jpg,stim/latef.jpg,CD,1,2,,,,,,,,,0,51,51,29,,,,,,,,,,2,1,0.783087622321,,,,,,PLC_L_D2S1,P14,60.0251470939,02,A,2015_Feb_05_1638,Y,
stim/posf.jpg,stim/negf.jpg,stim/6.jpg,stim/1.jpg,stim/latef.jpg,EF,1,2,,,,,,,,,0,52,52,44,,,,,,,,,,2,1,0.699788585844,,,,,,PLC_L_D2S1,P14,60.0251470939,02,A,2015_Feb_05_1638,Y,
stim/negf.jpg,stim/posf.jpg,stim/6.jpg,stim/1.jpg,stim/latef.jpg,EF,1,2,,,,,,,,,0,53,53,47,,,,,,,,,,2,1,0.716427294429,,,,,,PLC_L_D2S1,P14,60.0251470939,02,A,2015_Feb_05_1638,Y,
stim/posf.jpg,stim/negf.jpg,stim/3.jpg,stim/5.jpg,stim/latef.jpg,CD,2,4,,,,,,,,,0,54,54,32,,,,,,,,,,4,1,0.849647939309,,,,,,PLC_L_D2S1,P14,60.0251470939,02,A,2015_Feb_05_1638,Y,
stim/posf.jpg,stim/negf.jpg,stim/2.jpg,stim/4.jpg,stim/latef.jpg,AB,2,4,,,,,,,,,0,55,55,15,,,,,,,,,,4,1,1.03297641906,,,,,,PLC_L_D2S1,P14,60.0251470939,02,A,2015_Feb_05_1638,Y,
stim/posf.jpg,stim/negf.jpg,stim/4.jpg,stim/2.jpg,stim/latef.jpg,AB,1,2,,,,,,,,,0,56,56,3,,,,,,,,,,2,1,0.899704126646,,,,,,PLC_L_D2S1,P14,60.0251470939,02,A,2015_Feb_05_1638,Y,
stim/negf.jpg,stim/posf.jpg,stim/1.jpg,stim/6.jpg,stim/latef.jpg,EF,2,4,,,,,,,,,0,57,57,56,,,,,,,,,,4,1,0.849720570069,,,,,,PLC_L_D2S1,P14,60.0251470939,02,A,2015_Feb_05_1638,Y,
stim/posf.jpg,stim/negf.jpg,stim/4.jpg,stim/2.jpg,stim/latef.jpg,AB,1,2,,,,,,,,,0,58,58,0,,,,,,,,,,2,1,0.966340178118,,,,,,PLC_L_D2S1,P14,60.0251470939,02,A,2015_Feb_05_1638,Y,
stim/posf.jpg,stim/negf.jpg,stim/1.jpg,stim/6.jpg,stim/latef.jpg,EF,2,4,,,,,,,,,0,59,59,51,,,,,,,,,,4,1,0.833059681282,,,,,,PLC_L_D2S1,P14,60.0251470939,02,A,2015_Feb_05_1638,Y,
,,,,,,,,,,,,,,,,,,,,,,,,,,,,,,,,0.9984375,1.0,1,0,0,PLC_L_D2S1,P14,60.0251470939,02,A,2015_Feb_05_1638,Y,
stim/posf.jpg,stim/negf.jpg,stim/4.jpg,stim/2.jpg,stim/latef.jpg,AB,1,2,,,,,,,,,,,,,0,0,0,5,,,,,,2,1,1.16630052443,,,,,,PLC_L_D2S1,P14,60.0251470939,02,A,2015_Feb_05_1638,Y,
stim/posf.jpg,stim/negf.jpg,stim/3.jpg,stim/5.jpg,stim/latef.jpg,CD,2,4,,,,,,,,,,,,,0,1,1,36,,,,,,4,1,0.799731600019,,,,,,PLC_L_D2S1,P14,60.0251470939,02,A,2015_Feb_05_1638,Y,
stim/posf.jpg,stim/negf.jpg,stim/6.jpg,stim/1.jpg,stim/latef.jpg,EF,1,2,,,,,,,,,,,,,0,2,2,41,,,,,,2,1,0.816469835303,,,,,,PLC_L_D2S1,P14,60.0251470939,02,A,2015_Feb_05_1638,Y,
stim/posf.jpg,stim/negf.jpg,stim/2.jpg,stim/4.jpg,stim/latef.jpg,AB,2,4,,,,,,,,,,,,,0,3,3,17,,,,,,4,1,0.833064541377,,,,,,PLC_L_D2S1,P14,60.0251470939,02,A,2015_Feb_05_1638,Y,
stim/posf.jpg,stim/negf.jpg,stim/2.jpg,stim/4.jpg,stim/latef.jpg,AB,2,4,,,,,,,,,,,,,0,4,4,16,,,,,,4,1,0.982983485149,,,,,,PLC_L_D2S1,P14,60.0251470939,02,A,2015_Feb_05_1638,Y,
stim/posf.jpg,stim/negf.jpg,stim/4.jpg,stim/2.jpg,stim/latef.jpg,AB,1,2,,,,,,,,,,,,,0,5,5,6,,,,,,2,1,0.716379920527,,,,,,PLC_L_D2S1,P14,60.0251470939,02,A,2015_Feb_05_1638,Y,
stim/posf.jpg,stim/negf.jpg,stim/3.jpg,stim/5.jpg,stim/latef.jpg,CD,2,4,,,,,,,,,,,,,0,6,6,31,,,,,,4,1,0.733072366853,,,,,,PLC_L_D2S1,P14,60.0251470939,02,A,2015_Feb_05_1638,Y,
stim/posf.jpg,stim/negf.jpg,stim/3.jpg,stim/5.jpg,stim/latef.jpg,CD,2,4,,,,,,,,,,,,,0,7,7,34,,,,,,4,1,0.816391628666,,,,,,PLC_L_D2S1,P14,60.0251470939,02,A,2015_Feb_05_1638,Y,
stim/posf.jpg,stim/negf.jpg,stim/4.jpg,stim/2.jpg,stim/latef.jpg,AB,1,2,,,,,,,,,,,,,0,8,8,2,,,,,,2,1,0.816423844844,,,,,,PLC_L_D2S1,P14,60.0251470939,02,A,2015_Feb_05_1638,Y,
stim/posf.jpg,stim/negf.jpg,stim/1.jpg,stim/6.jpg,stim/latef.jpg,EF,2,4,,,,,,,,,,,,,0,9,9,53,,,,,,4,1,0.949680332928,,,,,,PLC_L_D2S1,P14,60.0251470939,02,A,2015_Feb_05_1638,Y,
stim/posf.jpg,stim/negf.jpg,stim/2.jpg,stim/4.jpg,stim/latef.jpg,AB,2,4,,,,,,,,,,,,,0,10,10,15,,,,,,4,1,0.933015341932,,,,,,PLC_L_D2S1,P14,60.0251470939,02,A,2015_Feb_05_1638,Y,
stim/negf.jpg,stim/posf.jpg,stim/6.jpg,stim/1.jpg,stim/latef.jpg,EF,1,2,,,,,,,,,,,,,0,11,11,48,,,,,,2,1,0.649773992022,,,,,,PLC_L_D2S1,P14,60.0251470939,02,A,2015_Feb_05_1638,Y,
stim/posf.jpg,stim/negf.jpg,stim/4.jpg,stim/2.jpg,stim/latef.jpg,AB,1,2,,,,,,,,,,,,,0,12,12,0,,,,,,2,1,0.883051376112,,,,,,PLC_L_D2S1,P14,60.0251470939,02,A,2015_Feb_05_1638,Y,
stim/negf.jpg,stim/posf.jpg,stim/6.jpg,stim/1.jpg,stim/latef.jpg,EF,1,2,,,,,,,,,,,,,0,13,13,49,,,,,,2,1,0.683083920107,,,,,,PLC_L_D2S1,P14,60.0251470939,02,A,2015_Feb_05_1638,Y,
stim/negf.jpg,stim/posf.jpg,stim/6.jpg,stim/1.jpg,stim/latef.jpg,EF,1,2,,,,,,,,,,,,,0,14,14,47,,,,,,2,1,0.699768501859,,,,,,PLC_L_D2S1,P14,60.0251470939,02,A,2015_Feb_05_1638,Y,
stim/posf.jpg,stim/negf.jpg,stim/4.jpg,stim/2.jpg,stim/latef.jpg,AB,1,2,,,,,,,,,,,,,0,15,15,3,,,,,,4,0,0.749756112526,,,,,,PLC_L_D2S1,P14,60.0251470939,02,A,2015_Feb_05_1638,Y,
stim/negf.jpg,stim/posf.jpg,stim/4.jpg,stim/2.jpg,stim/latef.jpg,AB,1,2,,,,,,,,,,,,,0,16,16,8,,,,,,2,1,1.04966957215,,,,,,PLC_L_D2S1,P14,60.0251470939,02,A,2015_Feb_05_1638,Y,
stim/posf.jpg,stim/negf.jpg,stim/3.jpg,stim/5.jpg,stim/latef.jpg,CD,2,4,,,,,,,,,,,,,0,17,17,35,,,,,,4,1,0.9996808036,,,,,,PLC_L_D2S1,P14,60.0251470939,02,A,2015_Feb_05_1638,Y,
stim/posf.jpg,stim/negf.jpg,stim/5.jpg,stim/3.jpg,stim/latef.jpg,CD,1,2,,,,,,,,,,,,,0,18,18,21,,,,,,2,1,0.949674720961,,,,,,PLC_L_D2S1,P14,60.0251470939,02,A,2015_Feb_05_1638,Y,
stim/posf.jpg,stim/negf.jpg,stim/1.jpg,stim/6.jpg,stim/latef.jpg,EF,2,4,,,,,,,,,,,,,0,19,19,50,,,,,,2,0,1.19955468171,,,,,,PLC_L_D2S1,P14,60.0251470939,02,A,2015_Feb_05_1638,Y,
stim/posf.jpg,stim/negf.jpg,stim/4.jpg,stim/2.jpg,stim/latef.jpg,AB,1,2,,,,,,,,,,,,,0,20,20,7,,,,,,2,1,0.932991288068,,,,,,PLC_L_D2S1,P14,60.0251470939,02,A,2015_Feb_05_1638,Y,
stim/posf.jpg,stim/negf.jpg,stim/2.jpg,stim/4.jpg,stim/latef.jpg,AB,2,4,,,,,,,,,,,,,0,21,21,12,,,,,,4,1,0.849768139457,,,,,,PLC_L_D2S1,P14,60.0251470939,02,A,2015_Feb_05_1638,Y,
stim/negf.jpg,stim/posf.jpg,stim/1.jpg,stim/6.jpg,stim/latef.jpg,EF,2,4,,,,,,,,,,,,,0,22,22,58,,,,,,4,1,0.866346190081,,,,,,PLC_L_D2S1,P14,60.0251470939,02,A,2015_Feb_05_1638,Y,
stim/posf.jpg,stim/negf.jpg,stim/5.jpg,stim/3.jpg,stim/latef.jpg,CD,1,2,,,,,,,,,,,,,0,23,23,23,,,,,,2,1,0.816391661748,,,,,,PLC_L_D2S1,P14,60.0251470939,02,A,2015_Feb_05_1638,Y,
stim/posf.jpg,stim/negf.jpg,stim/5.jpg,stim/3.jpg,stim/latef.jpg,CD,1,2,,,,,,,,,,,,,0,24,24,26,,,,,,2,1,0.616489444104,,,,,,PLC_L_D2S1,P14,60.0251470939,02,A,2015_Feb_05_1638,Y,
stim/posf.jpg,stim/negf.jpg,stim/1.jpg,stim/6.jpg,stim/latef.jpg,EF,2,4,,,,,,,,,,,,,0,25,25,52,,,,,,4,1,0.849726031661,,,,,,PLC_L_D2S1,P14,60.0251470939,02,A,2015_Feb_05_1638,Y,
stim/posf.jpg,stim/negf.jpg,stim/5.jpg,stim/3.jpg,stim/latef.jpg,CD,1,2,,,,,,,,,,,,,0,26,26,22,,,,,,2,1,1.0163260264,,,,,,PLC_L_D2S1,P14,60.0251470939,02,A,2015_Feb_05_1638,Y,
stim/posf.jpg,stim/negf.jpg,stim/2.jpg,stim/4.jpg,stim/latef.jpg,AB,2,4,,,,,,,,,,,,,0,27,27,10,,,,,,4,1,0.866388947494,,,,,,PLC_L_D2S1,P14,60.0251470939,02,A,2015_Feb_05_1638,Y,
stim/posf.jpg,stim/negf.jpg,stim/2.jpg,stim/4.jpg,stim/latef.jpg,AB,2,4,,,,,,,,,,,,,0,28,28,14,,,,,,4,1,0.982989566282,,,,,,PLC_L_D2S1,P14,60.0251470939,02,A,2015_Feb_05_1638,Y,
stim/posf.jpg,stim/negf.jpg,stim/6.jpg,stim/1.jpg,stim/latef.jpg,EF,1,2,,,,,,,,,,,,,0,29,29,42,,,,,,2,1,0.783065267685,,,,,,PLC_L_D2S1,P14,60.0251470939,02,A,2015_Feb_05_1638,Y,
stim/negf.jpg,stim/posf.jpg,stim/1.jpg,stim/6.jpg,stim/latef.jpg,EF,2,4,,,,,,,,,,,,,0,30,30,59,,,,,,4,1,0.799739810453,,,,,,PLC_L_D2S1,P14,60.0251470939,02,A,2015_Feb_05_1638,Y,
stim/negf.jpg,stim/posf.jpg,stim/4.jpg,stim/2.jpg,stim/latef.jpg,AB,1,2,,,,,,,,,,,,,0,31,31,9,,,,,,2,1,0.766425575652,,,,,,PLC_L_D2S1,P14,60.0251470939,02,A,2015_Feb_05_1638,Y,
stim/posf.jpg,stim/negf.jpg,stim/3.jpg,stim/5.jpg,stim/latef.jpg,CD,2,4,,,,,,,,,,,,,0,32,32,33,,,,,,4,1,0.699773521351,,,,,,PLC_L_D2S1,P14,60.0251470939,02,A,2015_Feb_05_1638,Y,
stim/posf.jpg,stim/negf.jpg,stim/5.jpg,stim/3.jpg,stim/latef.jpg,CD,1,2,,,,,,,,,,,,,0,33,33,24,,,,,,2,1,0.716430909426,,,,,,PLC_L_D2S1,P14,60.0251470939,02,A,2015_Feb_05_1638,Y,
stim/posf.jpg,stim/negf.jpg,stim/6.jpg,stim/1.jpg,stim/latef.jpg,EF,1,2,,,,,,,,,,,,,0,34,34,45,,,,,,2,1,1.14957319128,,,,,,PLC_L_D2S1,P14,60.0251470939,02,A,2015_Feb_05_1638,Y,
stim/posf.jpg,stim/negf.jpg,stim/6.jpg,stim/1.jpg,stim/latef.jpg,EF,1,2,,,,,,,,,,,,,0,35,35,44,,,,,,2,1,0.799722848239,,,,,,PLC_L_D2S1,P14,60.0251470939,02,A,2015_Feb_05_1638,Y,
stim/negf.jpg,stim/posf.jpg,stim/2.jpg,stim/4.jpg,stim/latef.jpg,AB,2,4,,,,,,,,,,,,,0,36,36,19,,,,,,4,1,0.983006928494,,,,,,PLC_L_D2S1,P14,60.0251470939,02,A,2015_Feb_05_1638,Y,
stim/negf.jpg,stim/posf.jpg,stim/5.jpg,stim/3.jpg,stim/latef.jpg,CD,1,2,,,,,,,,,,,,,0,37,37,28,,,,,,2,1,0.716441198031,,,,,,PLC_L_D2S1,P14,60.0251470939,02,A,2015_Feb_05_1638,Y,
stim/posf.jpg,stim/negf.jpg,stim/3.jpg,stim/5.jpg,stim/latef.jpg,CD,2,4,,,,,,,,,,,,,0,38,38,30,,,,,,4,1,0.733083990782,,,,,,PLC_L_D2S1,P14,60.0251470939,02,A,2015_Feb_05_1638,Y,
stim/negf.jpg,stim/posf.jpg,stim/3.jpg,stim/5.jpg,stim/latef.jpg,CD,2,4,,,,,,,,,,,,,0,39,39,39,,,,,,4,1,0.716407511193,,,,,,PLC_L_D2S1,P14,60.0251470939,02,A,2015_Feb_05_1638,Y,
stim/posf.jpg,stim/negf.jpg,stim/6.jpg,stim/1.jpg,stim/latef.jpg,EF,1,2,,,,,,,,,,,,,0,40,40,43,,,,,,2,1,0.766416868983,,,,,,PLC_L_D2S1,P14,60.0251470939,02,A,2015_Feb_05_1638,Y,
stim/posf.jpg,stim/negf.jpg,stim/5.jpg,stim/3.jpg,stim/latef.jpg,CD,1,2,,,,,,,,,,,,,0,41,41,25,,,,,,2,1,0.666374631865,,,,,,PLC_L_D2S1,P14,60.0251470939,02,A,2015_Feb_05_1638,Y,
stim/negf.jpg,stim/posf.jpg,stim/1.jpg,stim/6.jpg,stim/latef.jpg,EF,2,4,,,,,,,,,,,,,0,42,42,57,,,,,,4,1,1.03296340568,,,,,,PLC_L_D2S1,P14,60.0251470939,02,A,2015_Feb_05_1638,Y,
stim/posf.jpg,stim/negf.jpg,stim/4.jpg,stim/2.jpg,stim/latef.jpg,AB,1,2,,,,,,,,,,,,,0,43,43,4,,,,,,2,1,0.749751950166,,,,,,PLC_L_D2S1,P14,60.0251470939,02,A,2015_Feb_05_1638,Y,
stim/posf.jpg,stim/negf.jpg,stim/4.jpg,stim/2.jpg,stim/latef.jpg,AB,1,2,,,,,,,,,,,,,0,44,44,1,,,,,,2,1,0.699757503487,,,,,,PLC_L_D2S1,P14,60.0251470939,02,A,2015_Feb_05_1638,Y,
stim/posf.jpg,stim/negf.jpg,stim/2.jpg,stim/4.jpg,stim/latef.jpg,AB,2,4,,,,,,,,,,,,,0,45,45,13,,,,,,4,1,0.999655291106,,,,,,PLC_L_D2S1,P14,60.0251470939,02,A,2015_Feb_05_1638,Y,
stim/posf.jpg,stim/negf.jpg,stim/5.jpg,stim/3.jpg,stim/latef.jpg,CD,1,2,,,,,,,,,,,,,0,46,46,20,,,,,,2,1,1.01637629952,,,,,,PLC_L_D2S1,P14,60.0251470939,02,A,2015_Feb_05_1638,Y,
stim/posf.jpg,stim/negf.jpg,stim/1.jpg,stim/6.jpg,stim/latef.jpg,EF,2,4,,,,,,,,,,,,,0,47,47,55,,,,,,4,1,0.932999558652,,,,,,PLC_L_D2S1,P14,60.0251470939,02,A,2015_Feb_05_1638,Y,
stim/posf.jpg,stim/negf.jpg,stim/3.jpg,stim/5.jpg,stim/latef.jpg,CD,2,4,,,,,,,,,,,,,0,48,48,32,,,,,,4,1,0.966300801119,,,,,,PLC_L_D2S1,P14,60.0251470939,02,A,2015_Feb_05_1638,Y,
stim/negf.jpg,stim/posf.jpg,stim/2.jpg,stim/4.jpg,stim/latef.jpg,AB,2,4,,,,,,,,,,,,,0,49,49,18,,,,,,2,0,0.916370591309,,,,,,PLC_L_D2S1,P14,60.0251470939,02,A,2015_Feb_05_1638,Y,
stim/negf.jpg,stim/posf.jpg,stim/5.jpg,stim/3.jpg,stim/latef.jpg,CD,1,2,,,,,,,,,,,,,0,50,50,27,,,,,,2,1,0.899683762965,,,,,,PLC_L_D2S1,P14,60.0251470939,02,A,2015_Feb_05_1638,Y,
stim/negf.jpg,stim/posf.jpg,stim/3.jpg,stim/5.jpg,stim/latef.jpg,CD,2,4,,,,,,,,,,,,,0,51,51,37,,,,,,4,1,0.716455486592,,,,,,PLC_L_D2S1,P14,60.0251470939,02,A,2015_Feb_05_1638,Y,
stim/negf.jpg,stim/posf.jpg,stim/1.jpg,stim/6.jpg,stim/latef.jpg,EF,2,4,,,,,,,,,,,,,0,52,52,56,,,,,,4,1,1.01632188509,,,,,,PLC_L_D2S1,P14,60.0251470939,02,A,2015_Feb_05_1638,Y,
stim/posf.jpg,stim/negf.jpg,stim/1.jpg,stim/6.jpg,stim/latef.jpg,EF,2,4,,,,,,,,,,,,,0,53,53,54,,,,,,4,1,1.0662909907,,,,,,PLC_L_D2S1,P14,60.0251470939,02,A,2015_Feb_05_1638,Y,
stim/posf.jpg,stim/negf.jpg,stim/6.jpg,stim/1.jpg,stim/latef.jpg,EF,1,2,,,,,,,,,,,,,0,54,54,40,,,,,,2,1,0.616435513885,,,,,,PLC_L_D2S1,P14,60.0251470939,02,A,2015_Feb_05_1638,Y,
stim/negf.jpg,stim/posf.jpg,stim/3.jpg,stim/5.jpg,stim/latef.jpg,CD,2,4,,,,,,,,,,,,,0,55,55,38,,,,,,4,1,0.749724503858,,,,,,PLC_L_D2S1,P14,60.0251470939,02,A,2015_Feb_05_1638,Y,
stim/posf.jpg,stim/negf.jpg,stim/1.jpg,stim/6.jpg,stim/latef.jpg,EF,2,4,,,,,,,,,,,,,0,56,56,51,,,,,,4,1,0.866396267711,,,,,,PLC_L_D2S1,P14,60.0251470939,02,A,2015_Feb_05_1638,Y,
stim/posf.jpg,stim/negf.jpg,stim/2.jpg,stim/4.jpg,stim/latef.jpg,AB,2,4,,,,,,,,,,,,,0,57,57,11,,,,,,4,1,1.04968606219,,,,,,PLC_L_D2S1,P14,60.0251470939,02,A,2015_Feb_05_1638,Y,
stim/negf.jpg,stim/posf.jpg,stim/6.jpg,stim/1.jpg,stim/latef.jpg,EF,1,2,,,,,,,,,,,,,0,58,58,46,,,,,,2,1,0.783072660083,,,,,,PLC_L_D2S1,P14,60.0251470939,02,A,2015_Feb_05_1638,Y,
stim/negf.jpg,stim/posf.jpg,stim/5.jpg,stim/3.jpg,stim/latef.jpg,CD,1,2,,,,,,,,,,,,,0,59,59,29,,,,,,2,1,0.716398990989,,,,,,PLC_L_D2S1,P14,60.0251470939,02,A,2015_Feb_05_1638,Y,
