fb_corr,fb_incorr,symbol2,symbol1,fb_late,pair,position,correct,block_01.thisRepN,block_01.thisTrialN,block_01.thisN,block_01.thisIndex,block_02.thisRepN,block_02.thisTrialN,block_02.thisN,block_02.thisIndex,block_03.thisRepN,block_03.thisTrialN,block_03.thisN,block_03.thisIndex,block_04.thisRepN,block_04.thisTrialN,block_04.thisN,block_04.thisIndex,mouse.x,mouse.y,mouse.leftButton,mouse.midButton,mouse.rightButton,buttonBox_2.keys,buttonBox_2.corr,buttonBox_2.rt,mouse_2.x,mouse_2.y,mouse_2.leftButton,mouse_2.midButton,mouse_2.rightButton,expName,Participant,frameRate,SessionNumber,Version,date,Group,
,,,,,,,,,,,,,,,,,,,,,,,,0.9984375,1.0,1,0,0,,,,,,,,,PLC_L_D2S1,P15,60.0142823894,02,B,2015_Feb_07_1420,Y,
stim/negf.jpg,stim/posf.jpg,stim/5.jpg,stim/4.jpg,stim/latef.jpg,EF,1,2,0,0,0,47,,,,,,,,,,,,,,,,,,4,0,1.2329574304,,,,,,PLC_L_D2S1,P15,60.0142823894,02,B,2015_Feb_07_1420,Y,
stim/negf.jpg,stim/posf.jpg,stim/5.jpg,stim/4.jpg,stim/latef.jpg,EF,1,2,0,1,1,49,,,,,,,,,,,,,,,,,,4,0,0.666465349884,,,,,,PLC_L_D2S1,P15,60.0142823894,02,B,2015_Feb_07_1420,Y,
stim/posf.jpg,stim/negf.jpg,stim/6.jpg,stim/2.jpg,stim/latef.jpg,AB,1,2,0,2,2,5,,,,,,,,,,,,,,,,,,2,1,0.8997002609,,,,,,PLC_L_D2S1,P15,60.0142823894,02,B,2015_Feb_07_1420,Y,
stim/posf.jpg,stim/negf.jpg,stim/2.jpg,stim/6.jpg,stim/latef.jpg,AB,2,4,0,3,3,13,,,,,,,,,,,,,,,,,,2,0,1.33286925361,,,,,,PLC_L_D2S1,P15,60.0142823894,02,B,2015_Feb_07_1420,Y,
stim/posf.jpg,stim/negf.jpg,stim/3.jpg,stim/1.jpg,stim/latef.jpg,CD,2,4,0,4,4,36,,,,,,,,,,,,,,,,,,4,1,1.46617746032,,,,,,PLC_L_D2S1,P15,60.0142823894,02,B,2015_Feb_07_1420,Y,
stim/posf.jpg,stim/negf.jpg,stim/6.jpg,stim/2.jpg,stim/latef.jpg,AB,1,2,0,5,5,1,,,,,,,,,,,,,,,,,,4,0,0.999668664145,,,,,,PLC_L_D2S1,P15,60.0142823894,02,B,2015_Feb_07_1420,Y,
stim/posf.jpg,stim/negf.jpg,stim/4.jpg,stim/5.jpg,stim/latef.jpg,EF,2,4,0,6,6,54,,,,,,,,,,,,,,,,,,2,0,1.43287404756,,,,,,PLC_L_D2S1,P15,60.0142823894,02,B,2015_Feb_07_1420,Y,
stim/posf.jpg,stim/negf.jpg,stim/3.jpg,stim/1.jpg,stim/latef.jpg,CD,2,4,0,7,7,34,,,,,,,,,,,,,,,,,,4,1,1.64946051533,,,,,,PLC_L_D2S1,P15,60.0142823894,02,B,2015_Feb_07_1420,Y,
stim/negf.jpg,stim/posf.jpg,stim/3.jpg,stim/1.jpg,stim/latef.jpg,CD,2,4,0,8,8,38,,,,,,,,,,,,,,,,,,4,1,0.899616228449,,,,,,PLC_L_D2S1,P15,60.0142823894,02,B,2015_Feb_07_1420,Y,
stim/posf.jpg,stim/negf.jpg,stim/5.jpg,stim/4.jpg,stim/latef.jpg,EF,1,2,0,9,9,42,,,,,,,,,,,,,,,,,,2,1,1.09965882061,,,,,,PLC_L_D2S1,P15,60.0142823894,02,B,2015_Feb_07_1420,Y,
stim/posf.jpg,stim/negf.jpg,stim/4.jpg,stim/5.jpg,stim/latef.jpg,EF,2,4,0,10,10,52,,,,,,,,,,,,,,,,,,4,1,0.933027923099,,,,,,PLC_L_D2S1,P15,60.0142823894,02,B,2015_Feb_07_1420,Y,
stim/negf.jpg,stim/posf.jpg,stim/3.jpg,stim/1.jpg,stim/latef.jpg,CD,2,4,0,11,11,37,,,,,,,,,,,,,,,,,,2,0,1.46616983932,,,,,,PLC_L_D2S1,P15,60.0142823894,02,B,2015_Feb_07_1420,Y,
stim/negf.jpg,stim/posf.jpg,stim/5.jpg,stim/4.jpg,stim/latef.jpg,EF,1,2,0,12,12,48,,,,,,,,,,,,,,,,,,2,1,1.0496404809,,,,,,PLC_L_D2S1,P15,60.0142823894,02,B,2015_Feb_07_1420,Y,
stim/posf.jpg,stim/negf.jpg,stim/1.jpg,stim/3.jpg,stim/latef.jpg,CD,1,2,0,13,13,23,,,,,,,,,,,,,,,,,,2,1,1.48285400862,,,,,,PLC_L_D2S1,P15,60.0142823894,02,B,2015_Feb_07_1420,Y,
stim/posf.jpg,stim/negf.jpg,stim/6.jpg,stim/2.jpg,stim/latef.jpg,AB,1,2,0,14,14,4,,,,,,,,,,,,,,,,,,None,0,,,,,,,PLC_L_D2S1,P15,60.0142823894,02,B,2015_Feb_07_1420,Y,
stim/negf.jpg,stim/posf.jpg,stim/4.jpg,stim/5.jpg,stim/latef.jpg,EF,2,4,0,15,15,57,,,,,,,,,,,,,,,,,,4,1,0.799731493748,,,,,,PLC_L_D2S1,P15,60.0142823894,02,B,2015_Feb_07_1420,Y,
stim/posf.jpg,stim/negf.jpg,stim/5.jpg,stim/4.jpg,stim/latef.jpg,EF,1,2,0,16,16,43,,,,,,,,,,,,,,,,,,2,1,0.966349856016,,,,,,PLC_L_D2S1,P15,60.0142823894,02,B,2015_Feb_07_1420,Y,
stim/posf.jpg,stim/negf.jpg,stim/1.jpg,stim/3.jpg,stim/latef.jpg,CD,1,2,0,17,17,24,,,,,,,,,,,,,,,,,,2,1,1.14962163894,,,,,,PLC_L_D2S1,P15,60.0142823894,02,B,2015_Feb_07_1420,Y,
stim/posf.jpg,stim/negf.jpg,stim/1.jpg,stim/3.jpg,stim/latef.jpg,CD,1,2,0,18,18,21,,,,,,,,,,,,,,,,,,2,1,0.816385585071,,,,,,PLC_L_D2S1,P15,60.0142823894,02,B,2015_Feb_07_1420,Y,
stim/negf.jpg,stim/posf.jpg,stim/3.jpg,stim/1.jpg,stim/latef.jpg,CD,2,4,0,19,19,39,,,,,,,,,,,,,,,,,,4,1,1.14962769302,,,,,,PLC_L_D2S1,P15,60.0142823894,02,B,2015_Feb_07_1420,Y,
stim/posf.jpg,stim/negf.jpg,stim/6.jpg,stim/2.jpg,stim/latef.jpg,AB,1,2,0,20,20,3,,,,,,,,,,,,,,,,,,4,0,1.31623636815,,,,,,PLC_L_D2S1,P15,60.0142823894,02,B,2015_Feb_07_1420,Y,
stim/negf.jpg,stim/posf.jpg,stim/6.jpg,stim/2.jpg,stim/latef.jpg,AB,1,2,0,21,21,9,,,,,,,,,,,,,,,,,,2,1,1.23299292787,,,,,,PLC_L_D2S1,P15,60.0142823894,02,B,2015_Feb_07_1420,Y,
stim/posf.jpg,stim/negf.jpg,stim/5.jpg,stim/4.jpg,stim/latef.jpg,EF,1,2,0,22,22,41,,,,,,,,,,,,,,,,,,2,1,1.04963114262,,,,,,PLC_L_D2S1,P15,60.0142823894,02,B,2015_Feb_07_1420,Y,
stim/negf.jpg,stim/posf.jpg,stim/2.jpg,stim/6.jpg,stim/latef.jpg,AB,2,4,0,23,23,19,,,,,,,,,,,,,,,,,,2,0,1.34956421681,,,,,,PLC_L_D2S1,P15,60.0142823894,02,B,2015_Feb_07_1420,Y,
stim/negf.jpg,stim/posf.jpg,stim/4.jpg,stim/5.jpg,stim/latef.jpg,EF,2,4,0,24,24,56,,,,,,,,,,,,,,,,,,4,1,0.932999803009,,,,,,PLC_L_D2S1,P15,60.0142823894,02,B,2015_Feb_07_1420,Y,
stim/negf.jpg,stim/posf.jpg,stim/5.jpg,stim/4.jpg,stim/latef.jpg,EF,1,2,0,25,25,46,,,,,,,,,,,,,,,,,,2,1,1.23294952369,,,,,,PLC_L_D2S1,P15,60.0142823894,02,B,2015_Feb_07_1420,Y,
stim/posf.jpg,stim/negf.jpg,stim/3.jpg,stim/1.jpg,stim/latef.jpg,CD,2,4,0,26,26,30,,,,,,,,,,,,,,,,,,4,1,1.09963405689,,,,,,PLC_L_D2S1,P15,60.0142823894,02,B,2015_Feb_07_1420,Y,
stim/posf.jpg,stim/negf.jpg,stim/2.jpg,stim/6.jpg,stim/latef.jpg,AB,2,4,0,27,27,17,,,,,,,,,,,,,,,,,,2,0,1.29956749799,,,,,,PLC_L_D2S1,P15,60.0142823894,02,B,2015_Feb_07_1420,Y,
stim/posf.jpg,stim/negf.jpg,stim/5.jpg,stim/4.jpg,stim/latef.jpg,EF,1,2,0,28,28,40,,,,,,,,,,,,,,,,,,2,1,1.08297265434,,,,,,PLC_L_D2S1,P15,60.0142823894,02,B,2015_Feb_07_1420,Y,
stim/negf.jpg,stim/posf.jpg,stim/2.jpg,stim/6.jpg,stim/latef.jpg,AB,2,4,0,29,29,18,,,,,,,,,,,,,,,,,,4,1,0.86637830693,,,,,,PLC_L_D2S1,P15,60.0142823894,02,B,2015_Feb_07_1420,Y,
stim/posf.jpg,stim/negf.jpg,stim/5.jpg,stim/4.jpg,stim/latef.jpg,EF,1,2,0,30,30,45,,,,,,,,,,,,,,,,,,2,1,1.08300479545,,,,,,PLC_L_D2S1,P15,60.0142823894,02,B,2015_Feb_07_1420,Y,
stim/posf.jpg,stim/negf.jpg,stim/3.jpg,stim/1.jpg,stim/latef.jpg,CD,2,4,0,31,31,35,,,,,,,,,,,,,,,,,,4,1,1.36613142758,,,,,,PLC_L_D2S1,P15,60.0142823894,02,B,2015_Feb_07_1420,Y,
stim/posf.jpg,stim/negf.jpg,stim/2.jpg,stim/6.jpg,stim/latef.jpg,AB,2,4,0,32,32,16,,,,,,,,,,,,,,,,,,4,1,1.11626082811,,,,,,PLC_L_D2S1,P15,60.0142823894,02,B,2015_Feb_07_1420,Y,
stim/negf.jpg,stim/posf.jpg,stim/1.jpg,stim/3.jpg,stim/latef.jpg,CD,1,2,0,33,33,28,,,,,,,,,,,,,,,,,,2,1,1.09962802686,,,,,,PLC_L_D2S1,P15,60.0142823894,02,B,2015_Feb_07_1420,Y,
stim/posf.jpg,stim/negf.jpg,stim/3.jpg,stim/1.jpg,stim/latef.jpg,CD,2,4,0,34,34,32,,,,,,,,,,,,,,,,,,4,1,1.36623143585,,,,,,PLC_L_D2S1,P15,60.0142823894,02,B,2015_Feb_07_1420,Y,
stim/negf.jpg,stim/posf.jpg,stim/4.jpg,stim/5.jpg,stim/latef.jpg,EF,2,4,0,35,35,59,,,,,,,,,,,,,,,,,,2,0,1.08298422719,,,,,,PLC_L_D2S1,P15,60.0142823894,02,B,2015_Feb_07_1420,Y,
stim/posf.jpg,stim/negf.jpg,stim/4.jpg,stim/5.jpg,stim/latef.jpg,EF,2,4,0,36,36,51,,,,,,,,,,,,,,,,,,4,1,1.14959277299,,,,,,PLC_L_D2S1,P15,60.0142823894,02,B,2015_Feb_07_1420,Y,
stim/posf.jpg,stim/negf.jpg,stim/2.jpg,stim/6.jpg,stim/latef.jpg,AB,2,4,0,37,37,15,,,,,,,,,,,,,,,,,,4,1,0.783036347095,,,,,,PLC_L_D2S1,P15,60.0142823894,02,B,2015_Feb_07_1420,Y,
stim/posf.jpg,stim/negf.jpg,stim/4.jpg,stim/5.jpg,stim/latef.jpg,EF,2,4,0,38,38,55,,,,,,,,,,,,,,,,,,4,1,1.11631115255,,,,,,PLC_L_D2S1,P15,60.0142823894,02,B,2015_Feb_07_1420,Y,
stim/negf.jpg,stim/posf.jpg,stim/6.jpg,stim/2.jpg,stim/latef.jpg,AB,1,2,0,39,39,8,,,,,,,,,,,,,,,,,,2,1,1.19957998211,,,,,,PLC_L_D2S1,P15,60.0142823894,02,B,2015_Feb_07_1420,Y,
stim/posf.jpg,stim/negf.jpg,stim/6.jpg,stim/2.jpg,stim/latef.jpg,AB,1,2,0,40,40,0,,,,,,,,,,,,,,,,,,2,1,1.11628691514,,,,,,PLC_L_D2S1,P15,60.0142823894,02,B,2015_Feb_07_1420,Y,
stim/posf.jpg,stim/negf.jpg,stim/2.jpg,stim/6.jpg,stim/latef.jpg,AB,2,4,0,41,41,11,,,,,,,,,,,,,,,,,,4,1,1.29957513703,,,,,,PLC_L_D2S1,P15,60.0142823894,02,B,2015_Feb_07_1420,Y,
stim/posf.jpg,stim/negf.jpg,stim/1.jpg,stim/3.jpg,stim/latef.jpg,CD,1,2,0,42,42,20,,,,,,,,,,,,,,,,,,2,1,1.36622965241,,,,,,PLC_L_D2S1,P15,60.0142823894,02,B,2015_Feb_07_1420,Y,
stim/posf.jpg,stim/negf.jpg,stim/4.jpg,stim/5.jpg,stim/latef.jpg,EF,2,4,0,43,43,50,,,,,,,,,,,,,,,,,,4,1,0.783042578627,,,,,,PLC_L_D2S1,P15,60.0142823894,02,B,2015_Feb_07_1420,Y,
stim/posf.jpg,stim/negf.jpg,stim/6.jpg,stim/2.jpg,stim/latef.jpg,AB,1,2,0,44,44,6,,,,,,,,,,,,,,,,,,4,0,1.2162345456,,,,,,PLC_L_D2S1,P15,60.0142823894,02,B,2015_Feb_07_1420,Y,
stim/posf.jpg,stim/negf.jpg,stim/6.jpg,stim/2.jpg,stim/latef.jpg,AB,1,2,0,45,45,2,,,,,,,,,,,,,,,,,,2,1,1.49946916189,,,,,,PLC_L_D2S1,P15,60.0142823894,02,B,2015_Feb_07_1420,Y,
stim/posf.jpg,stim/negf.jpg,stim/1.jpg,stim/3.jpg,stim/latef.jpg,CD,1,2,0,46,46,22,,,,,,,,,,,,,,,,,,2,1,1.14961108864,,,,,,PLC_L_D2S1,P15,60.0142823894,02,B,2015_Feb_07_1420,Y,
stim/negf.jpg,stim/posf.jpg,stim/1.jpg,stim/3.jpg,stim/latef.jpg,CD,1,2,0,47,47,29,,,,,,,,,,,,,,,,,,2,1,0.899688492568,,,,,,PLC_L_D2S1,P15,60.0142823894,02,B,2015_Feb_07_1420,Y,
stim/posf.jpg,stim/negf.jpg,stim/2.jpg,stim/6.jpg,stim/latef.jpg,AB,2,4,0,48,48,10,,,,,,,,,,,,,,,,,,4,1,1.2829085646,,,,,,PLC_L_D2S1,P15,60.0142823894,02,B,2015_Feb_07_1420,Y,
stim/posf.jpg,stim/negf.jpg,stim/2.jpg,stim/6.jpg,stim/latef.jpg,AB,2,4,0,49,49,14,,,,,,,,,,,,,,,,,,2,0,0.966353062007,,,,,,PLC_L_D2S1,P15,60.0142823894,02,B,2015_Feb_07_1420,Y,
stim/posf.jpg,stim/negf.jpg,stim/1.jpg,stim/3.jpg,stim/latef.jpg,CD,1,2,0,50,50,26,,,,,,,,,,,,,,,,,,2,1,1.31633006068,,,,,,PLC_L_D2S1,P15,60.0142823894,02,B,2015_Feb_07_1420,Y,
stim/negf.jpg,stim/posf.jpg,stim/4.jpg,stim/5.jpg,stim/latef.jpg,EF,2,4,0,51,51,58,,,,,,,,,,,,,,,,,,4,1,0.649772341561,,,,,,PLC_L_D2S1,P15,60.0142823894,02,B,2015_Feb_07_1420,Y,
stim/posf.jpg,stim/negf.jpg,stim/2.jpg,stim/6.jpg,stim/latef.jpg,AB,2,4,0,52,52,12,,,,,,,,,,,,,,,,,,4,1,0.916349188352,,,,,,PLC_L_D2S1,P15,60.0142823894,02,B,2015_Feb_07_1420,Y,
stim/posf.jpg,stim/negf.jpg,stim/5.jpg,stim/4.jpg,stim/latef.jpg,EF,1,2,0,53,53,44,,,,,,,,,,,,,,,,,,2,1,0.833056073263,,,,,,PLC_L_D2S1,P15,60.0142823894,02,B,2015_Feb_07_1420,Y,
stim/posf.jpg,stim/negf.jpg,stim/3.jpg,stim/1.jpg,stim/latef.jpg,CD,2,4,0,54,54,33,,,,,,,,,,,,,,,,,,4,1,0.949699764663,,,,,,PLC_L_D2S1,P15,60.0142823894,02,B,2015_Feb_07_1420,Y,
stim/posf.jpg,stim/negf.jpg,stim/1.jpg,stim/3.jpg,stim/latef.jpg,CD,1,2,0,55,55,25,,,,,,,,,,,,,,,,,,2,1,0.816382072315,,,,,,PLC_L_D2S1,P15,60.0142823894,02,B,2015_Feb_07_1420,Y,
stim/posf.jpg,stim/negf.jpg,stim/6.jpg,stim/2.jpg,stim/latef.jpg,AB,1,2,0,56,56,7,,,,,,,,,,,,,,,,,,2,1,1.16630003083,,,,,,PLC_L_D2S1,P15,60.0142823894,02,B,2015_Feb_07_1420,Y,
stim/negf.jpg,stim/posf.jpg,stim/1.jpg,stim/3.jpg,stim/latef.jpg,CD,1,2,0,57,57,27,,,,,,,,,,,,,,,,,,2,1,1.11629158578,,,,,,PLC_L_D2S1,P15,60.0142823894,02,B,2015_Feb_07_1420,Y,
stim/posf.jpg,stim/negf.jpg,stim/3.jpg,stim/1.jpg,stim/latef.jpg,CD,2,4,0,58,58,31,,,,,,,,,,,,,,,,,,2,0,0.899710432252,,,,,,PLC_L_D2S1,P15,60.0142823894,02,B,2015_Feb_07_1420,Y,
stim/posf.jpg,stim/negf.jpg,stim/4.jpg,stim/5.jpg,stim/latef.jpg,EF,2,4,0,59,59,53,,,,,,,,,,,,,,,,,,4,1,0.633155404847,,,,,,PLC_L_D2S1,P15,60.0142823894,02,B,2015_Feb_07_1420,Y,
,,,,,,,,,,,,,,,,,,,,,,,,,,,,,,,,0.9984375,1.0,1,0,0,PLC_L_D2S1,P15,60.0142823894,02,B,2015_Feb_07_1420,Y,
stim/negf.jpg,stim/posf.jpg,stim/4.jpg,stim/5.jpg,stim/latef.jpg,EF,2,4,,,,,0,0,0,58,,,,,,,,,,,,,,4,1,0.566457497312,,,,,,PLC_L_D2S1,P15,60.0142823894,02,B,2015_Feb_07_1420,Y,
stim/posf.jpg,stim/negf.jpg,stim/3.jpg,stim/1.jpg,stim/latef.jpg,CD,2,4,,,,,0,1,1,35,,,,,,,,,,,,,,4,1,1.01633249675,,,,,,PLC_L_D2S1,P15,60.0142823894,02,B,2015_Feb_07_1420,Y,
stim/negf.jpg,stim/posf.jpg,stim/5.jpg,stim/4.jpg,stim/latef.jpg,EF,1,2,,,,,0,2,2,49,,,,,,,,,,,,,,2,1,0.7996490673,,,,,,PLC_L_D2S1,P15,60.0142823894,02,B,2015_Feb_07_1420,Y,
stim/posf.jpg,stim/negf.jpg,stim/2.jpg,stim/6.jpg,stim/latef.jpg,AB,2,4,,,,,0,3,3,10,,,,,,,,,,,,,,4,1,0.849726305817,,,,,,PLC_L_D2S1,P15,60.0142823894,02,B,2015_Feb_07_1420,Y,
stim/negf.jpg,stim/posf.jpg,stim/1.jpg,stim/3.jpg,stim/latef.jpg,CD,1,2,,,,,0,4,4,28,,,,,,,,,,,,,,2,1,1.29953640048,,,,,,PLC_L_D2S1,P15,60.0142823894,02,B,2015_Feb_07_1420,Y,
stim/posf.jpg,stim/negf.jpg,stim/3.jpg,stim/1.jpg,stim/latef.jpg,CD,2,4,,,,,0,5,5,36,,,,,,,,,,,,,,4,1,1.29956538973,,,,,,PLC_L_D2S1,P15,60.0142823894,02,B,2015_Feb_07_1420,Y,
stim/posf.jpg,stim/negf.jpg,stim/3.jpg,stim/1.jpg,stim/latef.jpg,CD,2,4,,,,,0,6,6,31,,,,,,,,,,,,,,4,1,0.73305229284,,,,,,PLC_L_D2S1,P15,60.0142823894,02,B,2015_Feb_07_1420,Y,
stim/negf.jpg,stim/posf.jpg,stim/5.jpg,stim/4.jpg,stim/latef.jpg,EF,1,2,,,,,0,7,7,48,,,,,,,,,,,,,,2,1,0.833050852249,,,,,,PLC_L_D2S1,P15,60.0142823894,02,B,2015_Feb_07_1420,Y,
stim/negf.jpg,stim/posf.jpg,stim/4.jpg,stim/5.jpg,stim/latef.jpg,EF,2,4,,,,,0,8,8,57,,,,,,,,,,,,,,4,1,0.599785385072,,,,,,PLC_L_D2S1,P15,60.0142823894,02,B,2015_Feb_07_1420,Y,
stim/posf.jpg,stim/negf.jpg,stim/5.jpg,stim/4.jpg,stim/latef.jpg,EF,1,2,,,,,0,9,9,44,,,,,,,,,,,,,,4,0,1.04965886873,,,,,,PLC_L_D2S1,P15,60.0142823894,02,B,2015_Feb_07_1420,Y,
stim/negf.jpg,stim/posf.jpg,stim/5.jpg,stim/4.jpg,stim/latef.jpg,EF,1,2,,,,,0,10,10,47,,,,,,,,,,,,,,2,1,0.683128920835,,,,,,PLC_L_D2S1,P15,60.0142823894,02,B,2015_Feb_07_1420,Y,
stim/posf.jpg,stim/negf.jpg,stim/6.jpg,stim/2.jpg,stim/latef.jpg,AB,1,2,,,,,0,11,11,0,,,,,,,,,,,,,,2,1,0.949690501575,,,,,,PLC_L_D2S1,P15,60.0142823894,02,B,2015_Feb_07_1420,Y,
stim/negf.jpg,stim/posf.jpg,stim/6.jpg,stim/2.jpg,stim/latef.jpg,AB,1,2,,,,,0,12,12,8,,,,,,,,,,,,,,2,1,0.883027962196,,,,,,PLC_L_D2S1,P15,60.0142823894,02,B,2015_Feb_07_1420,Y,
stim/posf.jpg,stim/negf.jpg,stim/1.jpg,stim/3.jpg,stim/latef.jpg,CD,1,2,,,,,0,13,13,25,,,,,,,,,,,,,,4,0,1.19960461049,,,,,,PLC_L_D2S1,P15,60.0142823894,02,B,2015_Feb_07_1420,Y,
stim/posf.jpg,stim/negf.jpg,stim/1.jpg,stim/3.jpg,stim/latef.jpg,CD,1,2,,,,,0,14,14,23,,,,,,,,,,,,,,2,1,0.816383145991,,,,,,PLC_L_D2S1,P15,60.0142823894,02,B,2015_Feb_07_1420,Y,
stim/posf.jpg,stim/negf.jpg,stim/6.jpg,stim/2.jpg,stim/latef.jpg,AB,1,2,,,,,0,15,15,6,,,,,,,,,,,,,,2,1,1.21627016639,,,,,,PLC_L_D2S1,P15,60.0142823894,02,B,2015_Feb_07_1420,Y,
stim/posf.jpg,stim/negf.jpg,stim/5.jpg,stim/4.jpg,stim/latef.jpg,EF,1,2,,,,,0,16,16,42,,,,,,,,,,,,,,2,1,0.949747445508,,,,,,PLC_L_D2S1,P15,60.0142823894,02,B,2015_Feb_07_1420,Y,
stim/posf.jpg,stim/negf.jpg,stim/1.jpg,stim/3.jpg,stim/latef.jpg,CD,1,2,,,,,0,17,17,20,,,,,,,,,,,,,,2,1,1.11630893903,,,,,,PLC_L_D2S1,P15,60.0142823894,02,B,2015_Feb_07_1420,Y,
stim/posf.jpg,stim/negf.jpg,stim/5.jpg,stim/4.jpg,stim/latef.jpg,EF,1,2,,,,,0,18,18,43,,,,,,,,,,,,,,2,1,0.999643067345,,,,,,PLC_L_D2S1,P15,60.0142823894,02,B,2015_Feb_07_1420,Y,
stim/posf.jpg,stim/negf.jpg,stim/6.jpg,stim/2.jpg,stim/latef.jpg,AB,1,2,,,,,0,19,19,3,,,,,,,,,,,,,,2,1,1.28290390899,,,,,,PLC_L_D2S1,P15,60.0142823894,02,B,2015_Feb_07_1420,Y,
stim/posf.jpg,stim/negf.jpg,stim/3.jpg,stim/1.jpg,stim/latef.jpg,CD,2,4,,,,,0,20,20,33,,,,,,,,,,,,,,4,1,1.332956871,,,,,,PLC_L_D2S1,P15,60.0142823894,02,B,2015_Feb_07_1420,Y,
stim/posf.jpg,stim/negf.jpg,stim/2.jpg,stim/6.jpg,stim/latef.jpg,AB,2,4,,,,,0,21,21,17,,,,,,,,,,,,,,2,0,1.18294261848,,,,,,PLC_L_D2S1,P15,60.0142823894,02,B,2015_Feb_07_1420,Y,
stim/posf.jpg,stim/negf.jpg,stim/2.jpg,stim/6.jpg,stim/latef.jpg,AB,2,4,,,,,0,22,22,14,,,,,,,,,,,,,,4,1,1.18294693423,,,,,,PLC_L_D2S1,P15,60.0142823894,02,B,2015_Feb_07_1420,Y,
stim/posf.jpg,stim/negf.jpg,stim/3.jpg,stim/1.jpg,stim/latef.jpg,CD,2,4,,,,,0,23,23,34,,,,,,,,,,,,,,4,1,1.08296203487,,,,,,PLC_L_D2S1,P15,60.0142823894,02,B,2015_Feb_07_1420,Y,
stim/negf.jpg,stim/posf.jpg,stim/3.jpg,stim/1.jpg,stim/latef.jpg,CD,2,4,,,,,0,24,24,37,,,,,,,,,,,,,,4,1,0.799736735814,,,,,,PLC_L_D2S1,P15,60.0142823894,02,B,2015_Feb_07_1420,Y,
stim/posf.jpg,stim/negf.jpg,stim/4.jpg,stim/5.jpg,stim/latef.jpg,EF,2,4,,,,,0,25,25,50,,,,,,,,,,,,,,2,0,1.11629015421,,,,,,PLC_L_D2S1,P15,60.0142823894,02,B,2015_Feb_07_1420,Y,
stim/posf.jpg,stim/negf.jpg,stim/4.jpg,stim/5.jpg,stim/latef.jpg,EF,2,4,,,,,0,26,26,54,,,,,,,,,,,,,,2,0,0.733086024917,,,,,,PLC_L_D2S1,P15,60.0142823894,02,B,2015_Feb_07_1420,Y,
stim/negf.jpg,stim/posf.jpg,stim/1.jpg,stim/3.jpg,stim/latef.jpg,CD,1,2,,,,,0,27,27,27,,,,,,,,,,,,,,2,1,0.733101513522,,,,,,PLC_L_D2S1,P15,60.0142823894,02,B,2015_Feb_07_1420,Y,
stim/posf.jpg,stim/negf.jpg,stim/5.jpg,stim/4.jpg,stim/latef.jpg,EF,1,2,,,,,0,28,28,45,,,,,,,,,,,,,,2,1,0.883032831332,,,,,,PLC_L_D2S1,P15,60.0142823894,02,B,2015_Feb_07_1420,Y,
stim/posf.jpg,stim/negf.jpg,stim/6.jpg,stim/2.jpg,stim/latef.jpg,AB,1,2,,,,,0,29,29,7,,,,,,,,,,,,,,2,1,0.766424056962,,,,,,PLC_L_D2S1,P15,60.0142823894,02,B,2015_Feb_07_1420,Y,
stim/posf.jpg,stim/negf.jpg,stim/6.jpg,stim/2.jpg,stim/latef.jpg,AB,1,2,,,,,0,30,30,5,,,,,,,,,,,,,,4,0,1.1495789776,,,,,,PLC_L_D2S1,P15,60.0142823894,02,B,2015_Feb_07_1420,Y,
stim/posf.jpg,stim/negf.jpg,stim/1.jpg,stim/3.jpg,stim/latef.jpg,CD,1,2,,,,,0,31,31,21,,,,,,,,,,,,,,2,1,0.916360114586,,,,,,PLC_L_D2S1,P15,60.0142823894,02,B,2015_Feb_07_1420,Y,
stim/posf.jpg,stim/negf.jpg,stim/6.jpg,stim/2.jpg,stim/latef.jpg,AB,1,2,,,,,0,32,32,2,,,,,,,,,,,,,,2,1,0.899679692634,,,,,,PLC_L_D2S1,P15,60.0142823894,02,B,2015_Feb_07_1420,Y,
stim/posf.jpg,stim/negf.jpg,stim/5.jpg,stim/4.jpg,stim/latef.jpg,EF,1,2,,,,,0,33,33,41,,,,,,,,,,,,,,2,1,1.01630571499,,,,,,PLC_L_D2S1,P15,60.0142823894,02,B,2015_Feb_07_1420,Y,
stim/posf.jpg,stim/negf.jpg,stim/6.jpg,stim/2.jpg,stim/latef.jpg,AB,1,2,,,,,0,34,34,4,,,,,,,,,,,,,,2,1,1.1163043135,,,,,,PLC_L_D2S1,P15,60.0142823894,02,B,2015_Feb_07_1420,Y,
stim/negf.jpg,stim/posf.jpg,stim/4.jpg,stim/5.jpg,stim/latef.jpg,EF,2,4,,,,,0,35,35,56,,,,,,,,,,,,,,4,1,0.866384033203,,,,,,PLC_L_D2S1,P15,60.0142823894,02,B,2015_Feb_07_1420,Y,
stim/negf.jpg,stim/posf.jpg,stim/6.jpg,stim/2.jpg,stim/latef.jpg,AB,1,2,,,,,0,36,36,9,,,,,,,,,,,,,,2,1,0.766378586627,,,,,,PLC_L_D2S1,P15,60.0142823894,02,B,2015_Feb_07_1420,Y,
stim/negf.jpg,stim/posf.jpg,stim/2.jpg,stim/6.jpg,stim/latef.jpg,AB,2,4,,,,,0,37,37,19,,,,,,,,,,,,,,4,1,1.41619145119,,,,,,PLC_L_D2S1,P15,60.0142823894,02,B,2015_Feb_07_1420,Y,
stim/posf.jpg,stim/negf.jpg,stim/4.jpg,stim/5.jpg,stim/latef.jpg,EF,2,4,,,,,0,38,38,52,,,,,,,,,,,,,,4,1,0.733088692566,,,,,,PLC_L_D2S1,P15,60.0142823894,02,B,2015_Feb_07_1420,Y,
stim/posf.jpg,stim/negf.jpg,stim/2.jpg,stim/6.jpg,stim/latef.jpg,AB,2,4,,,,,0,39,39,15,,,,,,,,,,,,,,4,1,1.01631469839,,,,,,PLC_L_D2S1,P15,60.0142823894,02,B,2015_Feb_07_1420,Y,
stim/posf.jpg,stim/negf.jpg,stim/1.jpg,stim/3.jpg,stim/latef.jpg,CD,1,2,,,,,0,40,40,26,,,,,,,,,,,,,,2,1,1.19959659852,,,,,,PLC_L_D2S1,P15,60.0142823894,02,B,2015_Feb_07_1420,Y,
stim/posf.jpg,stim/negf.jpg,stim/2.jpg,stim/6.jpg,stim/latef.jpg,AB,2,4,,,,,0,41,41,12,,,,,,,,,,,,,,2,0,1.14973314186,,,,,,PLC_L_D2S1,P15,60.0142823894,02,B,2015_Feb_07_1420,Y,
stim/posf.jpg,stim/negf.jpg,stim/4.jpg,stim/5.jpg,stim/latef.jpg,EF,2,4,,,,,0,42,42,51,,,,,,,,,,,,,,4,1,0.733045492891,,,,,,PLC_L_D2S1,P15,60.0142823894,02,B,2015_Feb_07_1420,Y,
stim/posf.jpg,stim/negf.jpg,stim/1.jpg,stim/3.jpg,stim/latef.jpg,CD,1,2,,,,,0,43,43,22,,,,,,,,,,,,,,2,1,0.683113723957,,,,,,PLC_L_D2S1,P15,60.0142823894,02,B,2015_Feb_07_1420,Y,
stim/negf.jpg,stim/posf.jpg,stim/1.jpg,stim/3.jpg,stim/latef.jpg,CD,1,2,,,,,0,44,44,29,,,,,,,,,,,,,,2,1,0.999653491327,,,,,,PLC_L_D2S1,P15,60.0142823894,02,B,2015_Feb_07_1420,Y,
stim/negf.jpg,stim/posf.jpg,stim/3.jpg,stim/1.jpg,stim/latef.jpg,CD,2,4,,,,,0,45,45,39,,,,,,,,,,,,,,4,1,0.849735229059,,,,,,PLC_L_D2S1,P15,60.0142823894,02,B,2015_Feb_07_1420,Y,
stim/posf.jpg,stim/negf.jpg,stim/2.jpg,stim/6.jpg,stim/latef.jpg,AB,2,4,,,,,0,46,46,13,,,,,,,,,,,,,,2,0,0.949658691288,,,,,,PLC_L_D2S1,P15,60.0142823894,02,B,2015_Feb_07_1420,Y,
stim/posf.jpg,stim/negf.jpg,stim/5.jpg,stim/4.jpg,stim/latef.jpg,EF,1,2,,,,,0,47,47,40,,,,,,,,,,,,,,2,1,0.783073092683,,,,,,PLC_L_D2S1,P15,60.0142823894,02,B,2015_Feb_07_1420,Y,
stim/negf.jpg,stim/posf.jpg,stim/5.jpg,stim/4.jpg,stim/latef.jpg,EF,1,2,,,,,0,48,48,46,,,,,,,,,,,,,,2,1,0.79975784543,,,,,,PLC_L_D2S1,P15,60.0142823894,02,B,2015_Feb_07_1420,Y,
stim/negf.jpg,stim/posf.jpg,stim/2.jpg,stim/6.jpg,stim/latef.jpg,AB,2,4,,,,,0,49,49,18,,,,,,,,,,,,,,4,1,0.932906017248,,,,,,PLC_L_D2S1,P15,60.0142823894,02,B,2015_Feb_07_1420,Y,
stim/posf.jpg,stim/negf.jpg,stim/2.jpg,stim/6.jpg,stim/latef.jpg,AB,2,4,,,,,0,50,50,16,,,,,,,,,,,,,,4,1,1.11627539041,,,,,,PLC_L_D2S1,P15,60.0142823894,02,B,2015_Feb_07_1420,Y,
stim/negf.jpg,stim/posf.jpg,stim/3.jpg,stim/1.jpg,stim/latef.jpg,CD,2,4,,,,,0,51,51,38,,,,,,,,,,,,,,4,1,1.34956144991,,,,,,PLC_L_D2S1,P15,60.0142823894,02,B,2015_Feb_07_1420,Y,
stim/posf.jpg,stim/negf.jpg,stim/1.jpg,stim/3.jpg,stim/latef.jpg,CD,1,2,,,,,0,52,52,24,,,,,,,,,,,,,,2,1,0.866382565545,,,,,,PLC_L_D2S1,P15,60.0142823894,02,B,2015_Feb_07_1420,Y,
stim/posf.jpg,stim/negf.jpg,stim/4.jpg,stim/5.jpg,stim/latef.jpg,EF,2,4,,,,,0,53,53,55,,,,,,,,,,,,,,4,1,0.916367708513,,,,,,PLC_L_D2S1,P15,60.0142823894,02,B,2015_Feb_07_1420,Y,
stim/posf.jpg,stim/negf.jpg,stim/4.jpg,stim/5.jpg,stim/latef.jpg,EF,2,4,,,,,0,54,54,53,,,,,,,,,,,,,,4,1,0.916411738258,,,,,,PLC_L_D2S1,P15,60.0142823894,02,B,2015_Feb_07_1420,Y,
stim/negf.jpg,stim/posf.jpg,stim/4.jpg,stim/5.jpg,stim/latef.jpg,EF,2,4,,,,,0,55,55,59,,,,,,,,,,,,,,4,1,1.04963977113,,,,,,PLC_L_D2S1,P15,60.0142823894,02,B,2015_Feb_07_1420,Y,
stim/posf.jpg,stim/negf.jpg,stim/2.jpg,stim/6.jpg,stim/latef.jpg,AB,2,4,,,,,0,56,56,11,,,,,,,,,,,,,,4,1,0.899683695611,,,,,,PLC_L_D2S1,P15,60.0142823894,02,B,2015_Feb_07_1420,Y,
stim/posf.jpg,stim/negf.jpg,stim/3.jpg,stim/1.jpg,stim/latef.jpg,CD,2,4,,,,,0,57,57,30,,,,,,,,,,,,,,4,1,0.766359073992,,,,,,PLC_L_D2S1,P15,60.0142823894,02,B,2015_Feb_07_1420,Y,
stim/posf.jpg,stim/negf.jpg,stim/6.jpg,stim/2.jpg,stim/latef.jpg,AB,1,2,,,,,0,58,58,1,,,,,,,,,,,,,,2,1,1.06637964827,,,,,,PLC_L_D2S1,P15,60.0142823894,02,B,2015_Feb_07_1420,Y,
stim/posf.jpg,stim/negf.jpg,stim/3.jpg,stim/1.jpg,stim/latef.jpg,CD,2,4,,,,,0,59,59,32,,,,,,,,,,,,,,4,1,0.849710745032,,,,,,PLC_L_D2S1,P15,60.0142823894,02,B,2015_Feb_07_1420,Y,
,,,,,,,,,,,,,,,,,,,,,,,,,,,,,,,,0.9984375,1.0,1,0,0,PLC_L_D2S1,P15,60.0142823894,02,B,2015_Feb_07_1420,Y,
stim/posf.jpg,stim/negf.jpg,stim/5.jpg,stim/4.jpg,stim/latef.jpg,EF,1,2,,,,,,,,,0,0,0,40,,,,,,,,,,2,1,0.783069501733,,,,,,PLC_L_D2S1,P15,60.0142823894,02,B,2015_Feb_07_1420,Y,
stim/posf.jpg,stim/negf.jpg,stim/5.jpg,stim/4.jpg,stim/latef.jpg,EF,1,2,,,,,,,,,0,1,1,42,,,,,,,,,,2,1,0.549810891647,,,,,,PLC_L_D2S1,P15,60.0142823894,02,B,2015_Feb_07_1420,Y,
stim/posf.jpg,stim/negf.jpg,stim/2.jpg,stim/6.jpg,stim/latef.jpg,AB,2,4,,,,,,,,,0,2,2,16,,,,,,,,,,4,1,0.749752287577,,,,,,PLC_L_D2S1,P15,60.0142823894,02,B,2015_Feb_07_1420,Y,
stim/posf.jpg,stim/negf.jpg,stim/2.jpg,stim/6.jpg,stim/latef.jpg,AB,2,4,,,,,,,,,0,3,3,10,,,,,,,,,,4,1,0.683096812806,,,,,,PLC_L_D2S1,P15,60.0142823894,02,B,2015_Feb_07_1420,Y,
stim/posf.jpg,stim/negf.jpg,stim/3.jpg,stim/1.jpg,stim/latef.jpg,CD,2,4,,,,,,,,,0,4,4,35,,,,,,,,,,4,1,1.13297204983,,,,,,PLC_L_D2S1,P15,60.0142823894,02,B,2015_Feb_07_1420,Y,
stim/posf.jpg,stim/negf.jpg,stim/5.jpg,stim/4.jpg,stim/latef.jpg,EF,1,2,,,,,,,,,0,5,5,44,,,,,,,,,,2,1,0.616517265284,,,,,,PLC_L_D2S1,P15,60.0142823894,02,B,2015_Feb_07_1420,Y,
stim/posf.jpg,stim/negf.jpg,stim/2.jpg,stim/6.jpg,stim/latef.jpg,AB,2,4,,,,,,,,,0,6,6,17,,,,,,,,,,4,1,0.733084412899,,,,,,PLC_L_D2S1,P15,60.0142823894,02,B,2015_Feb_07_1420,Y,
stim/posf.jpg,stim/negf.jpg,stim/1.jpg,stim/3.jpg,stim/latef.jpg,CD,1,2,,,,,,,,,0,7,7,21,,,,,,,,,,2,1,0.86637214457,,,,,,PLC_L_D2S1,P15,60.0142823894,02,B,2015_Feb_07_1420,Y,
stim/negf.jpg,stim/posf.jpg,stim/6.jpg,stim/2.jpg,stim/latef.jpg,AB,1,2,,,,,,,,,0,8,8,8,,,,,,,,,,2,1,0.666496074466,,,,,,PLC_L_D2S1,P15,60.0142823894,02,B,2015_Feb_07_1420,Y,
stim/negf.jpg,stim/posf.jpg,stim/3.jpg,stim/1.jpg,stim/latef.jpg,CD,2,4,,,,,,,,,0,9,9,38,,,,,,,,,,4,1,0.783046319953,,,,,,PLC_L_D2S1,P15,60.0142823894,02,B,2015_Feb_07_1420,Y,
stim/posf.jpg,stim/negf.jpg,stim/5.jpg,stim/4.jpg,stim/latef.jpg,EF,1,2,,,,,,,,,0,10,10,45,,,,,,,,,,4,0,0.749721496831,,,,,,PLC_L_D2S1,P15,60.0142823894,02,B,2015_Feb_07_1420,Y,
stim/posf.jpg,stim/negf.jpg,stim/1.jpg,stim/3.jpg,stim/latef.jpg,CD,1,2,,,,,,,,,0,11,11,23,,,,,,,,,,2,1,0.733138349336,,,,,,PLC_L_D2S1,P15,60.0142823894,02,B,2015_Feb_07_1420,Y,
stim/negf.jpg,stim/posf.jpg,stim/4.jpg,stim/5.jpg,stim/latef.jpg,EF,2,4,,,,,,,,,0,12,12,56,,,,,,,,,,4,1,1.0330249547,,,,,,PLC_L_D2S1,P15,60.0142823894,02,B,2015_Feb_07_1420,Y,
stim/posf.jpg,stim/negf.jpg,stim/6.jpg,stim/2.jpg,stim/latef.jpg,AB,1,2,,,,,,,,,0,13,13,0,,,,,,,,,,2,1,0.899696618822,,,,,,PLC_L_D2S1,P15,60.0142823894,02,B,2015_Feb_07_1420,Y,
stim/posf.jpg,stim/negf.jpg,stim/4.jpg,stim/5.jpg,stim/latef.jpg,EF,2,4,,,,,,,,,0,14,14,52,,,,,,,,,,4,1,0.549791884272,,,,,,PLC_L_D2S1,P15,60.0142823894,02,B,2015_Feb_07_1420,Y,
stim/posf.jpg,stim/negf.jpg,stim/5.jpg,stim/4.jpg,stim/latef.jpg,EF,1,2,,,,,,,,,0,15,15,41,,,,,,,,,,2,1,0.999668041594,,,,,,PLC_L_D2S1,P15,60.0142823894,02,B,2015_Feb_07_1420,Y,
stim/posf.jpg,stim/negf.jpg,stim/3.jpg,stim/1.jpg,stim/latef.jpg,CD,2,4,,,,,,,,,0,16,16,31,,,,,,,,,,4,1,0.982980552026,,,,,,PLC_L_D2S1,P15,60.0142823894,02,B,2015_Feb_07_1420,Y,
stim/posf.jpg,stim/negf.jpg,stim/4.jpg,stim/5.jpg,stim/latef.jpg,EF,2,4,,,,,,,,,0,17,17,51,,,,,,,,,,4,1,1.19958325125,,,,,,PLC_L_D2S1,P15,60.0142823894,02,B,2015_Feb_07_1420,Y,
stim/posf.jpg,stim/negf.jpg,stim/6.jpg,stim/2.jpg,stim/latef.jpg,AB,1,2,,,,,,,,,0,18,18,4,,,,,,,,,,2,1,1.0663433087,,,,,,PLC_L_D2S1,P15,60.0142823894,02,B,2015_Feb_07_1420,Y,
stim/negf.jpg,stim/posf.jpg,stim/3.jpg,stim/1.jpg,stim/latef.jpg,CD,2,4,,,,,,,,,0,19,19,39,,,,,,,,,,4,1,1.06631999158,,,,,,PLC_L_D2S1,P15,60.0142823894,02,B,2015_Feb_07_1420,Y,
stim/posf.jpg,stim/negf.jpg,stim/4.jpg,stim/5.jpg,stim/latef.jpg,EF,2,4,,,,,,,,,0,20,20,55,,,,,,,,,,4,1,0.783067841595,,,,,,PLC_L_D2S1,P15,60.0142823894,02,B,2015_Feb_07_1420,Y,
stim/negf.jpg,stim/posf.jpg,stim/2.jpg,stim/6.jpg,stim/latef.jpg,AB,2,4,,,,,,,,,0,21,21,19,,,,,,,,,,4,1,0.766414505154,,,,,,PLC_L_D2S1,P15,60.0142823894,02,B,2015_Feb_07_1420,Y,
stim/negf.jpg,stim/posf.jpg,stim/5.jpg,stim/4.jpg,stim/latef.jpg,EF,1,2,,,,,,,,,0,22,22,49,,,,,,,,,,2,1,0.566474769362,,,,,,PLC_L_D2S1,P15,60.0142823894,02,B,2015_Feb_07_1420,Y,
stim/negf.jpg,stim/posf.jpg,stim/5.jpg,stim/4.jpg,stim/latef.jpg,EF,1,2,,,,,,,,,0,23,23,46,,,,,,,,,,2,1,0.583116367546,,,,,,PLC_L_D2S1,P15,60.0142823894,02,B,2015_Feb_07_1420,Y,
stim/posf.jpg,stim/negf.jpg,stim/1.jpg,stim/3.jpg,stim/latef.jpg,CD,1,2,,,,,,,,,0,24,24,22,,,,,,,,,,2,1,0.633115606649,,,,,,PLC_L_D2S1,P15,60.0142823894,02,B,2015_Feb_07_1420,Y,
stim/posf.jpg,stim/negf.jpg,stim/2.jpg,stim/6.jpg,stim/latef.jpg,AB,2,4,,,,,,,,,0,25,25,15,,,,,,,,,,4,1,0.783098797754,,,,,,PLC_L_D2S1,P15,60.0142823894,02,B,2015_Feb_07_1420,Y,
stim/posf.jpg,stim/negf.jpg,stim/3.jpg,stim/1.jpg,stim/latef.jpg,CD,2,4,,,,,,,,,0,26,26,36,,,,,,,,,,4,1,0.799757704077,,,,,,PLC_L_D2S1,P15,60.0142823894,02,B,2015_Feb_07_1420,Y,
stim/posf.jpg,stim/negf.jpg,stim/3.jpg,stim/1.jpg,stim/latef.jpg,CD,2,4,,,,,,,,,0,27,27,30,,,,,,,,,,4,1,1.01632379606,,,,,,PLC_L_D2S1,P15,60.0142823894,02,B,2015_Feb_07_1420,Y,
stim/negf.jpg,stim/posf.jpg,stim/5.jpg,stim/4.jpg,stim/latef.jpg,EF,1,2,,,,,,,,,0,28,28,48,,,,,,,,,,2,1,0.666454856731,,,,,,PLC_L_D2S1,P15,60.0142823894,02,B,2015_Feb_07_1420,Y,
stim/posf.jpg,stim/negf.jpg,stim/2.jpg,stim/6.jpg,stim/latef.jpg,AB,2,4,,,,,,,,,0,29,29,12,,,,,,,,,,4,1,0.916377497914,,,,,,PLC_L_D2S1,P15,60.0142823894,02,B,2015_Feb_07_1420,Y,
stim/posf.jpg,stim/negf.jpg,stim/3.jpg,stim/1.jpg,stim/latef.jpg,CD,2,4,,,,,,,,,0,30,30,33,,,,,,,,,,4,1,0.89970406839,,,,,,PLC_L_D2S1,P15,60.0142823894,02,B,2015_Feb_07_1420,Y,
stim/negf.jpg,stim/posf.jpg,stim/1.jpg,stim/3.jpg,stim/latef.jpg,CD,1,2,,,,,,,,,0,31,31,27,,,,,,,,,,2,1,0.783059661206,,,,,,PLC_L_D2S1,P15,60.0142823894,02,B,2015_Feb_07_1420,Y,
stim/posf.jpg,stim/negf.jpg,stim/4.jpg,stim/5.jpg,stim/latef.jpg,EF,2,4,,,,,,,,,0,32,32,54,,,,,,,,,,4,1,0.583127675732,,,,,,PLC_L_D2S1,P15,60.0142823894,02,B,2015_Feb_07_1420,Y,
stim/negf.jpg,stim/posf.jpg,stim/4.jpg,stim/5.jpg,stim/latef.jpg,EF,2,4,,,,,,,,,0,33,33,58,,,,,,,,,,4,1,0.799732627574,,,,,,PLC_L_D2S1,P15,60.0142823894,02,B,2015_Feb_07_1420,Y,
stim/posf.jpg,stim/negf.jpg,stim/6.jpg,stim/2.jpg,stim/latef.jpg,AB,1,2,,,,,,,,,0,34,34,7,,,,,,,,,,2,1,0.733076812956,,,,,,PLC_L_D2S1,P15,60.0142823894,02,B,2015_Feb_07_1420,Y,
stim/posf.jpg,stim/negf.jpg,stim/1.jpg,stim/3.jpg,stim/latef.jpg,CD,1,2,,,,,,,,,0,35,35,20,,,,,,,,,,4,0,1.11636544988,,,,,,PLC_L_D2S1,P15,60.0142823894,02,B,2015_Feb_07_1420,Y,
stim/posf.jpg,stim/negf.jpg,stim/2.jpg,stim/6.jpg,stim/latef.jpg,AB,2,4,,,,,,,,,0,36,36,13,,,,,,,,,,4,1,0.933022750205,,,,,,PLC_L_D2S1,P15,60.0142823894,02,B,2015_Feb_07_1420,Y,
stim/posf.jpg,stim/negf.jpg,stim/6.jpg,stim/2.jpg,stim/latef.jpg,AB,1,2,,,,,,,,,0,37,37,6,,,,,,,,,,2,1,0.783041023752,,,,,,PLC_L_D2S1,P15,60.0142823894,02,B,2015_Feb_07_1420,Y,
stim/posf.jpg,stim/negf.jpg,stim/1.jpg,stim/3.jpg,stim/latef.jpg,CD,1,2,,,,,,,,,0,38,38,26,,,,,,,,,,2,1,0.733052034195,,,,,,PLC_L_D2S1,P15,60.0142823894,02,B,2015_Feb_07_1420,Y,
stim/posf.jpg,stim/negf.jpg,stim/6.jpg,stim/2.jpg,stim/latef.jpg,AB,1,2,,,,,,,,,0,39,39,1,,,,,,,,,,2,1,0.799739259103,,,,,,PLC_L_D2S1,P15,60.0142823894,02,B,2015_Feb_07_1420,Y,
stim/posf.jpg,stim/negf.jpg,stim/4.jpg,stim/5.jpg,stim/latef.jpg,EF,2,4,,,,,,,,,0,40,40,50,,,,,,,,,,4,1,0.516499415794,,,,,,PLC_L_D2S1,P15,60.0142823894,02,B,2015_Feb_07_1420,Y,
stim/posf.jpg,stim/negf.jpg,stim/3.jpg,stim/1.jpg,stim/latef.jpg,CD,2,4,,,,,,,,,0,41,41,32,,,,,,,,,,4,1,0.899706008226,,,,,,PLC_L_D2S1,P15,60.0142823894,02,B,2015_Feb_07_1420,Y,
stim/negf.jpg,stim/posf.jpg,stim/1.jpg,stim/3.jpg,stim/latef.jpg,CD,1,2,,,,,,,,,0,42,42,28,,,,,,,,,,2,1,0.833061856677,,,,,,PLC_L_D2S1,P15,60.0142823894,02,B,2015_Feb_07_1420,Y,
stim/posf.jpg,stim/negf.jpg,stim/6.jpg,stim/2.jpg,stim/latef.jpg,AB,1,2,,,,,,,,,0,43,43,2,,,,,,,,,,2,1,1.1329699085,,,,,,PLC_L_D2S1,P15,60.0142823894,02,B,2015_Feb_07_1420,Y,
stim/posf.jpg,stim/negf.jpg,stim/3.jpg,stim/1.jpg,stim/latef.jpg,CD,2,4,,,,,,,,,0,44,44,34,,,,,,,,,,4,1,0.899679707672,,,,,,PLC_L_D2S1,P15,60.0142823894,02,B,2015_Feb_07_1420,Y,
stim/posf.jpg,stim/negf.jpg,stim/4.jpg,stim/5.jpg,stim/latef.jpg,EF,2,4,,,,,,,,,0,45,45,53,,,,,,,,,,4,1,0.599795312817,,,,,,PLC_L_D2S1,P15,60.0142823894,02,B,2015_Feb_07_1420,Y,
stim/posf.jpg,stim/negf.jpg,stim/6.jpg,stim/2.jpg,stim/latef.jpg,AB,1,2,,,,,,,,,0,46,46,3,,,,,,,,,,2,1,0.599806476643,,,,,,PLC_L_D2S1,P15,60.0142823894,02,B,2015_Feb_07_1420,Y,
stim/posf.jpg,stim/negf.jpg,stim/2.jpg,stim/6.jpg,stim/latef.jpg,AB,2,4,,,,,,,,,0,47,47,14,,,,,,,,,,4,1,0.783079128728,,,,,,PLC_L_D2S1,P15,60.0142823894,02,B,2015_Feb_07_1420,Y,
stim/negf.jpg,stim/posf.jpg,stim/1.jpg,stim/3.jpg,stim/latef.jpg,CD,1,2,,,,,,,,,0,48,48,29,,,,,,,,,,2,1,0.816428093022,,,,,,PLC_L_D2S1,P15,60.0142823894,02,B,2015_Feb_07_1420,Y,
stim/posf.jpg,stim/negf.jpg,stim/6.jpg,stim/2.jpg,stim/latef.jpg,AB,1,2,,,,,,,,,0,49,49,5,,,,,,,,,,2,1,1.19960339546,,,,,,PLC_L_D2S1,P15,60.0142823894,02,B,2015_Feb_07_1420,Y,
stim/negf.jpg,stim/posf.jpg,stim/2.jpg,stim/6.jpg,stim/latef.jpg,AB,2,4,,,,,,,,,0,50,50,18,,,,,,,,,,4,1,0.799729409553,,,,,,PLC_L_D2S1,P15,60.0142823894,02,B,2015_Feb_07_1420,Y,
stim/negf.jpg,stim/posf.jpg,stim/5.jpg,stim/4.jpg,stim/latef.jpg,EF,1,2,,,,,,,,,0,51,51,47,,,,,,,,,,2,1,0.733032972684,,,,,,PLC_L_D2S1,P15,60.0142823894,02,B,2015_Feb_07_1420,Y,
stim/posf.jpg,stim/negf.jpg,stim/2.jpg,stim/6.jpg,stim/latef.jpg,AB,2,4,,,,,,,,,0,52,52,11,,,,,,,,,,4,1,0.833034458388,,,,,,PLC_L_D2S1,P15,60.0142823894,02,B,2015_Feb_07_1420,Y,
stim/posf.jpg,stim/negf.jpg,stim/5.jpg,stim/4.jpg,stim/latef.jpg,EF,1,2,,,,,,,,,0,53,53,43,,,,,,,,,,2,1,0.816407365358,,,,,,PLC_L_D2S1,P15,60.0142823894,02,B,2015_Feb_07_1420,Y,
stim/negf.jpg,stim/posf.jpg,stim/4.jpg,stim/5.jpg,stim/latef.jpg,EF,2,4,,,,,,,,,0,54,54,57,,,,,,,,,,4,1,0.566484880565,,,,,,PLC_L_D2S1,P15,60.0142823894,02,B,2015_Feb_07_1420,Y,
stim/posf.jpg,stim/negf.jpg,stim/1.jpg,stim/3.jpg,stim/latef.jpg,CD,1,2,,,,,,,,,0,55,55,24,,,,,,,,,,2,1,0.616448140991,,,,,,PLC_L_D2S1,P15,60.0142823894,02,B,2015_Feb_07_1420,Y,
stim/negf.jpg,stim/posf.jpg,stim/3.jpg,stim/1.jpg,stim/latef.jpg,CD,2,4,,,,,,,,,0,56,56,37,,,,,,,,,,4,1,0.983004578913,,,,,,PLC_L_D2S1,P15,60.0142823894,02,B,2015_Feb_07_1420,Y,
stim/negf.jpg,stim/posf.jpg,stim/4.jpg,stim/5.jpg,stim/latef.jpg,EF,2,4,,,,,,,,,0,57,57,59,,,,,,,,,,4,1,0.666449109405,,,,,,PLC_L_D2S1,P15,60.0142823894,02,B,2015_Feb_07_1420,Y,
stim/negf.jpg,stim/posf.jpg,stim/6.jpg,stim/2.jpg,stim/latef.jpg,AB,1,2,,,,,,,,,0,58,58,9,,,,,,,,,,2,1,0.683097245885,,,,,,PLC_L_D2S1,P15,60.0142823894,02,B,2015_Feb_07_1420,Y,
stim/posf.jpg,stim/negf.jpg,stim/1.jpg,stim/3.jpg,stim/latef.jpg,CD,1,2,,,,,,,,,0,59,59,25,,,,,,,,,,2,1,0.766429527598,,,,,,PLC_L_D2S1,P15,60.0142823894,02,B,2015_Feb_07_1420,Y,
,,,,,,,,,,,,,,,,,,,,,,,,,,,,,,,,0.9984375,1.0,1,0,0,PLC_L_D2S1,P15,60.0142823894,02,B,2015_Feb_07_1420,Y,
stim/posf.jpg,stim/negf.jpg,stim/6.jpg,stim/2.jpg,stim/latef.jpg,AB,1,2,,,,,,,,,,,,,0,0,0,1,,,,,,2,1,1.04966651679,,,,,,PLC_L_D2S1,P15,60.0142823894,02,B,2015_Feb_07_1420,Y,
stim/posf.jpg,stim/negf.jpg,stim/3.jpg,stim/1.jpg,stim/latef.jpg,CD,2,4,,,,,,,,,,,,,0,1,1,32,,,,,,4,1,0.966329008053,,,,,,PLC_L_D2S1,P15,60.0142823894,02,B,2015_Feb_07_1420,Y,
stim/posf.jpg,stim/negf.jpg,stim/2.jpg,stim/6.jpg,stim/latef.jpg,AB,2,4,,,,,,,,,,,,,0,2,2,17,,,,,,4,1,1.11631597958,,,,,,PLC_L_D2S1,P15,60.0142823894,02,B,2015_Feb_07_1420,Y,
stim/negf.jpg,stim/posf.jpg,stim/5.jpg,stim/4.jpg,stim/latef.jpg,EF,1,2,,,,,,,,,,,,,0,3,3,47,,,,,,2,1,0.699755033421,,,,,,PLC_L_D2S1,P15,60.0142823894,02,B,2015_Feb_07_1420,Y,
stim/posf.jpg,stim/negf.jpg,stim/5.jpg,stim/4.jpg,stim/latef.jpg,EF,1,2,,,,,,,,,,,,,0,4,4,44,,,,,,2,1,1.04967541898,,,,,,PLC_L_D2S1,P15,60.0142823894,02,B,2015_Feb_07_1420,Y,
stim/negf.jpg,stim/posf.jpg,stim/6.jpg,stim/2.jpg,stim/latef.jpg,AB,1,2,,,,,,,,,,,,,0,5,5,8,,,,,,2,1,0.899700976684,,,,,,PLC_L_D2S1,P15,60.0142823894,02,B,2015_Feb_07_1420,Y,
stim/posf.jpg,stim/negf.jpg,stim/6.jpg,stim/2.jpg,stim/latef.jpg,AB,1,2,,,,,,,,,,,,,0,6,6,2,,,,,,2,1,0.64977591146,,,,,,PLC_L_D2S1,P15,60.0142823894,02,B,2015_Feb_07_1420,Y,
stim/posf.jpg,stim/negf.jpg,stim/3.jpg,stim/1.jpg,stim/latef.jpg,CD,2,4,,,,,,,,,,,,,0,7,7,33,,,,,,2,0,0.999679238502,,,,,,PLC_L_D2S1,P15,60.0142823894,02,B,2015_Feb_07_1420,Y,
stim/posf.jpg,stim/negf.jpg,stim/4.jpg,stim/5.jpg,stim/latef.jpg,EF,2,4,,,,,,,,,,,,,0,8,8,55,,,,,,4,1,0.88308018436,,,,,,PLC_L_D2S1,P15,60.0142823894,02,B,2015_Feb_07_1420,Y,
stim/posf.jpg,stim/negf.jpg,stim/1.jpg,stim/3.jpg,stim/latef.jpg,CD,1,2,,,,,,,,,,,,,0,9,9,20,,,,,,2,1,0.982996735363,,,,,,PLC_L_D2S1,P15,60.0142823894,02,B,2015_Feb_07_1420,Y,
stim/posf.jpg,stim/negf.jpg,stim/6.jpg,stim/2.jpg,stim/latef.jpg,AB,1,2,,,,,,,,,,,,,0,10,10,4,,,,,,2,1,0.766422111112,,,,,,PLC_L_D2S1,P15,60.0142823894,02,B,2015_Feb_07_1420,Y,
stim/negf.jpg,stim/posf.jpg,stim/1.jpg,stim/3.jpg,stim/latef.jpg,CD,1,2,,,,,,,,,,,,,0,11,11,28,,,,,,2,1,0.866357816858,,,,,,PLC_L_D2S1,P15,60.0142823894,02,B,2015_Feb_07_1420,Y,
stim/negf.jpg,stim/posf.jpg,stim/3.jpg,stim/1.jpg,stim/latef.jpg,CD,2,4,,,,,,,,,,,,,0,12,12,38,,,,,,2,0,0.699760624356,,,,,,PLC_L_D2S1,P15,60.0142823894,02,B,2015_Feb_07_1420,Y,
stim/posf.jpg,stim/negf.jpg,stim/4.jpg,stim/5.jpg,stim/latef.jpg,EF,2,4,,,,,,,,,,,,,0,13,13,53,,,,,,4,1,0.866383750498,,,,,,PLC_L_D2S1,P15,60.0142823894,02,B,2015_Feb_07_1420,Y,
stim/posf.jpg,stim/negf.jpg,stim/3.jpg,stim/1.jpg,stim/latef.jpg,CD,2,4,,,,,,,,,,,,,0,14,14,30,,,,,,4,1,0.766396496267,,,,,,PLC_L_D2S1,P15,60.0142823894,02,B,2015_Feb_07_1420,Y,
stim/negf.jpg,stim/posf.jpg,stim/2.jpg,stim/6.jpg,stim/latef.jpg,AB,2,4,,,,,,,,,,,,,0,15,15,18,,,,,,4,1,0.883012145773,,,,,,PLC_L_D2S1,P15,60.0142823894,02,B,2015_Feb_07_1420,Y,
stim/posf.jpg,stim/negf.jpg,stim/6.jpg,stim/2.jpg,stim/latef.jpg,AB,1,2,,,,,,,,,,,,,0,16,16,7,,,,,,2,1,1.09963740724,,,,,,PLC_L_D2S1,P15,60.0142823894,02,B,2015_Feb_07_1420,Y,
stim/posf.jpg,stim/negf.jpg,stim/3.jpg,stim/1.jpg,stim/latef.jpg,CD,2,4,,,,,,,,,,,,,0,17,17,31,,,,,,4,1,0.749734774927,,,,,,PLC_L_D2S1,P15,60.0142823894,02,B,2015_Feb_07_1420,Y,
stim/negf.jpg,stim/posf.jpg,stim/1.jpg,stim/3.jpg,stim/latef.jpg,CD,1,2,,,,,,,,,,,,,0,18,18,29,,,,,,2,1,0.883051023676,,,,,,PLC_L_D2S1,P15,60.0142823894,02,B,2015_Feb_07_1420,Y,
stim/posf.jpg,stim/negf.jpg,stim/5.jpg,stim/4.jpg,stim/latef.jpg,EF,1,2,,,,,,,,,,,,,0,19,19,40,,,,,,2,1,0.833077582875,,,,,,PLC_L_D2S1,P15,60.0142823894,02,B,2015_Feb_07_1420,Y,
stim/negf.jpg,stim/posf.jpg,stim/4.jpg,stim/5.jpg,stim/latef.jpg,EF,2,4,,,,,,,,,,,,,0,20,20,56,,,,,,2,0,0.899697734604,,,,,,PLC_L_D2S1,P15,60.0142823894,02,B,2015_Feb_07_1420,Y,
stim/negf.jpg,stim/posf.jpg,stim/5.jpg,stim/4.jpg,stim/latef.jpg,EF,1,2,,,,,,,,,,,,,0,21,21,49,,,,,,2,1,0.533149967293,,,,,,PLC_L_D2S1,P15,60.0142823894,02,B,2015_Feb_07_1420,Y,
stim/negf.jpg,stim/posf.jpg,stim/4.jpg,stim/5.jpg,stim/latef.jpg,EF,2,4,,,,,,,,,,,,,0,22,22,59,,,,,,4,1,0.683116262284,,,,,,PLC_L_D2S1,P15,60.0142823894,02,B,2015_Feb_07_1420,Y,
stim/posf.jpg,stim/negf.jpg,stim/5.jpg,stim/4.jpg,stim/latef.jpg,EF,1,2,,,,,,,,,,,,,0,23,23,41,,,,,,2,1,0.749717205134,,,,,,PLC_L_D2S1,P15,60.0142823894,02,B,2015_Feb_07_1420,Y,
stim/posf.jpg,stim/negf.jpg,stim/2.jpg,stim/6.jpg,stim/latef.jpg,AB,2,4,,,,,,,,,,,,,0,24,24,14,,,,,,4,1,1.01629490004,,,,,,PLC_L_D2S1,P15,60.0142823894,02,B,2015_Feb_07_1420,Y,
stim/negf.jpg,stim/posf.jpg,stim/4.jpg,stim/5.jpg,stim/latef.jpg,EF,2,4,,,,,,,,,,,,,0,25,25,58,,,,,,4,1,0.949614553274,,,,,,PLC_L_D2S1,P15,60.0142823894,02,B,2015_Feb_07_1420,Y,
stim/posf.jpg,stim/negf.jpg,stim/6.jpg,stim/2.jpg,stim/latef.jpg,AB,1,2,,,,,,,,,,,,,0,26,26,5,,,,,,2,1,0.899698979707,,,,,,PLC_L_D2S1,P15,60.0142823894,02,B,2015_Feb_07_1420,Y,
stim/posf.jpg,stim/negf.jpg,stim/1.jpg,stim/3.jpg,stim/latef.jpg,CD,1,2,,,,,,,,,,,,,0,27,27,23,,,,,,2,1,1.21625764618,,,,,,PLC_L_D2S1,P15,60.0142823894,02,B,2015_Feb_07_1420,Y,
stim/posf.jpg,stim/negf.jpg,stim/1.jpg,stim/3.jpg,stim/latef.jpg,CD,1,2,,,,,,,,,,,,,0,28,28,22,,,,,,2,1,0.933040013233,,,,,,PLC_L_D2S1,P15,60.0142823894,02,B,2015_Feb_07_1420,Y,
stim/posf.jpg,stim/negf.jpg,stim/2.jpg,stim/6.jpg,stim/latef.jpg,AB,2,4,,,,,,,,,,,,,0,29,29,10,,,,,,2,0,1.03292346373,,,,,,PLC_L_D2S1,P15,60.0142823894,02,B,2015_Feb_07_1420,Y,
stim/negf.jpg,stim/posf.jpg,stim/3.jpg,stim/1.jpg,stim/latef.jpg,CD,2,4,,,,,,,,,,,,,0,30,30,37,,,,,,2,0,1.51618556552,,,,,,PLC_L_D2S1,P15,60.0142823894,02,B,2015_Feb_07_1420,Y,
stim/posf.jpg,stim/negf.jpg,stim/1.jpg,stim/3.jpg,stim/latef.jpg,CD,1,2,,,,,,,,,,,,,0,31,31,26,,,,,,2,1,0.733081513673,,,,,,PLC_L_D2S1,P15,60.0142823894,02,B,2015_Feb_07_1420,Y,
stim/posf.jpg,stim/negf.jpg,stim/2.jpg,stim/6.jpg,stim/latef.jpg,AB,2,4,,,,,,,,,,,,,0,32,32,12,,,,,,4,1,1.03295473267,,,,,,PLC_L_D2S1,P15,60.0142823894,02,B,2015_Feb_07_1420,Y,
stim/negf.jpg,stim/posf.jpg,stim/5.jpg,stim/4.jpg,stim/latef.jpg,EF,1,2,,,,,,,,,,,,,0,33,33,46,,,,,,2,1,0.566471178412,,,,,,PLC_L_D2S1,P15,60.0142823894,02,B,2015_Feb_07_1420,Y,
stim/posf.jpg,stim/negf.jpg,stim/1.jpg,stim/3.jpg,stim/latef.jpg,CD,1,2,,,,,,,,,,,,,0,34,34,21,,,,,,2,1,0.949699259404,,,,,,PLC_L_D2S1,P15,60.0142823894,02,B,2015_Feb_07_1420,Y,
stim/posf.jpg,stim/negf.jpg,stim/4.jpg,stim/5.jpg,stim/latef.jpg,EF,2,4,,,,,,,,,,,,,0,35,35,52,,,,,,4,1,0.516489229405,,,,,,PLC_L_D2S1,P15,60.0142823894,02,B,2015_Feb_07_1420,Y,
stim/posf.jpg,stim/negf.jpg,stim/1.jpg,stim/3.jpg,stim/latef.jpg,CD,1,2,,,,,,,,,,,,,0,36,36,24,,,,,,2,1,0.816385961008,,,,,,PLC_L_D2S1,P15,60.0142823894,02,B,2015_Feb_07_1420,Y,
stim/posf.jpg,stim/negf.jpg,stim/5.jpg,stim/4.jpg,stim/latef.jpg,EF,1,2,,,,,,,,,,,,,0,37,37,43,,,,,,2,1,0.549719196096,,,,,,PLC_L_D2S1,P15,60.0142823894,02,B,2015_Feb_07_1420,Y,
stim/posf.jpg,stim/negf.jpg,stim/3.jpg,stim/1.jpg,stim/latef.jpg,CD,2,4,,,,,,,,,,,,,0,38,38,36,,,,,,4,1,1.41620354133,,,,,,PLC_L_D2S1,P15,60.0142823894,02,B,2015_Feb_07_1420,Y,
stim/posf.jpg,stim/negf.jpg,stim/5.jpg,stim/4.jpg,stim/latef.jpg,EF,1,2,,,,,,,,,,,,,0,39,39,42,,,,,,2,1,0.533160048421,,,,,,PLC_L_D2S1,P15,60.0142823894,02,B,2015_Feb_07_1420,Y,
stim/posf.jpg,stim/negf.jpg,stim/4.jpg,stim/5.jpg,stim/latef.jpg,EF,2,4,,,,,,,,,,,,,0,40,40,51,,,,,,4,1,1.01632942008,,,,,,PLC_L_D2S1,P15,60.0142823894,02,B,2015_Feb_07_1420,Y,
stim/posf.jpg,stim/negf.jpg,stim/4.jpg,stim/5.jpg,stim/latef.jpg,EF,2,4,,,,,,,,,,,,,0,41,41,54,,,,,,4,1,0.699778019714,,,,,,PLC_L_D2S1,P15,60.0142823894,02,B,2015_Feb_07_1420,Y,
stim/negf.jpg,stim/posf.jpg,stim/1.jpg,stim/3.jpg,stim/latef.jpg,CD,1,2,,,,,,,,,,,,,0,42,42,27,,,,,,2,1,1.01633987414,,,,,,PLC_L_D2S1,P15,60.0142823894,02,B,2015_Feb_07_1420,Y,
stim/posf.jpg,stim/negf.jpg,stim/2.jpg,stim/6.jpg,stim/latef.jpg,AB,2,4,,,,,,,,,,,,,0,43,43,13,,,,,,4,1,0.749748350765,,,,,,PLC_L_D2S1,P15,60.0142823894,02,B,2015_Feb_07_1420,Y,
stim/posf.jpg,stim/negf.jpg,stim/3.jpg,stim/1.jpg,stim/latef.jpg,CD,2,4,,,,,,,,,,,,,0,44,44,34,,,,,,2,0,0.833055688303,,,,,,PLC_L_D2S1,P15,60.0142823894,02,B,2015_Feb_07_1420,Y,
stim/posf.jpg,stim/negf.jpg,stim/2.jpg,stim/6.jpg,stim/latef.jpg,AB,2,4,,,,,,,,,,,,,0,45,45,11,,,,,,4,1,0.816386983557,,,,,,PLC_L_D2S1,P15,60.0142823894,02,B,2015_Feb_07_1420,Y,
stim/negf.jpg,stim/posf.jpg,stim/5.jpg,stim/4.jpg,stim/latef.jpg,EF,1,2,,,,,,,,,,,,,0,46,46,48,,,,,,2,1,0.816406793934,,,,,,PLC_L_D2S1,P15,60.0142823894,02,B,2015_Feb_07_1420,Y,
stim/negf.jpg,stim/posf.jpg,stim/2.jpg,stim/6.jpg,stim/latef.jpg,AB,2,4,,,,,,,,,,,,,0,47,47,19,,,,,,4,1,0.733090590296,,,,,,PLC_L_D2S1,P15,60.0142823894,02,B,2015_Feb_07_1420,Y,
stim/posf.jpg,stim/negf.jpg,stim/3.jpg,stim/1.jpg,stim/latef.jpg,CD,2,4,,,,,,,,,,,,,0,48,48,35,,,,,,4,1,0.916311868332,,,,,,PLC_L_D2S1,P15,60.0142823894,02,B,2015_Feb_07_1420,Y,
stim/posf.jpg,stim/negf.jpg,stim/6.jpg,stim/2.jpg,stim/latef.jpg,AB,1,2,,,,,,,,,,,,,0,49,49,6,,,,,,2,1,0.983024082525,,,,,,PLC_L_D2S1,P15,60.0142823894,02,B,2015_Feb_07_1420,Y,
stim/negf.jpg,stim/posf.jpg,stim/4.jpg,stim/5.jpg,stim/latef.jpg,EF,2,4,,,,,,,,,,,,,0,50,50,57,,,,,,4,1,0.633129314817,,,,,,PLC_L_D2S1,P15,60.0142823894,02,B,2015_Feb_07_1420,Y,
stim/posf.jpg,stim/negf.jpg,stim/4.jpg,stim/5.jpg,stim/latef.jpg,EF,2,4,,,,,,,,,,,,,0,51,51,50,,,,,,2,0,0.733034326057,,,,,,PLC_L_D2S1,P15,60.0142823894,02,B,2015_Feb_07_1420,Y,
stim/negf.jpg,stim/posf.jpg,stim/3.jpg,stim/1.jpg,stim/latef.jpg,CD,2,4,,,,,,,,,,,,,0,52,52,39,,,,,,4,1,0.699689569251,,,,,,PLC_L_D2S1,P15,60.0142823894,02,B,2015_Feb_07_1420,Y,
stim/posf.jpg,stim/negf.jpg,stim/1.jpg,stim/3.jpg,stim/latef.jpg,CD,1,2,,,,,,,,,,,,,0,53,53,25,,,,,,2,1,1.13295627552,,,,,,PLC_L_D2S1,P15,60.0142823894,02,B,2015_Feb_07_1420,Y,
stim/posf.jpg,stim/negf.jpg,stim/6.jpg,stim/2.jpg,stim/latef.jpg,AB,1,2,,,,,,,,,,,,,0,54,54,3,,,,,,2,1,1.13298895196,,,,,,PLC_L_D2S1,P15,60.0142823894,02,B,2015_Feb_07_1420,Y,
stim/posf.jpg,stim/negf.jpg,stim/6.jpg,stim/2.jpg,stim/latef.jpg,AB,1,2,,,,,,,,,,,,,0,55,55,0,,,,,,2,1,1.14962252013,,,,,,PLC_L_D2S1,P15,60.0142823894,02,B,2015_Feb_07_1420,Y,
stim/negf.jpg,stim/posf.jpg,stim/6.jpg,stim/2.jpg,stim/latef.jpg,AB,1,2,,,,,,,,,,,,,0,56,56,9,,,,,,4,0,1.04960546763,,,,,,PLC_L_D2S1,P15,60.0142823894,02,B,2015_Feb_07_1420,Y,
stim/posf.jpg,stim/negf.jpg,stim/5.jpg,stim/4.jpg,stim/latef.jpg,EF,1,2,,,,,,,,,,,,,0,57,57,45,,,,,,2,1,0.949673761851,,,,,,PLC_L_D2S1,P15,60.0142823894,02,B,2015_Feb_07_1420,Y,
stim/posf.jpg,stim/negf.jpg,stim/2.jpg,stim/6.jpg,stim/latef.jpg,AB,2,4,,,,,,,,,,,,,0,58,58,15,,,,,,4,1,1.06630936008,,,,,,PLC_L_D2S1,P15,60.0142823894,02,B,2015_Feb_07_1420,Y,
stim/posf.jpg,stim/negf.jpg,stim/2.jpg,stim/6.jpg,stim/latef.jpg,AB,2,4,,,,,,,,,,,,,0,59,59,16,,,,,,4,1,0.949676086646,,,,,,PLC_L_D2S1,P15,60.0142823894,02,B,2015_Feb_07_1420,Y,
