fb_corr,fb_incorr,symbol2,symbol1,fb_late,pair,position,correct,block_01.thisRepN,block_01.thisTrialN,block_01.thisN,block_01.thisIndex,block_02.thisRepN,block_02.thisTrialN,block_02.thisN,block_02.thisIndex,block_03.thisRepN,block_03.thisTrialN,block_03.thisN,block_03.thisIndex,block_04.thisRepN,block_04.thisTrialN,block_04.thisN,block_04.thisIndex,mouse.x,mouse.y,mouse.leftButton,mouse.midButton,mouse.rightButton,buttonBox_2.keys,buttonBox_2.corr,buttonBox_2.rt,mouse_2.x,mouse_2.y,mouse_2.leftButton,mouse_2.midButton,mouse_2.rightButton,expName,Participant,frameRate,SessionNumber,Version,date,Group,
,,,,,,,,,,,,,,,,,,,,,,,,0.9984375,1.0,1,0,0,,,,,,,,,PLC_L_D2S1,P1,60.015920555,02,A,2014_Nov_29_1413,Y,
stim/negf.jpg,stim/posf.jpg,stim/2.jpg,stim/1.jpg,stim/latef.jpg,EF,2,4,0,0,0,58,,,,,,,,,,,,,,,,,,4,1,0.799759344068,,,,,,PLC_L_D2S1,P1,60.015920555,02,A,2014_Nov_29_1413,Y,
stim/posf.jpg,stim/negf.jpg,stim/3.jpg,stim/5.jpg,stim/latef.jpg,AB,1,2,0,1,1,5,,,,,,,,,,,,,,,,,,2,1,0.899703958226,,,,,,PLC_L_D2S1,P1,60.015920555,02,A,2014_Nov_29_1413,Y,
stim/posf.jpg,stim/negf.jpg,stim/2.jpg,stim/1.jpg,stim/latef.jpg,EF,2,4,0,2,2,53,,,,,,,,,,,,,,,,,,2,0,1.09964665361,,,,,,PLC_L_D2S1,P1,60.015920555,02,A,2014_Nov_29_1413,Y,
stim/posf.jpg,stim/negf.jpg,stim/6.jpg,stim/4.jpg,stim/latef.jpg,CD,2,4,0,3,3,36,,,,,,,,,,,,,,,,,,4,1,1.13289910565,,,,,,PLC_L_D2S1,P1,60.015920555,02,A,2014_Nov_29_1413,Y,
stim/posf.jpg,stim/negf.jpg,stim/6.jpg,stim/4.jpg,stim/latef.jpg,CD,2,4,0,4,4,33,,,,,,,,,,,,,,,,,,4,1,1.01635558095,,,,,,PLC_L_D2S1,P1,60.015920555,02,A,2014_Nov_29_1413,Y,
stim/negf.jpg,stim/posf.jpg,stim/2.jpg,stim/1.jpg,stim/latef.jpg,EF,2,4,0,5,5,56,,,,,,,,,,,,,,,,,,4,1,1.0163332203,,,,,,PLC_L_D2S1,P1,60.015920555,02,A,2014_Nov_29_1413,Y,
stim/negf.jpg,stim/posf.jpg,stim/1.jpg,stim/2.jpg,stim/latef.jpg,EF,1,2,0,6,6,48,,,,,,,,,,,,,,,,,,2,1,1.19961182693,,,,,,PLC_L_D2S1,P1,60.015920555,02,A,2014_Nov_29_1413,Y,
stim/posf.jpg,stim/negf.jpg,stim/5.jpg,stim/3.jpg,stim/latef.jpg,AB,2,4,0,7,7,12,,,,,,,,,,,,,,,,,,4,1,1.09964122209,,,,,,PLC_L_D2S1,P1,60.015920555,02,A,2014_Nov_29_1413,Y,
stim/posf.jpg,stim/negf.jpg,stim/1.jpg,stim/2.jpg,stim/latef.jpg,EF,1,2,0,8,8,41,,,,,,,,,,,,,,,,,,2,1,1.11628700127,,,,,,PLC_L_D2S1,P1,60.015920555,02,A,2014_Nov_29_1413,Y,
stim/negf.jpg,stim/posf.jpg,stim/6.jpg,stim/4.jpg,stim/latef.jpg,CD,2,4,0,9,9,39,,,,,,,,,,,,,,,,,,4,1,1.03296615151,,,,,,PLC_L_D2S1,P1,60.015920555,02,A,2014_Nov_29_1413,Y,
stim/posf.jpg,stim/negf.jpg,stim/6.jpg,stim/4.jpg,stim/latef.jpg,CD,2,4,0,10,10,32,,,,,,,,,,,,,,,,,,2,0,1.06627407962,,,,,,PLC_L_D2S1,P1,60.015920555,02,A,2014_Nov_29_1413,Y,
stim/negf.jpg,stim/posf.jpg,stim/6.jpg,stim/4.jpg,stim/latef.jpg,CD,2,4,0,11,11,37,,,,,,,,,,,,,,,,,,4,1,1.14966639023,,,,,,PLC_L_D2S1,P1,60.015920555,02,A,2014_Nov_29_1413,Y,
stim/posf.jpg,stim/negf.jpg,stim/6.jpg,stim/4.jpg,stim/latef.jpg,CD,2,4,0,12,12,31,,,,,,,,,,,,,,,,,,2,0,0.916370239433,,,,,,PLC_L_D2S1,P1,60.015920555,02,A,2014_Nov_29_1413,Y,
stim/posf.jpg,stim/negf.jpg,stim/6.jpg,stim/4.jpg,stim/latef.jpg,CD,2,4,0,13,13,30,,,,,,,,,,,,,,,,,,2,0,1.04961001192,,,,,,PLC_L_D2S1,P1,60.015920555,02,A,2014_Nov_29_1413,Y,
stim/negf.jpg,stim/posf.jpg,stim/3.jpg,stim/5.jpg,stim/latef.jpg,AB,1,2,0,14,14,9,,,,,,,,,,,,,,,,,,2,1,0.833040162705,,,,,,PLC_L_D2S1,P1,60.015920555,02,A,2014_Nov_29_1413,Y,
stim/negf.jpg,stim/posf.jpg,stim/1.jpg,stim/2.jpg,stim/latef.jpg,EF,1,2,0,15,15,46,,,,,,,,,,,,,,,,,,2,1,0.899708451409,,,,,,PLC_L_D2S1,P1,60.015920555,02,A,2014_Nov_29_1413,Y,
stim/posf.jpg,stim/negf.jpg,stim/2.jpg,stim/1.jpg,stim/latef.jpg,EF,2,4,0,16,16,55,,,,,,,,,,,,,,,,,,4,1,0.749752693015,,,,,,PLC_L_D2S1,P1,60.015920555,02,A,2014_Nov_29_1413,Y,
stim/posf.jpg,stim/negf.jpg,stim/3.jpg,stim/5.jpg,stim/latef.jpg,AB,1,2,0,17,17,7,,,,,,,,,,,,,,,,,,2,1,0.766417133641,,,,,,PLC_L_D2S1,P1,60.015920555,02,A,2014_Nov_29_1413,Y,
stim/posf.jpg,stim/negf.jpg,stim/4.jpg,stim/6.jpg,stim/latef.jpg,CD,1,2,0,18,18,23,,,,,,,,,,,,,,,,,,4,0,1.04967499765,,,,,,PLC_L_D2S1,P1,60.015920555,02,A,2014_Nov_29_1413,Y,
stim/posf.jpg,stim/negf.jpg,stim/4.jpg,stim/6.jpg,stim/latef.jpg,CD,1,2,0,19,19,22,,,,,,,,,,,,,,,,,,2,1,0.99964453634,,,,,,PLC_L_D2S1,P1,60.015920555,02,A,2014_Nov_29_1413,Y,
stim/negf.jpg,stim/posf.jpg,stim/5.jpg,stim/3.jpg,stim/latef.jpg,AB,2,4,0,20,20,19,,,,,,,,,,,,,,,,,,4,1,1.04965994218,,,,,,PLC_L_D2S1,P1,60.015920555,02,A,2014_Nov_29_1413,Y,
stim/negf.jpg,stim/posf.jpg,stim/6.jpg,stim/4.jpg,stim/latef.jpg,CD,2,4,0,21,21,38,,,,,,,,,,,,,,,,,,4,1,0.716456190344,,,,,,PLC_L_D2S1,P1,60.015920555,02,A,2014_Nov_29_1413,Y,
stim/posf.jpg,stim/negf.jpg,stim/1.jpg,stim/2.jpg,stim/latef.jpg,EF,1,2,0,22,22,43,,,,,,,,,,,,,,,,,,2,1,0.599791921144,,,,,,PLC_L_D2S1,P1,60.015920555,02,A,2014_Nov_29_1413,Y,
stim/posf.jpg,stim/negf.jpg,stim/2.jpg,stim/1.jpg,stim/latef.jpg,EF,2,4,0,23,23,51,,,,,,,,,,,,,,,,,,4,1,0.649773558945,,,,,,PLC_L_D2S1,P1,60.015920555,02,A,2014_Nov_29_1413,Y,
stim/posf.jpg,stim/negf.jpg,stim/5.jpg,stim/3.jpg,stim/latef.jpg,AB,2,4,0,24,24,10,,,,,,,,,,,,,,,,,,4,1,0.766327318113,,,,,,PLC_L_D2S1,P1,60.015920555,02,A,2014_Nov_29_1413,Y,
stim/posf.jpg,stim/negf.jpg,stim/5.jpg,stim/3.jpg,stim/latef.jpg,AB,2,4,0,25,25,15,,,,,,,,,,,,,,,,,,4,1,1.08294809006,,,,,,PLC_L_D2S1,P1,60.015920555,02,A,2014_Nov_29_1413,Y,
stim/negf.jpg,stim/posf.jpg,stim/2.jpg,stim/1.jpg,stim/latef.jpg,EF,2,4,0,26,26,59,,,,,,,,,,,,,,,,,,4,1,0.999696379364,,,,,,PLC_L_D2S1,P1,60.015920555,02,A,2014_Nov_29_1413,Y,
stim/posf.jpg,stim/negf.jpg,stim/3.jpg,stim/5.jpg,stim/latef.jpg,AB,1,2,0,27,27,6,,,,,,,,,,,,,,,,,,2,1,0.749756172675,,,,,,PLC_L_D2S1,P1,60.015920555,02,A,2014_Nov_29_1413,Y,
stim/posf.jpg,stim/negf.jpg,stim/1.jpg,stim/2.jpg,stim/latef.jpg,EF,1,2,0,28,28,42,,,,,,,,,,,,,,,,,,4,0,1.03296423875,,,,,,PLC_L_D2S1,P1,60.015920555,02,A,2014_Nov_29_1413,Y,
stim/negf.jpg,stim/posf.jpg,stim/4.jpg,stim/6.jpg,stim/latef.jpg,CD,1,2,0,29,29,29,,,,,,,,,,,,,,,,,,2,1,0.999652608429,,,,,,PLC_L_D2S1,P1,60.015920555,02,A,2014_Nov_29_1413,Y,
stim/posf.jpg,stim/negf.jpg,stim/1.jpg,stim/2.jpg,stim/latef.jpg,EF,1,2,0,30,30,44,,,,,,,,,,,,,,,,,,2,1,0.966371642425,,,,,,PLC_L_D2S1,P1,60.015920555,02,A,2014_Nov_29_1413,Y,
stim/posf.jpg,stim/negf.jpg,stim/5.jpg,stim/3.jpg,stim/latef.jpg,AB,2,4,0,31,31,13,,,,,,,,,,,,,,,,,,4,1,0.733113385939,,,,,,PLC_L_D2S1,P1,60.015920555,02,A,2014_Nov_29_1413,Y,
stim/posf.jpg,stim/negf.jpg,stim/3.jpg,stim/5.jpg,stim/latef.jpg,AB,1,2,0,32,32,4,,,,,,,,,,,,,,,,,,2,1,0.833048950576,,,,,,PLC_L_D2S1,P1,60.015920555,02,A,2014_Nov_29_1413,Y,
stim/posf.jpg,stim/negf.jpg,stim/4.jpg,stim/6.jpg,stim/latef.jpg,CD,1,2,0,33,33,20,,,,,,,,,,,,,,,,,,2,1,0.699739939775,,,,,,PLC_L_D2S1,P1,60.015920555,02,A,2014_Nov_29_1413,Y,
stim/posf.jpg,stim/negf.jpg,stim/1.jpg,stim/2.jpg,stim/latef.jpg,EF,1,2,0,34,34,40,,,,,,,,,,,,,,,,,,2,1,1.01631024913,,,,,,PLC_L_D2S1,P1,60.015920555,02,A,2014_Nov_29_1413,Y,
stim/posf.jpg,stim/negf.jpg,stim/2.jpg,stim/1.jpg,stim/latef.jpg,EF,2,4,0,35,35,52,,,,,,,,,,,,,,,,,,4,1,0.699721552013,,,,,,PLC_L_D2S1,P1,60.015920555,02,A,2014_Nov_29_1413,Y,
stim/posf.jpg,stim/negf.jpg,stim/4.jpg,stim/6.jpg,stim/latef.jpg,CD,1,2,0,36,36,21,,,,,,,,,,,,,,,,,,2,1,0.766434913892,,,,,,PLC_L_D2S1,P1,60.015920555,02,A,2014_Nov_29_1413,Y,
stim/posf.jpg,stim/negf.jpg,stim/6.jpg,stim/4.jpg,stim/latef.jpg,CD,2,4,0,37,37,34,,,,,,,,,,,,,,,,,,2,0,0.916365770311,,,,,,PLC_L_D2S1,P1,60.015920555,02,A,2014_Nov_29_1413,Y,
stim/negf.jpg,stim/posf.jpg,stim/4.jpg,stim/6.jpg,stim/latef.jpg,CD,1,2,0,38,38,27,,,,,,,,,,,,,,,,,,2,1,1.01628240283,,,,,,PLC_L_D2S1,P1,60.015920555,02,A,2014_Nov_29_1413,Y,
stim/posf.jpg,stim/negf.jpg,stim/3.jpg,stim/5.jpg,stim/latef.jpg,AB,1,2,0,39,39,0,,,,,,,,,,,,,,,,,,2,1,0.982999665417,,,,,,PLC_L_D2S1,P1,60.015920555,02,A,2014_Nov_29_1413,Y,
stim/posf.jpg,stim/negf.jpg,stim/4.jpg,stim/6.jpg,stim/latef.jpg,CD,1,2,0,40,40,24,,,,,,,,,,,,,,,,,,2,1,0.983004453333,,,,,,PLC_L_D2S1,P1,60.015920555,02,A,2014_Nov_29_1413,Y,
stim/posf.jpg,stim/negf.jpg,stim/3.jpg,stim/5.jpg,stim/latef.jpg,AB,1,2,0,41,41,2,,,,,,,,,,,,,,,,,,2,1,0.766413957737,,,,,,PLC_L_D2S1,P1,60.015920555,02,A,2014_Nov_29_1413,Y,
stim/negf.jpg,stim/posf.jpg,stim/3.jpg,stim/5.jpg,stim/latef.jpg,AB,1,2,0,42,42,8,,,,,,,,,,,,,,,,,,2,1,0.816442770946,,,,,,PLC_L_D2S1,P1,60.015920555,02,A,2014_Nov_29_1413,Y,
stim/posf.jpg,stim/negf.jpg,stim/5.jpg,stim/3.jpg,stim/latef.jpg,AB,2,4,0,43,43,14,,,,,,,,,,,,,,,,,,4,1,0.882938760841,,,,,,PLC_L_D2S1,P1,60.015920555,02,A,2014_Nov_29_1413,Y,
stim/posf.jpg,stim/negf.jpg,stim/2.jpg,stim/1.jpg,stim/latef.jpg,EF,2,4,0,44,44,50,,,,,,,,,,,,,,,,,,4,1,0.966365010921,,,,,,PLC_L_D2S1,P1,60.015920555,02,A,2014_Nov_29_1413,Y,
stim/posf.jpg,stim/negf.jpg,stim/5.jpg,stim/3.jpg,stim/latef.jpg,AB,2,4,0,45,45,16,,,,,,,,,,,,,,,,,,4,1,0.833054436228,,,,,,PLC_L_D2S1,P1,60.015920555,02,A,2014_Nov_29_1413,Y,
stim/negf.jpg,stim/posf.jpg,stim/2.jpg,stim/1.jpg,stim/latef.jpg,EF,2,4,0,46,46,57,,,,,,,,,,,,,,,,,,4,1,0.933072201441,,,,,,PLC_L_D2S1,P1,60.015920555,02,A,2014_Nov_29_1413,Y,
stim/posf.jpg,stim/negf.jpg,stim/5.jpg,stim/3.jpg,stim/latef.jpg,AB,2,4,0,47,47,11,,,,,,,,,,,,,,,,,,4,1,0.916357430555,,,,,,PLC_L_D2S1,P1,60.015920555,02,A,2014_Nov_29_1413,Y,
stim/posf.jpg,stim/negf.jpg,stim/6.jpg,stim/4.jpg,stim/latef.jpg,CD,2,4,0,48,48,35,,,,,,,,,,,,,,,,,,4,1,1.03298182051,,,,,,PLC_L_D2S1,P1,60.015920555,02,A,2014_Nov_29_1413,Y,
stim/posf.jpg,stim/negf.jpg,stim/1.jpg,stim/2.jpg,stim/latef.jpg,EF,1,2,0,49,49,45,,,,,,,,,,,,,,,,,,2,1,0.799707792769,,,,,,PLC_L_D2S1,P1,60.015920555,02,A,2014_Nov_29_1413,Y,
stim/posf.jpg,stim/negf.jpg,stim/3.jpg,stim/5.jpg,stim/latef.jpg,AB,1,2,0,50,50,1,,,,,,,,,,,,,,,,,,2,1,0.73308198479,,,,,,PLC_L_D2S1,P1,60.015920555,02,A,2014_Nov_29_1413,Y,
stim/negf.jpg,stim/posf.jpg,stim/4.jpg,stim/6.jpg,stim/latef.jpg,CD,1,2,0,51,51,28,,,,,,,,,,,,,,,,,,2,1,0.816377679951,,,,,,PLC_L_D2S1,P1,60.015920555,02,A,2014_Nov_29_1413,Y,
stim/posf.jpg,stim/negf.jpg,stim/4.jpg,stim/6.jpg,stim/latef.jpg,CD,1,2,0,52,52,25,,,,,,,,,,,,,,,,,,2,1,0.999660388793,,,,,,PLC_L_D2S1,P1,60.015920555,02,A,2014_Nov_29_1413,Y,
stim/posf.jpg,stim/negf.jpg,stim/3.jpg,stim/5.jpg,stim/latef.jpg,AB,1,2,0,53,53,3,,,,,,,,,,,,,,,,,,2,1,0.733069602974,,,,,,PLC_L_D2S1,P1,60.015920555,02,A,2014_Nov_29_1413,Y,
stim/posf.jpg,stim/negf.jpg,stim/4.jpg,stim/6.jpg,stim/latef.jpg,CD,1,2,0,54,54,26,,,,,,,,,,,,,,,,,,2,1,0.999624858366,,,,,,PLC_L_D2S1,P1,60.015920555,02,A,2014_Nov_29_1413,Y,
stim/posf.jpg,stim/negf.jpg,stim/5.jpg,stim/3.jpg,stim/latef.jpg,AB,2,4,0,55,55,17,,,,,,,,,,,,,,,,,,4,1,0.633104567994,,,,,,PLC_L_D2S1,P1,60.015920555,02,A,2014_Nov_29_1413,Y,
stim/posf.jpg,stim/negf.jpg,stim/2.jpg,stim/1.jpg,stim/latef.jpg,EF,2,4,0,56,56,54,,,,,,,,,,,,,,,,,,4,1,0.766414300591,,,,,,PLC_L_D2S1,P1,60.015920555,02,A,2014_Nov_29_1413,Y,
stim/negf.jpg,stim/posf.jpg,stim/1.jpg,stim/2.jpg,stim/latef.jpg,EF,1,2,0,57,57,49,,,,,,,,,,,,,,,,,,2,1,0.683068551858,,,,,,PLC_L_D2S1,P1,60.015920555,02,A,2014_Nov_29_1413,Y,
stim/negf.jpg,stim/posf.jpg,stim/1.jpg,stim/2.jpg,stim/latef.jpg,EF,1,2,0,58,58,47,,,,,,,,,,,,,,,,,,2,1,1.01632298282,,,,,,PLC_L_D2S1,P1,60.015920555,02,A,2014_Nov_29_1413,Y,
stim/negf.jpg,stim/posf.jpg,stim/5.jpg,stim/3.jpg,stim/latef.jpg,AB,2,4,0,59,59,18,,,,,,,,,,,,,,,,,,4,1,0.816391084311,,,,,,PLC_L_D2S1,P1,60.015920555,02,A,2014_Nov_29_1413,Y,
,,,,,,,,,,,,,,,,,,,,,,,,,,,,,,,,0.9984375,1.0,1,0,0,PLC_L_D2S1,P1,60.015920555,02,A,2014_Nov_29_1413,Y,
stim/negf.jpg,stim/posf.jpg,stim/6.jpg,stim/4.jpg,stim/latef.jpg,CD,2,4,,,,,0,0,0,37,,,,,,,,,,,,,,4,1,0.949711866408,,,,,,PLC_L_D2S1,P1,60.015920555,02,A,2014_Nov_29_1413,Y,
stim/posf.jpg,stim/negf.jpg,stim/1.jpg,stim/2.jpg,stim/latef.jpg,EF,1,2,,,,,0,1,1,40,,,,,,,,,,,,,,2,1,0.849711866407,,,,,,PLC_L_D2S1,P1,60.015920555,02,A,2014_Nov_29_1413,Y,
stim/posf.jpg,stim/negf.jpg,stim/5.jpg,stim/3.jpg,stim/latef.jpg,AB,2,4,,,,,0,2,2,10,,,,,,,,,,,,,,4,1,0.566433620673,,,,,,PLC_L_D2S1,P1,60.015920555,02,A,2014_Nov_29_1413,Y,
stim/negf.jpg,stim/posf.jpg,stim/3.jpg,stim/5.jpg,stim/latef.jpg,AB,1,2,,,,,0,3,3,9,,,,,,,,,,,,,,2,1,0.599773981497,,,,,,PLC_L_D2S1,P1,60.015920555,02,A,2014_Nov_29_1413,Y,
stim/posf.jpg,stim/negf.jpg,stim/4.jpg,stim/6.jpg,stim/latef.jpg,CD,1,2,,,,,0,4,4,20,,,,,,,,,,,,,,2,1,0.949682387041,,,,,,PLC_L_D2S1,P1,60.015920555,02,A,2014_Nov_29_1413,Y,
stim/negf.jpg,stim/posf.jpg,stim/6.jpg,stim/4.jpg,stim/latef.jpg,CD,2,4,,,,,0,5,5,39,,,,,,,,,,,,,,4,1,0.783091234309,,,,,,PLC_L_D2S1,P1,60.015920555,02,A,2014_Nov_29_1413,Y,
stim/negf.jpg,stim/posf.jpg,stim/5.jpg,stim/3.jpg,stim/latef.jpg,AB,2,4,,,,,0,6,6,19,,,,,,,,,,,,,,4,1,0.849723415149,,,,,,PLC_L_D2S1,P1,60.015920555,02,A,2014_Nov_29_1413,Y,
stim/posf.jpg,stim/negf.jpg,stim/3.jpg,stim/5.jpg,stim/latef.jpg,AB,1,2,,,,,0,7,7,1,,,,,,,,,,,,,,2,1,0.649778422048,,,,,,PLC_L_D2S1,P1,60.015920555,02,A,2014_Nov_29_1413,Y,
stim/posf.jpg,stim/negf.jpg,stim/2.jpg,stim/1.jpg,stim/latef.jpg,EF,2,4,,,,,0,8,8,55,,,,,,,,,,,,,,4,1,0.599813337443,,,,,,PLC_L_D2S1,P1,60.015920555,02,A,2014_Nov_29_1413,Y,
stim/posf.jpg,stim/negf.jpg,stim/4.jpg,stim/6.jpg,stim/latef.jpg,CD,1,2,,,,,0,9,9,23,,,,,,,,,,,,,,2,1,0.666437635666,,,,,,PLC_L_D2S1,P1,60.015920555,02,A,2014_Nov_29_1413,Y,
stim/posf.jpg,stim/negf.jpg,stim/4.jpg,stim/6.jpg,stim/latef.jpg,CD,1,2,,,,,0,10,10,25,,,,,,,,,,,,,,2,1,0.649779874663,,,,,,PLC_L_D2S1,P1,60.015920555,02,A,2014_Nov_29_1413,Y,
stim/posf.jpg,stim/negf.jpg,stim/2.jpg,stim/1.jpg,stim/latef.jpg,EF,2,4,,,,,0,11,11,52,,,,,,,,,,,,,,4,1,0.766444679195,,,,,,PLC_L_D2S1,P1,60.015920555,02,A,2014_Nov_29_1413,Y,
stim/negf.jpg,stim/posf.jpg,stim/2.jpg,stim/1.jpg,stim/latef.jpg,EF,2,4,,,,,0,12,12,58,,,,,,,,,,,,,,4,1,0.766393569997,,,,,,PLC_L_D2S1,P1,60.015920555,02,A,2014_Nov_29_1413,Y,
stim/posf.jpg,stim/negf.jpg,stim/1.jpg,stim/2.jpg,stim/latef.jpg,EF,1,2,,,,,0,13,13,42,,,,,,,,,,,,,,2,1,0.683036425905,,,,,,PLC_L_D2S1,P1,60.015920555,02,A,2014_Nov_29_1413,Y,
stim/negf.jpg,stim/posf.jpg,stim/2.jpg,stim/1.jpg,stim/latef.jpg,EF,2,4,,,,,0,14,14,56,,,,,,,,,,,,,,4,1,0.716435760499,,,,,,PLC_L_D2S1,P1,60.015920555,02,A,2014_Nov_29_1413,Y,
stim/negf.jpg,stim/posf.jpg,stim/6.jpg,stim/4.jpg,stim/latef.jpg,CD,2,4,,,,,0,15,15,38,,,,,,,,,,,,,,4,1,0.916355364413,,,,,,PLC_L_D2S1,P1,60.015920555,02,A,2014_Nov_29_1413,Y,
stim/posf.jpg,stim/negf.jpg,stim/3.jpg,stim/5.jpg,stim/latef.jpg,AB,1,2,,,,,0,16,16,4,,,,,,,,,,,,,,2,1,0.68303699432,,,,,,PLC_L_D2S1,P1,60.015920555,02,A,2014_Nov_29_1413,Y,
stim/posf.jpg,stim/negf.jpg,stim/6.jpg,stim/4.jpg,stim/latef.jpg,CD,2,4,,,,,0,17,17,31,,,,,,,,,,,,,,2,0,0.799742914178,,,,,,PLC_L_D2S1,P1,60.015920555,02,A,2014_Nov_29_1413,Y,
stim/posf.jpg,stim/negf.jpg,stim/1.jpg,stim/2.jpg,stim/latef.jpg,EF,1,2,,,,,0,18,18,41,,,,,,,,,,,,,,2,1,0.816400115788,,,,,,PLC_L_D2S1,P1,60.015920555,02,A,2014_Nov_29_1413,Y,
stim/posf.jpg,stim/negf.jpg,stim/5.jpg,stim/3.jpg,stim/latef.jpg,AB,2,4,,,,,0,19,19,13,,,,,,,,,,,,,,4,1,0.66639596997,,,,,,PLC_L_D2S1,P1,60.015920555,02,A,2014_Nov_29_1413,Y,
stim/negf.jpg,stim/posf.jpg,stim/3.jpg,stim/5.jpg,stim/latef.jpg,AB,1,2,,,,,0,20,20,8,,,,,,,,,,,,,,2,1,0.616456076059,,,,,,PLC_L_D2S1,P1,60.015920555,02,A,2014_Nov_29_1413,Y,
stim/negf.jpg,stim/posf.jpg,stim/1.jpg,stim/2.jpg,stim/latef.jpg,EF,1,2,,,,,0,21,21,46,,,,,,,,,,,,,,2,1,0.949689556885,,,,,,PLC_L_D2S1,P1,60.015920555,02,A,2014_Nov_29_1413,Y,
stim/posf.jpg,stim/negf.jpg,stim/6.jpg,stim/4.jpg,stim/latef.jpg,CD,2,4,,,,,0,22,22,32,,,,,,,,,,,,,,4,1,0.633140757059,,,,,,PLC_L_D2S1,P1,60.015920555,02,A,2014_Nov_29_1413,Y,
stim/posf.jpg,stim/negf.jpg,stim/6.jpg,stim/4.jpg,stim/latef.jpg,CD,2,4,,,,,0,23,23,36,,,,,,,,,,,,,,2,0,0.466444026571,,,,,,PLC_L_D2S1,P1,60.015920555,02,A,2014_Nov_29_1413,Y,
stim/negf.jpg,stim/posf.jpg,stim/1.jpg,stim/2.jpg,stim/latef.jpg,EF,1,2,,,,,0,24,24,47,,,,,,,,,,,,,,2,1,0.766389482825,,,,,,PLC_L_D2S1,P1,60.015920555,02,A,2014_Nov_29_1413,Y,
stim/posf.jpg,stim/negf.jpg,stim/3.jpg,stim/5.jpg,stim/latef.jpg,AB,1,2,,,,,0,25,25,5,,,,,,,,,,,,,,2,1,0.633143274324,,,,,,PLC_L_D2S1,P1,60.015920555,02,A,2014_Nov_29_1413,Y,
stim/posf.jpg,stim/negf.jpg,stim/5.jpg,stim/3.jpg,stim/latef.jpg,AB,2,4,,,,,0,26,26,14,,,,,,,,,,,,,,4,1,0.5998395176,,,,,,PLC_L_D2S1,P1,60.015920555,02,A,2014_Nov_29_1413,Y,
stim/posf.jpg,stim/negf.jpg,stim/1.jpg,stim/2.jpg,stim/latef.jpg,EF,1,2,,,,,0,27,27,43,,,,,,,,,,,,,,2,1,0.649753471953,,,,,,PLC_L_D2S1,P1,60.015920555,02,A,2014_Nov_29_1413,Y,
stim/posf.jpg,stim/negf.jpg,stim/3.jpg,stim/5.jpg,stim/latef.jpg,AB,1,2,,,,,0,28,28,6,,,,,,,,,,,,,,2,1,0.633122694105,,,,,,PLC_L_D2S1,P1,60.015920555,02,A,2014_Nov_29_1413,Y,
stim/posf.jpg,stim/negf.jpg,stim/4.jpg,stim/6.jpg,stim/latef.jpg,CD,1,2,,,,,0,29,29,26,,,,,,,,,,,,,,2,1,0.833102465762,,,,,,PLC_L_D2S1,P1,60.015920555,02,A,2014_Nov_29_1413,Y,
stim/posf.jpg,stim/negf.jpg,stim/3.jpg,stim/5.jpg,stim/latef.jpg,AB,1,2,,,,,0,30,30,3,,,,,,,,,,,,,,2,1,0.549797411307,,,,,,PLC_L_D2S1,P1,60.015920555,02,A,2014_Nov_29_1413,Y,
stim/posf.jpg,stim/negf.jpg,stim/4.jpg,stim/6.jpg,stim/latef.jpg,CD,1,2,,,,,0,31,31,22,,,,,,,,,,,,,,2,1,0.783065523321,,,,,,PLC_L_D2S1,P1,60.015920555,02,A,2014_Nov_29_1413,Y,
stim/posf.jpg,stim/negf.jpg,stim/6.jpg,stim/4.jpg,stim/latef.jpg,CD,2,4,,,,,0,32,32,30,,,,,,,,,,,,,,4,1,0.899706114593,,,,,,PLC_L_D2S1,P1,60.015920555,02,A,2014_Nov_29_1413,Y,
stim/posf.jpg,stim/negf.jpg,stim/4.jpg,stim/6.jpg,stim/latef.jpg,CD,1,2,,,,,0,33,33,21,,,,,,,,,,,,,,2,1,0.666456522671,,,,,,PLC_L_D2S1,P1,60.015920555,02,A,2014_Nov_29_1413,Y,
stim/negf.jpg,stim/posf.jpg,stim/1.jpg,stim/2.jpg,stim/latef.jpg,EF,1,2,,,,,0,34,34,49,,,,,,,,,,,,,,2,1,0.749727860212,,,,,,PLC_L_D2S1,P1,60.015920555,02,A,2014_Nov_29_1413,Y,
stim/posf.jpg,stim/negf.jpg,stim/6.jpg,stim/4.jpg,stim/latef.jpg,CD,2,4,,,,,0,35,35,33,,,,,,,,,,,,,,4,1,1.04963999955,,,,,,PLC_L_D2S1,P1,60.015920555,02,A,2014_Nov_29_1413,Y,
stim/negf.jpg,stim/posf.jpg,stim/5.jpg,stim/3.jpg,stim/latef.jpg,AB,2,4,,,,,0,36,36,18,,,,,,,,,,,,,,4,1,0.833063160941,,,,,,PLC_L_D2S1,P1,60.015920555,02,A,2014_Nov_29_1413,Y,
stim/posf.jpg,stim/negf.jpg,stim/5.jpg,stim/3.jpg,stim/latef.jpg,AB,2,4,,,,,0,37,37,12,,,,,,,,,,,,,,4,1,0.666374692014,,,,,,PLC_L_D2S1,P1,60.015920555,02,A,2014_Nov_29_1413,Y,
stim/posf.jpg,stim/negf.jpg,stim/1.jpg,stim/2.jpg,stim/latef.jpg,EF,1,2,,,,,0,38,38,45,,,,,,,,,,,,,,2,1,0.599813057747,,,,,,PLC_L_D2S1,P1,60.015920555,02,A,2014_Nov_29_1413,Y,
stim/negf.jpg,stim/posf.jpg,stim/1.jpg,stim/2.jpg,stim/latef.jpg,EF,1,2,,,,,0,39,39,48,,,,,,,,,,,,,,4,0,0.833073019477,,,,,,PLC_L_D2S1,P1,60.015920555,02,A,2014_Nov_29_1413,Y,
stim/negf.jpg,stim/posf.jpg,stim/4.jpg,stim/6.jpg,stim/latef.jpg,CD,1,2,,,,,0,40,40,28,,,,,,,,,,,,,,2,1,0.799735004493,,,,,,PLC_L_D2S1,P1,60.015920555,02,A,2014_Nov_29_1413,Y,
stim/posf.jpg,stim/negf.jpg,stim/2.jpg,stim/1.jpg,stim/latef.jpg,EF,2,4,,,,,0,41,41,51,,,,,,,,,,,,,,4,1,0.733117265595,,,,,,PLC_L_D2S1,P1,60.015920555,02,A,2014_Nov_29_1413,Y,
stim/posf.jpg,stim/negf.jpg,stim/5.jpg,stim/3.jpg,stim/latef.jpg,AB,2,4,,,,,0,42,42,11,,,,,,,,,,,,,,2,0,0.749782301703,,,,,,PLC_L_D2S1,P1,60.015920555,02,A,2014_Nov_29_1413,Y,
stim/posf.jpg,stim/negf.jpg,stim/6.jpg,stim/4.jpg,stim/latef.jpg,CD,2,4,,,,,0,43,43,34,,,,,,,,,,,,,,4,1,0.766410162291,,,,,,PLC_L_D2S1,P1,60.015920555,02,A,2014_Nov_29_1413,Y,
stim/negf.jpg,stim/posf.jpg,stim/2.jpg,stim/1.jpg,stim/latef.jpg,EF,2,4,,,,,0,44,44,59,,,,,,,,,,,,,,4,1,0.749664206794,,,,,,PLC_L_D2S1,P1,60.015920555,02,A,2014_Nov_29_1413,Y,
stim/posf.jpg,stim/negf.jpg,stim/5.jpg,stim/3.jpg,stim/latef.jpg,AB,2,4,,,,,0,45,45,17,,,,,,,,,,,,,,4,1,0.649787261046,,,,,,PLC_L_D2S1,P1,60.015920555,02,A,2014_Nov_29_1413,Y,
stim/posf.jpg,stim/negf.jpg,stim/3.jpg,stim/5.jpg,stim/latef.jpg,AB,1,2,,,,,0,46,46,7,,,,,,,,,,,,,,2,1,0.599808808171,,,,,,PLC_L_D2S1,P1,60.015920555,02,A,2014_Nov_29_1413,Y,
stim/posf.jpg,stim/negf.jpg,stim/1.jpg,stim/2.jpg,stim/latef.jpg,EF,1,2,,,,,0,47,47,44,,,,,,,,,,,,,,2,1,0.683060948937,,,,,,PLC_L_D2S1,P1,60.015920555,02,A,2014_Nov_29_1413,Y,
stim/posf.jpg,stim/negf.jpg,stim/6.jpg,stim/4.jpg,stim/latef.jpg,CD,2,4,,,,,0,48,48,35,,,,,,,,,,,,,,4,1,0.783058239193,,,,,,PLC_L_D2S1,P1,60.015920555,02,A,2014_Nov_29_1413,Y,
stim/posf.jpg,stim/negf.jpg,stim/3.jpg,stim/5.jpg,stim/latef.jpg,AB,1,2,,,,,0,49,49,2,,,,,,,,,,,,,,2,1,0.58317357323,,,,,,PLC_L_D2S1,P1,60.015920555,02,A,2014_Nov_29_1413,Y,
stim/negf.jpg,stim/posf.jpg,stim/2.jpg,stim/1.jpg,stim/latef.jpg,EF,2,4,,,,,0,50,50,57,,,,,,,,,,,,,,4,1,0.666437419127,,,,,,PLC_L_D2S1,P1,60.015920555,02,A,2014_Nov_29_1413,Y,
stim/posf.jpg,stim/negf.jpg,stim/4.jpg,stim/6.jpg,stim/latef.jpg,CD,1,2,,,,,0,51,51,24,,,,,,,,,,,,,,2,1,0.749691075664,,,,,,PLC_L_D2S1,P1,60.015920555,02,A,2014_Nov_29_1413,Y,
stim/posf.jpg,stim/negf.jpg,stim/5.jpg,stim/3.jpg,stim/latef.jpg,AB,2,4,,,,,0,52,52,15,,,,,,,,,,,,,,4,1,0.733113109251,,,,,,PLC_L_D2S1,P1,60.015920555,02,A,2014_Nov_29_1413,Y,
stim/posf.jpg,stim/negf.jpg,stim/2.jpg,stim/1.jpg,stim/latef.jpg,EF,2,4,,,,,0,53,53,54,,,,,,,,,,,,,,4,1,0.733109416059,,,,,,PLC_L_D2S1,P1,60.015920555,02,A,2014_Nov_29_1413,Y,
stim/posf.jpg,stim/negf.jpg,stim/3.jpg,stim/5.jpg,stim/latef.jpg,AB,1,2,,,,,0,54,54,0,,,,,,,,,,,,,,2,1,0.849721959527,,,,,,PLC_L_D2S1,P1,60.015920555,02,A,2014_Nov_29_1413,Y,
stim/negf.jpg,stim/posf.jpg,stim/4.jpg,stim/6.jpg,stim/latef.jpg,CD,1,2,,,,,0,55,55,27,,,,,,,,,,,,,,2,1,0.766331158671,,,,,,PLC_L_D2S1,P1,60.015920555,02,A,2014_Nov_29_1413,Y,
stim/negf.jpg,stim/posf.jpg,stim/4.jpg,stim/6.jpg,stim/latef.jpg,CD,1,2,,,,,0,56,56,29,,,,,,,,,,,,,,2,1,0.716422963651,,,,,,PLC_L_D2S1,P1,60.015920555,02,A,2014_Nov_29_1413,Y,
stim/posf.jpg,stim/negf.jpg,stim/2.jpg,stim/1.jpg,stim/latef.jpg,EF,2,4,,,,,0,57,57,53,,,,,,,,,,,,,,4,1,0.683099901881,,,,,,PLC_L_D2S1,P1,60.015920555,02,A,2014_Nov_29_1413,Y,
stim/posf.jpg,stim/negf.jpg,stim/5.jpg,stim/3.jpg,stim/latef.jpg,AB,2,4,,,,,0,58,58,16,,,,,,,,,,,,,,4,1,0.733080625407,,,,,,PLC_L_D2S1,P1,60.015920555,02,A,2014_Nov_29_1413,Y,
stim/posf.jpg,stim/negf.jpg,stim/2.jpg,stim/1.jpg,stim/latef.jpg,EF,2,4,,,,,0,59,59,50,,,,,,,,,,,,,,4,1,0.649768187577,,,,,,PLC_L_D2S1,P1,60.015920555,02,A,2014_Nov_29_1413,Y,
,,,,,,,,,,,,,,,,,,,,,,,,,,,,,,,,0.9984375,1.0,1,0,0,PLC_L_D2S1,P1,60.015920555,02,A,2014_Nov_29_1413,Y,
stim/posf.jpg,stim/negf.jpg,stim/5.jpg,stim/3.jpg,stim/latef.jpg,AB,2,4,,,,,,,,,0,0,0,11,,,,,,,,,,4,1,0.749737252587,,,,,,PLC_L_D2S1,P1,60.015920555,02,A,2014_Nov_29_1413,Y,
stim/negf.jpg,stim/posf.jpg,stim/2.jpg,stim/1.jpg,stim/latef.jpg,EF,2,4,,,,,,,,,0,1,1,58,,,,,,,,,,4,1,0.649810466799,,,,,,PLC_L_D2S1,P1,60.015920555,02,A,2014_Nov_29_1413,Y,
stim/posf.jpg,stim/negf.jpg,stim/6.jpg,stim/4.jpg,stim/latef.jpg,CD,2,4,,,,,,,,,0,2,2,34,,,,,,,,,,4,1,0.849741646523,,,,,,PLC_L_D2S1,P1,60.015920555,02,A,2014_Nov_29_1413,Y,
stim/negf.jpg,stim/posf.jpg,stim/6.jpg,stim/4.jpg,stim/latef.jpg,CD,2,4,,,,,,,,,0,3,3,39,,,,,,,,,,4,1,0.83306997891,,,,,,PLC_L_D2S1,P1,60.015920555,02,A,2014_Nov_29_1413,Y,
stim/posf.jpg,stim/negf.jpg,stim/4.jpg,stim/6.jpg,stim/latef.jpg,CD,1,2,,,,,,,,,0,4,4,23,,,,,,,,,,2,1,0.699701425924,,,,,,PLC_L_D2S1,P1,60.015920555,02,A,2014_Nov_29_1413,Y,
stim/posf.jpg,stim/negf.jpg,stim/5.jpg,stim/3.jpg,stim/latef.jpg,AB,2,4,,,,,,,,,0,5,5,12,,,,,,,,,,4,1,0.499802266892,,,,,,PLC_L_D2S1,P1,60.015920555,02,A,2014_Nov_29_1413,Y,
stim/negf.jpg,stim/posf.jpg,stim/1.jpg,stim/2.jpg,stim/latef.jpg,EF,1,2,,,,,,,,,0,6,6,49,,,,,,,,,,2,1,0.73309573501,,,,,,PLC_L_D2S1,P1,60.015920555,02,A,2014_Nov_29_1413,Y,
stim/posf.jpg,stim/negf.jpg,stim/3.jpg,stim/5.jpg,stim/latef.jpg,AB,1,2,,,,,,,,,0,7,7,2,,,,,,,,,,2,1,0.616497131236,,,,,,PLC_L_D2S1,P1,60.015920555,02,A,2014_Nov_29_1413,Y,
stim/posf.jpg,stim/negf.jpg,stim/1.jpg,stim/2.jpg,stim/latef.jpg,EF,1,2,,,,,,,,,0,8,8,42,,,,,,,,,,2,1,0.833058234681,,,,,,PLC_L_D2S1,P1,60.015920555,02,A,2014_Nov_29_1413,Y,
stim/posf.jpg,stim/negf.jpg,stim/5.jpg,stim/3.jpg,stim/latef.jpg,AB,2,4,,,,,,,,,0,9,9,10,,,,,,,,,,4,1,0.816413023913,,,,,,PLC_L_D2S1,P1,60.015920555,02,A,2014_Nov_29_1413,Y,
stim/negf.jpg,stim/posf.jpg,stim/4.jpg,stim/6.jpg,stim/latef.jpg,CD,1,2,,,,,,,,,0,10,10,27,,,,,,,,,,2,1,0.533104931899,,,,,,PLC_L_D2S1,P1,60.015920555,02,A,2014_Nov_29_1413,Y,
stim/negf.jpg,stim/posf.jpg,stim/2.jpg,stim/1.jpg,stim/latef.jpg,EF,2,4,,,,,,,,,0,11,11,57,,,,,,,,,,4,1,0.733012036706,,,,,,PLC_L_D2S1,P1,60.015920555,02,A,2014_Nov_29_1413,Y,
stim/posf.jpg,stim/negf.jpg,stim/3.jpg,stim/5.jpg,stim/latef.jpg,AB,1,2,,,,,,,,,0,12,12,3,,,,,,,,,,2,1,0.533059666244,,,,,,PLC_L_D2S1,P1,60.015920555,02,A,2014_Nov_29_1413,Y,
stim/posf.jpg,stim/negf.jpg,stim/5.jpg,stim/3.jpg,stim/latef.jpg,AB,2,4,,,,,,,,,0,13,13,16,,,,,,,,,,4,1,0.683111853626,,,,,,PLC_L_D2S1,P1,60.015920555,02,A,2014_Nov_29_1413,Y,
stim/posf.jpg,stim/negf.jpg,stim/3.jpg,stim/5.jpg,stim/latef.jpg,AB,1,2,,,,,,,,,0,14,14,5,,,,,,,,,,2,1,0.549877019432,,,,,,PLC_L_D2S1,P1,60.015920555,02,A,2014_Nov_29_1413,Y,
stim/posf.jpg,stim/negf.jpg,stim/2.jpg,stim/1.jpg,stim/latef.jpg,EF,2,4,,,,,,,,,0,15,15,55,,,,,,,,,,4,1,0.649763324474,,,,,,PLC_L_D2S1,P1,60.015920555,02,A,2014_Nov_29_1413,Y,
stim/posf.jpg,stim/negf.jpg,stim/1.jpg,stim/2.jpg,stim/latef.jpg,EF,1,2,,,,,,,,,0,16,16,44,,,,,,,,,,2,1,0.599826098202,,,,,,PLC_L_D2S1,P1,60.015920555,02,A,2014_Nov_29_1413,Y,
stim/negf.jpg,stim/posf.jpg,stim/2.jpg,stim/1.jpg,stim/latef.jpg,EF,2,4,,,,,,,,,0,17,17,59,,,,,,,,,,4,1,0.633132874441,,,,,,PLC_L_D2S1,P1,60.015920555,02,A,2014_Nov_29_1413,Y,
stim/negf.jpg,stim/posf.jpg,stim/6.jpg,stim/4.jpg,stim/latef.jpg,CD,2,4,,,,,,,,,0,18,18,37,,,,,,,,,,4,1,0.999673675861,,,,,,PLC_L_D2S1,P1,60.015920555,02,A,2014_Nov_29_1413,Y,
stim/negf.jpg,stim/posf.jpg,stim/1.jpg,stim/2.jpg,stim/latef.jpg,EF,1,2,,,,,,,,,0,19,19,47,,,,,,,,,,2,1,0.5831065394,,,,,,PLC_L_D2S1,P1,60.015920555,02,A,2014_Nov_29_1413,Y,
stim/negf.jpg,stim/posf.jpg,stim/3.jpg,stim/5.jpg,stim/latef.jpg,AB,1,2,,,,,,,,,0,20,20,9,,,,,,,,,,2,1,0.699763064326,,,,,,PLC_L_D2S1,P1,60.015920555,02,A,2014_Nov_29_1413,Y,
stim/negf.jpg,stim/posf.jpg,stim/1.jpg,stim/2.jpg,stim/latef.jpg,EF,1,2,,,,,,,,,0,21,21,48,,,,,,,,,,2,1,0.716453294136,,,,,,PLC_L_D2S1,P1,60.015920555,02,A,2014_Nov_29_1413,Y,
stim/posf.jpg,stim/negf.jpg,stim/5.jpg,stim/3.jpg,stim/latef.jpg,AB,2,4,,,,,,,,,0,22,22,14,,,,,,,,,,4,1,0.699735046597,,,,,,PLC_L_D2S1,P1,60.015920555,02,A,2014_Nov_29_1413,Y,
stim/posf.jpg,stim/negf.jpg,stim/4.jpg,stim/6.jpg,stim/latef.jpg,CD,1,2,,,,,,,,,0,23,23,26,,,,,,,,,,2,1,0.816407655553,,,,,,PLC_L_D2S1,P1,60.015920555,02,A,2014_Nov_29_1413,Y,
stim/posf.jpg,stim/negf.jpg,stim/6.jpg,stim/4.jpg,stim/latef.jpg,CD,2,4,,,,,,,,,0,24,24,31,,,,,,,,,,4,1,0.866382788164,,,,,,PLC_L_D2S1,P1,60.015920555,02,A,2014_Nov_29_1413,Y,
stim/posf.jpg,stim/negf.jpg,stim/6.jpg,stim/4.jpg,stim/latef.jpg,CD,2,4,,,,,,,,,0,25,25,35,,,,,,,,,,4,1,0.833037410856,,,,,,PLC_L_D2S1,P1,60.015920555,02,A,2014_Nov_29_1413,Y,
stim/posf.jpg,stim/negf.jpg,stim/2.jpg,stim/1.jpg,stim/latef.jpg,EF,2,4,,,,,,,,,0,26,26,53,,,,,,,,,,4,1,0.799767774048,,,,,,PLC_L_D2S1,P1,60.015920555,02,A,2014_Nov_29_1413,Y,
stim/posf.jpg,stim/negf.jpg,stim/5.jpg,stim/3.jpg,stim/latef.jpg,AB,2,4,,,,,,,,,0,27,27,17,,,,,,,,,,4,1,0.649788208404,,,,,,PLC_L_D2S1,P1,60.015920555,02,A,2014_Nov_29_1413,Y,
stim/posf.jpg,stim/negf.jpg,stim/3.jpg,stim/5.jpg,stim/latef.jpg,AB,1,2,,,,,,,,,0,28,28,0,,,,,,,,,,2,1,1.03304117924,,,,,,PLC_L_D2S1,P1,60.015920555,02,A,2014_Nov_29_1413,Y,
stim/posf.jpg,stim/negf.jpg,stim/5.jpg,stim/3.jpg,stim/latef.jpg,AB,2,4,,,,,,,,,0,29,29,13,,,,,,,,,,4,1,0.616455152761,,,,,,PLC_L_D2S1,P1,60.015920555,02,A,2014_Nov_29_1413,Y,
stim/posf.jpg,stim/negf.jpg,stim/4.jpg,stim/6.jpg,stim/latef.jpg,CD,1,2,,,,,,,,,0,30,30,24,,,,,,,,,,2,1,0.749817326872,,,,,,PLC_L_D2S1,P1,60.015920555,02,A,2014_Nov_29_1413,Y,
stim/posf.jpg,stim/negf.jpg,stim/3.jpg,stim/5.jpg,stim/latef.jpg,AB,1,2,,,,,,,,,0,31,31,4,,,,,,,,,,2,1,0.699747693071,,,,,,PLC_L_D2S1,P1,60.015920555,02,A,2014_Nov_29_1413,Y,
stim/negf.jpg,stim/posf.jpg,stim/4.jpg,stim/6.jpg,stim/latef.jpg,CD,1,2,,,,,,,,,0,32,32,28,,,,,,,,,,2,1,0.716415808844,,,,,,PLC_L_D2S1,P1,60.015920555,02,A,2014_Nov_29_1413,Y,
stim/posf.jpg,stim/negf.jpg,stim/2.jpg,stim/1.jpg,stim/latef.jpg,EF,2,4,,,,,,,,,0,33,33,50,,,,,,,,,,4,1,0.749731183483,,,,,,PLC_L_D2S1,P1,60.015920555,02,A,2014_Nov_29_1413,Y,
stim/posf.jpg,stim/negf.jpg,stim/2.jpg,stim/1.jpg,stim/latef.jpg,EF,2,4,,,,,,,,,0,34,34,54,,,,,,,,,,4,1,0.666436345455,,,,,,PLC_L_D2S1,P1,60.015920555,02,A,2014_Nov_29_1413,Y,
stim/posf.jpg,stim/negf.jpg,stim/6.jpg,stim/4.jpg,stim/latef.jpg,CD,2,4,,,,,,,,,0,35,35,30,,,,,,,,,,4,1,0.799771746935,,,,,,PLC_L_D2S1,P1,60.015920555,02,A,2014_Nov_29_1413,Y,
stim/negf.jpg,stim/posf.jpg,stim/3.jpg,stim/5.jpg,stim/latef.jpg,AB,1,2,,,,,,,,,0,36,36,8,,,,,,,,,,2,1,0.649764840246,,,,,,PLC_L_D2S1,P1,60.015920555,02,A,2014_Nov_29_1413,Y,
stim/posf.jpg,stim/negf.jpg,stim/3.jpg,stim/5.jpg,stim/latef.jpg,AB,1,2,,,,,,,,,0,37,37,1,,,,,,,,,,2,1,0.633118976853,,,,,,PLC_L_D2S1,P1,60.015920555,02,A,2014_Nov_29_1413,Y,
stim/negf.jpg,stim/posf.jpg,stim/5.jpg,stim/3.jpg,stim/latef.jpg,AB,2,4,,,,,,,,,0,38,38,19,,,,,,,,,,4,1,0.616457245971,,,,,,PLC_L_D2S1,P1,60.015920555,02,A,2014_Nov_29_1413,Y,
stim/posf.jpg,stim/negf.jpg,stim/4.jpg,stim/6.jpg,stim/latef.jpg,CD,1,2,,,,,,,,,0,39,39,20,,,,,,,,,,2,1,0.983008029233,,,,,,PLC_L_D2S1,P1,60.015920555,02,A,2014_Nov_29_1413,Y,
stim/negf.jpg,stim/posf.jpg,stim/2.jpg,stim/1.jpg,stim/latef.jpg,EF,2,4,,,,,,,,,0,40,40,56,,,,,,,,,,4,1,0.549810947997,,,,,,PLC_L_D2S1,P1,60.015920555,02,A,2014_Nov_29_1413,Y,
stim/posf.jpg,stim/negf.jpg,stim/4.jpg,stim/6.jpg,stim/latef.jpg,CD,1,2,,,,,,,,,0,41,41,22,,,,,,,,,,2,1,0.54983124852,,,,,,PLC_L_D2S1,P1,60.015920555,02,A,2014_Nov_29_1413,Y,
stim/posf.jpg,stim/negf.jpg,stim/6.jpg,stim/4.jpg,stim/latef.jpg,CD,2,4,,,,,,,,,0,42,42,36,,,,,,,,,,4,1,0.733090056879,,,,,,PLC_L_D2S1,P1,60.015920555,02,A,2014_Nov_29_1413,Y,
stim/posf.jpg,stim/negf.jpg,stim/3.jpg,stim/5.jpg,stim/latef.jpg,AB,1,2,,,,,,,,,0,43,43,7,,,,,,,,,,2,1,0.566475551027,,,,,,PLC_L_D2S1,P1,60.015920555,02,A,2014_Nov_29_1413,Y,
stim/negf.jpg,stim/posf.jpg,stim/4.jpg,stim/6.jpg,stim/latef.jpg,CD,1,2,,,,,,,,,0,44,44,29,,,,,,,,,,4,0,0.666442664181,,,,,,PLC_L_D2S1,P1,60.015920555,02,A,2014_Nov_29_1413,Y,
stim/negf.jpg,stim/posf.jpg,stim/5.jpg,stim/3.jpg,stim/latef.jpg,AB,2,4,,,,,,,,,0,45,45,18,,,,,,,,,,4,1,0.699755151633,,,,,,PLC_L_D2S1,P1,60.015920555,02,A,2014_Nov_29_1413,Y,
stim/posf.jpg,stim/negf.jpg,stim/1.jpg,stim/2.jpg,stim/latef.jpg,EF,1,2,,,,,,,,,0,46,46,43,,,,,,,,,,2,1,0.799737678147,,,,,,PLC_L_D2S1,P1,60.015920555,02,A,2014_Nov_29_1413,Y,
stim/posf.jpg,stim/negf.jpg,stim/2.jpg,stim/1.jpg,stim/latef.jpg,EF,2,4,,,,,,,,,0,47,47,52,,,,,,,,,,4,1,0.566494176382,,,,,,PLC_L_D2S1,P1,60.015920555,02,A,2014_Nov_29_1413,Y,
stim/posf.jpg,stim/negf.jpg,stim/2.jpg,stim/1.jpg,stim/latef.jpg,EF,2,4,,,,,,,,,0,48,48,51,,,,,,,,,,4,1,0.59979863385,,,,,,PLC_L_D2S1,P1,60.015920555,02,A,2014_Nov_29_1413,Y,
stim/posf.jpg,stim/negf.jpg,stim/5.jpg,stim/3.jpg,stim/latef.jpg,AB,2,4,,,,,,,,,0,49,49,15,,,,,,,,,,4,1,0.699767810137,,,,,,PLC_L_D2S1,P1,60.015920555,02,A,2014_Nov_29_1413,Y,
stim/posf.jpg,stim/negf.jpg,stim/3.jpg,stim/5.jpg,stim/latef.jpg,AB,1,2,,,,,,,,,0,50,50,6,,,,,,,,,,2,1,0.516484069728,,,,,,PLC_L_D2S1,P1,60.015920555,02,A,2014_Nov_29_1413,Y,
stim/negf.jpg,stim/posf.jpg,stim/1.jpg,stim/2.jpg,stim/latef.jpg,EF,1,2,,,,,,,,,0,51,51,46,,,,,,,,,,2,1,0.633115515238,,,,,,PLC_L_D2S1,P1,60.015920555,02,A,2014_Nov_29_1413,Y,
stim/posf.jpg,stim/negf.jpg,stim/1.jpg,stim/2.jpg,stim/latef.jpg,EF,1,2,,,,,,,,,0,52,52,40,,,,,,,,,,2,1,0.899708219832,,,,,,PLC_L_D2S1,P1,60.015920555,02,A,2014_Nov_29_1413,Y,
stim/posf.jpg,stim/negf.jpg,stim/1.jpg,stim/2.jpg,stim/latef.jpg,EF,1,2,,,,,,,,,0,53,53,45,,,,,,,,,,2,1,0.583170818374,,,,,,PLC_L_D2S1,P1,60.015920555,02,A,2014_Nov_29_1413,Y,
stim/negf.jpg,stim/posf.jpg,stim/6.jpg,stim/4.jpg,stim/latef.jpg,CD,2,4,,,,,,,,,0,54,54,38,,,,,,,,,,4,1,0.799698313177,,,,,,PLC_L_D2S1,P1,60.015920555,02,A,2014_Nov_29_1413,Y,
stim/posf.jpg,stim/negf.jpg,stim/4.jpg,stim/6.jpg,stim/latef.jpg,CD,1,2,,,,,,,,,0,55,55,21,,,,,,,,,,2,1,0.783081688552,,,,,,PLC_L_D2S1,P1,60.015920555,02,A,2014_Nov_29_1413,Y,
stim/posf.jpg,stim/negf.jpg,stim/6.jpg,stim/4.jpg,stim/latef.jpg,CD,2,4,,,,,,,,,0,56,56,32,,,,,,,,,,4,1,0.66650398379,,,,,,PLC_L_D2S1,P1,60.015920555,02,A,2014_Nov_29_1413,Y,
stim/posf.jpg,stim/negf.jpg,stim/4.jpg,stim/6.jpg,stim/latef.jpg,CD,1,2,,,,,,,,,0,57,57,25,,,,,,,,,,2,1,0.54977858746,,,,,,PLC_L_D2S1,P1,60.015920555,02,A,2014_Nov_29_1413,Y,
stim/posf.jpg,stim/negf.jpg,stim/6.jpg,stim/4.jpg,stim/latef.jpg,CD,2,4,,,,,,,,,0,58,58,33,,,,,,,,,,4,1,0.533158236562,,,,,,PLC_L_D2S1,P1,60.015920555,02,A,2014_Nov_29_1413,Y,
stim/posf.jpg,stim/negf.jpg,stim/1.jpg,stim/2.jpg,stim/latef.jpg,EF,1,2,,,,,,,,,0,59,59,41,,,,,,,,,,2,1,0.733107040146,,,,,,PLC_L_D2S1,P1,60.015920555,02,A,2014_Nov_29_1413,Y,
,,,,,,,,,,,,,,,,,,,,,,,,,,,,,,,,0.9984375,1.0,1,0,0,PLC_L_D2S1,P1,60.015920555,02,A,2014_Nov_29_1413,Y,
stim/negf.jpg,stim/posf.jpg,stim/4.jpg,stim/6.jpg,stim/latef.jpg,CD,1,2,,,,,,,,,,,,,0,0,0,27,,,,,,2,1,0.649770094322,,,,,,PLC_L_D2S1,P1,60.015920555,02,A,2014_Nov_29_1413,Y,
stim/negf.jpg,stim/posf.jpg,stim/1.jpg,stim/2.jpg,stim/latef.jpg,EF,1,2,,,,,,,,,,,,,0,1,1,48,,,,,,2,1,0.733082625384,,,,,,PLC_L_D2S1,P1,60.015920555,02,A,2014_Nov_29_1413,Y,
stim/posf.jpg,stim/negf.jpg,stim/3.jpg,stim/5.jpg,stim/latef.jpg,AB,1,2,,,,,,,,,,,,,0,2,2,3,,,,,,2,1,0.499772546926,,,,,,PLC_L_D2S1,P1,60.015920555,02,A,2014_Nov_29_1413,Y,
stim/negf.jpg,stim/posf.jpg,stim/6.jpg,stim/4.jpg,stim/latef.jpg,CD,2,4,,,,,,,,,,,,,0,3,3,39,,,,,,4,1,0.833088595241,,,,,,PLC_L_D2S1,P1,60.015920555,02,A,2014_Nov_29_1413,Y,
stim/negf.jpg,stim/posf.jpg,stim/6.jpg,stim/4.jpg,stim/latef.jpg,CD,2,4,,,,,,,,,,,,,0,4,4,38,,,,,,4,1,0.7830682872,,,,,,PLC_L_D2S1,P1,60.015920555,02,A,2014_Nov_29_1413,Y,
stim/posf.jpg,stim/negf.jpg,stim/3.jpg,stim/5.jpg,stim/latef.jpg,AB,1,2,,,,,,,,,,,,,0,5,5,1,,,,,,2,1,0.549767730439,,,,,,PLC_L_D2S1,P1,60.015920555,02,A,2014_Nov_29_1413,Y,
stim/posf.jpg,stim/negf.jpg,stim/4.jpg,stim/6.jpg,stim/latef.jpg,CD,1,2,,,,,,,,,,,,,0,6,6,22,,,,,,2,1,0.616444843103,,,,,,PLC_L_D2S1,P1,60.015920555,02,A,2014_Nov_29_1413,Y,
stim/posf.jpg,stim/negf.jpg,stim/1.jpg,stim/2.jpg,stim/latef.jpg,EF,1,2,,,,,,,,,,,,,0,7,7,42,,,,,,2,1,0.733088874937,,,,,,PLC_L_D2S1,P1,60.015920555,02,A,2014_Nov_29_1413,Y,
stim/posf.jpg,stim/negf.jpg,stim/5.jpg,stim/3.jpg,stim/latef.jpg,AB,2,4,,,,,,,,,,,,,0,8,8,17,,,,,,4,1,0.849740735255,,,,,,PLC_L_D2S1,P1,60.015920555,02,A,2014_Nov_29_1413,Y,
stim/posf.jpg,stim/negf.jpg,stim/3.jpg,stim/5.jpg,stim/latef.jpg,AB,1,2,,,,,,,,,,,,,0,9,9,2,,,,,,2,1,0.483238210095,,,,,,PLC_L_D2S1,P1,60.015920555,02,A,2014_Nov_29_1413,Y,
stim/posf.jpg,stim/negf.jpg,stim/6.jpg,stim/4.jpg,stim/latef.jpg,CD,2,4,,,,,,,,,,,,,0,10,10,36,,,,,,4,1,0.649782352831,,,,,,PLC_L_D2S1,P1,60.015920555,02,A,2014_Nov_29_1413,Y,
stim/posf.jpg,stim/negf.jpg,stim/1.jpg,stim/2.jpg,stim/latef.jpg,EF,1,2,,,,,,,,,,,,,0,11,11,40,,,,,,2,1,0.666440167968,,,,,,PLC_L_D2S1,P1,60.015920555,02,A,2014_Nov_29_1413,Y,
stim/negf.jpg,stim/posf.jpg,stim/5.jpg,stim/3.jpg,stim/latef.jpg,AB,2,4,,,,,,,,,,,,,0,12,12,19,,,,,,4,1,0.716451348294,,,,,,PLC_L_D2S1,P1,60.015920555,02,A,2014_Nov_29_1413,Y,
stim/negf.jpg,stim/posf.jpg,stim/1.jpg,stim/2.jpg,stim/latef.jpg,EF,1,2,,,,,,,,,,,,,0,13,13,46,,,,,,2,1,0.566431981594,,,,,,PLC_L_D2S1,P1,60.015920555,02,A,2014_Nov_29_1413,Y,
stim/posf.jpg,stim/negf.jpg,stim/5.jpg,stim/3.jpg,stim/latef.jpg,AB,2,4,,,,,,,,,,,,,0,14,14,11,,,,,,4,1,0.583127354203,,,,,,PLC_L_D2S1,P1,60.015920555,02,A,2014_Nov_29_1413,Y,
stim/posf.jpg,stim/negf.jpg,stim/1.jpg,stim/2.jpg,stim/latef.jpg,EF,1,2,,,,,,,,,,,,,0,15,15,44,,,,,,2,1,0.78313545336,,,,,,PLC_L_D2S1,P1,60.015920555,02,A,2014_Nov_29_1413,Y,
stim/negf.jpg,stim/posf.jpg,stim/2.jpg,stim/1.jpg,stim/latef.jpg,EF,2,4,,,,,,,,,,,,,0,16,16,58,,,,,,4,1,0.516489137341,,,,,,PLC_L_D2S1,P1,60.015920555,02,A,2014_Nov_29_1413,Y,
stim/posf.jpg,stim/negf.jpg,stim/4.jpg,stim/6.jpg,stim/latef.jpg,CD,1,2,,,,,,,,,,,,,0,17,17,25,,,,,,2,1,0.499836486054,,,,,,PLC_L_D2S1,P1,60.015920555,02,A,2014_Nov_29_1413,Y,
stim/posf.jpg,stim/negf.jpg,stim/5.jpg,stim/3.jpg,stim/latef.jpg,AB,2,4,,,,,,,,,,,,,0,18,18,13,,,,,,4,1,0.516529575982,,,,,,PLC_L_D2S1,P1,60.015920555,02,A,2014_Nov_29_1413,Y,
stim/posf.jpg,stim/negf.jpg,stim/2.jpg,stim/1.jpg,stim/latef.jpg,EF,2,4,,,,,,,,,,,,,0,19,19,50,,,,,,4,1,0.766408622459,,,,,,PLC_L_D2S1,P1,60.015920555,02,A,2014_Nov_29_1413,Y,
stim/posf.jpg,stim/negf.jpg,stim/2.jpg,stim/1.jpg,stim/latef.jpg,EF,2,4,,,,,,,,,,,,,0,20,20,51,,,,,,4,1,0.633116522746,,,,,,PLC_L_D2S1,P1,60.015920555,02,A,2014_Nov_29_1413,Y,
stim/negf.jpg,stim/posf.jpg,stim/1.jpg,stim/2.jpg,stim/latef.jpg,EF,1,2,,,,,,,,,,,,,0,21,21,47,,,,,,2,1,0.599787806904,,,,,,PLC_L_D2S1,P1,60.015920555,02,A,2014_Nov_29_1413,Y,
stim/posf.jpg,stim/negf.jpg,stim/3.jpg,stim/5.jpg,stim/latef.jpg,AB,1,2,,,,,,,,,,,,,0,22,22,6,,,,,,2,1,0.683102689819,,,,,,PLC_L_D2S1,P1,60.015920555,02,A,2014_Nov_29_1413,Y,
stim/posf.jpg,stim/negf.jpg,stim/5.jpg,stim/3.jpg,stim/latef.jpg,AB,2,4,,,,,,,,,,,,,0,23,23,12,,,,,,4,1,0.616399333842,,,,,,PLC_L_D2S1,P1,60.015920555,02,A,2014_Nov_29_1413,Y,
stim/negf.jpg,stim/posf.jpg,stim/1.jpg,stim/2.jpg,stim/latef.jpg,EF,1,2,,,,,,,,,,,,,0,24,24,49,,,,,,2,1,0.949622643354,,,,,,PLC_L_D2S1,P1,60.015920555,02,A,2014_Nov_29_1413,Y,
stim/posf.jpg,stim/negf.jpg,stim/4.jpg,stim/6.jpg,stim/latef.jpg,CD,1,2,,,,,,,,,,,,,0,25,25,21,,,,,,2,1,0.666445226558,,,,,,PLC_L_D2S1,P1,60.015920555,02,A,2014_Nov_29_1413,Y,
stim/posf.jpg,stim/negf.jpg,stim/6.jpg,stim/4.jpg,stim/latef.jpg,CD,2,4,,,,,,,,,,,,,0,26,26,34,,,,,,4,1,0.633117034019,,,,,,PLC_L_D2S1,P1,60.015920555,02,A,2014_Nov_29_1413,Y,
stim/posf.jpg,stim/negf.jpg,stim/4.jpg,stim/6.jpg,stim/latef.jpg,CD,1,2,,,,,,,,,,,,,0,27,27,20,,,,,,2,1,0.566485803543,,,,,,PLC_L_D2S1,P1,60.015920555,02,A,2014_Nov_29_1413,Y,
stim/negf.jpg,stim/posf.jpg,stim/4.jpg,stim/6.jpg,stim/latef.jpg,CD,1,2,,,,,,,,,,,,,0,28,28,28,,,,,,2,1,0.533166774811,,,,,,PLC_L_D2S1,P1,60.015920555,02,A,2014_Nov_29_1413,Y,
stim/posf.jpg,stim/negf.jpg,stim/3.jpg,stim/5.jpg,stim/latef.jpg,AB,1,2,,,,,,,,,,,,,0,29,29,7,,,,,,2,1,0.583139152566,,,,,,PLC_L_D2S1,P1,60.015920555,02,A,2014_Nov_29_1413,Y,
stim/posf.jpg,stim/negf.jpg,stim/4.jpg,stim/6.jpg,stim/latef.jpg,CD,1,2,,,,,,,,,,,,,0,30,30,23,,,,,,2,1,0.549775528847,,,,,,PLC_L_D2S1,P1,60.015920555,02,A,2014_Nov_29_1413,Y,
stim/negf.jpg,stim/posf.jpg,stim/2.jpg,stim/1.jpg,stim/latef.jpg,EF,2,4,,,,,,,,,,,,,0,31,31,56,,,,,,4,1,0.833059079785,,,,,,PLC_L_D2S1,P1,60.015920555,02,A,2014_Nov_29_1413,Y,
stim/posf.jpg,stim/negf.jpg,stim/6.jpg,stim/4.jpg,stim/latef.jpg,CD,2,4,,,,,,,,,,,,,0,32,32,30,,,,,,4,1,0.983008531483,,,,,,PLC_L_D2S1,P1,60.015920555,02,A,2014_Nov_29_1413,Y,
stim/posf.jpg,stim/negf.jpg,stim/2.jpg,stim/1.jpg,stim/latef.jpg,EF,2,4,,,,,,,,,,,,,0,33,33,54,,,,,,4,1,0.666428522987,,,,,,PLC_L_D2S1,P1,60.015920555,02,A,2014_Nov_29_1413,Y,
stim/posf.jpg,stim/negf.jpg,stim/5.jpg,stim/3.jpg,stim/latef.jpg,AB,2,4,,,,,,,,,,,,,0,34,34,15,,,,,,4,1,0.566468312012,,,,,,PLC_L_D2S1,P1,60.015920555,02,A,2014_Nov_29_1413,Y,
stim/posf.jpg,stim/negf.jpg,stim/4.jpg,stim/6.jpg,stim/latef.jpg,CD,1,2,,,,,,,,,,,,,0,35,35,24,,,,,,2,1,0.633160335786,,,,,,PLC_L_D2S1,P1,60.015920555,02,A,2014_Nov_29_1413,Y,
stim/posf.jpg,stim/negf.jpg,stim/1.jpg,stim/2.jpg,stim/latef.jpg,EF,1,2,,,,,,,,,,,,,0,36,36,43,,,,,,2,1,0.783123432443,,,,,,PLC_L_D2S1,P1,60.015920555,02,A,2014_Nov_29_1413,Y,
stim/posf.jpg,stim/negf.jpg,stim/6.jpg,stim/4.jpg,stim/latef.jpg,CD,2,4,,,,,,,,,,,,,0,37,37,35,,,,,,4,1,0.733092754593,,,,,,PLC_L_D2S1,P1,60.015920555,02,A,2014_Nov_29_1413,Y,
stim/posf.jpg,stim/negf.jpg,stim/2.jpg,stim/1.jpg,stim/latef.jpg,EF,2,4,,,,,,,,,,,,,0,38,38,53,,,,,,4,1,0.683082485536,,,,,,PLC_L_D2S1,P1,60.015920555,02,A,2014_Nov_29_1413,Y,
stim/negf.jpg,stim/posf.jpg,stim/4.jpg,stim/6.jpg,stim/latef.jpg,CD,1,2,,,,,,,,,,,,,0,39,39,29,,,,,,2,1,0.599817265219,,,,,,PLC_L_D2S1,P1,60.015920555,02,A,2014_Nov_29_1413,Y,
stim/posf.jpg,stim/negf.jpg,stim/6.jpg,stim/4.jpg,stim/latef.jpg,CD,2,4,,,,,,,,,,,,,0,40,40,33,,,,,,4,1,0.583143660785,,,,,,PLC_L_D2S1,P1,60.015920555,02,A,2014_Nov_29_1413,Y,
stim/posf.jpg,stim/negf.jpg,stim/6.jpg,stim/4.jpg,stim/latef.jpg,CD,2,4,,,,,,,,,,,,,0,41,41,32,,,,,,4,1,0.799738396935,,,,,,PLC_L_D2S1,P1,60.015920555,02,A,2014_Nov_29_1413,Y,
stim/posf.jpg,stim/negf.jpg,stim/1.jpg,stim/2.jpg,stim/latef.jpg,EF,1,2,,,,,,,,,,,,,0,42,42,45,,,,,,2,1,0.699738153329,,,,,,PLC_L_D2S1,P1,60.015920555,02,A,2014_Nov_29_1413,Y,
stim/negf.jpg,stim/posf.jpg,stim/3.jpg,stim/5.jpg,stim/latef.jpg,AB,1,2,,,,,,,,,,,,,0,43,43,8,,,,,,2,1,0.599806098428,,,,,,PLC_L_D2S1,P1,60.015920555,02,A,2014_Nov_29_1413,Y,
stim/posf.jpg,stim/negf.jpg,stim/3.jpg,stim/5.jpg,stim/latef.jpg,AB,1,2,,,,,,,,,,,,,0,44,44,4,,,,,,2,1,0.566415524637,,,,,,PLC_L_D2S1,P1,60.015920555,02,A,2014_Nov_29_1413,Y,
stim/posf.jpg,stim/negf.jpg,stim/3.jpg,stim/5.jpg,stim/latef.jpg,AB,1,2,,,,,,,,,,,,,0,45,45,5,,,,,,2,1,0.566481009613,,,,,,PLC_L_D2S1,P1,60.015920555,02,A,2014_Nov_29_1413,Y,
stim/negf.jpg,stim/posf.jpg,stim/6.jpg,stim/4.jpg,stim/latef.jpg,CD,2,4,,,,,,,,,,,,,0,46,46,37,,,,,,4,1,0.783104999568,,,,,,PLC_L_D2S1,P1,60.015920555,02,A,2014_Nov_29_1413,Y,
stim/posf.jpg,stim/negf.jpg,stim/2.jpg,stim/1.jpg,stim/latef.jpg,EF,2,4,,,,,,,,,,,,,0,47,47,52,,,,,,4,1,0.599809184107,,,,,,PLC_L_D2S1,P1,60.015920555,02,A,2014_Nov_29_1413,Y,
stim/posf.jpg,stim/negf.jpg,stim/4.jpg,stim/6.jpg,stim/latef.jpg,CD,1,2,,,,,,,,,,,,,0,48,48,26,,,,,,2,1,0.699709531095,,,,,,PLC_L_D2S1,P1,60.015920555,02,A,2014_Nov_29_1413,Y,
stim/posf.jpg,stim/negf.jpg,stim/2.jpg,stim/1.jpg,stim/latef.jpg,EF,2,4,,,,,,,,,,,,,0,49,49,55,,,,,,4,1,0.716452151292,,,,,,PLC_L_D2S1,P1,60.015920555,02,A,2014_Nov_29_1413,Y,
stim/posf.jpg,stim/negf.jpg,stim/5.jpg,stim/3.jpg,stim/latef.jpg,AB,2,4,,,,,,,,,,,,,0,50,50,10,,,,,,4,1,0.883036110119,,,,,,PLC_L_D2S1,P1,60.015920555,02,A,2014_Nov_29_1413,Y,
stim/posf.jpg,stim/negf.jpg,stim/3.jpg,stim/5.jpg,stim/latef.jpg,AB,1,2,,,,,,,,,,,,,0,51,51,0,,,,,,2,1,0.599782928764,,,,,,PLC_L_D2S1,P1,60.015920555,02,A,2014_Nov_29_1413,Y,
stim/negf.jpg,stim/posf.jpg,stim/3.jpg,stim/5.jpg,stim/latef.jpg,AB,1,2,,,,,,,,,,,,,0,52,52,9,,,,,,2,1,0.583043132596,,,,,,PLC_L_D2S1,P1,60.015920555,02,A,2014_Nov_29_1413,Y,
stim/negf.jpg,stim/posf.jpg,stim/2.jpg,stim/1.jpg,stim/latef.jpg,EF,2,4,,,,,,,,,,,,,0,53,53,57,,,,,,4,1,0.716443754394,,,,,,PLC_L_D2S1,P1,60.015920555,02,A,2014_Nov_29_1413,Y,
stim/posf.jpg,stim/negf.jpg,stim/5.jpg,stim/3.jpg,stim/latef.jpg,AB,2,4,,,,,,,,,,,,,0,54,54,14,,,,,,4,1,0.616425065883,,,,,,PLC_L_D2S1,P1,60.015920555,02,A,2014_Nov_29_1413,Y,
stim/posf.jpg,stim/negf.jpg,stim/1.jpg,stim/2.jpg,stim/latef.jpg,EF,1,2,,,,,,,,,,,,,0,55,55,41,,,,,,2,1,0.649804863855,,,,,,PLC_L_D2S1,P1,60.015920555,02,A,2014_Nov_29_1413,Y,
stim/negf.jpg,stim/posf.jpg,stim/5.jpg,stim/3.jpg,stim/latef.jpg,AB,2,4,,,,,,,,,,,,,0,56,56,18,,,,,,4,1,0.649800806758,,,,,,PLC_L_D2S1,P1,60.015920555,02,A,2014_Nov_29_1413,Y,
stim/posf.jpg,stim/negf.jpg,stim/5.jpg,stim/3.jpg,stim/latef.jpg,AB,2,4,,,,,,,,,,,,,0,57,57,16,,,,,,4,1,0.566470438303,,,,,,PLC_L_D2S1,P1,60.015920555,02,A,2014_Nov_29_1413,Y,
stim/posf.jpg,stim/negf.jpg,stim/6.jpg,stim/4.jpg,stim/latef.jpg,CD,2,4,,,,,,,,,,,,,0,58,58,31,,,,,,4,1,0.766407575854,,,,,,PLC_L_D2S1,P1,60.015920555,02,A,2014_Nov_29_1413,Y,
stim/negf.jpg,stim/posf.jpg,stim/2.jpg,stim/1.jpg,stim/latef.jpg,EF,2,4,,,,,,,,,,,,,0,59,59,59,,,,,,4,1,0.599804561602,,,,,,PLC_L_D2S1,P1,60.015920555,02,A,2014_Nov_29_1413,Y,
