fb_corr,fb_incorr,symbol2,symbol1,fb_late,pair,position,correct,block_01.thisRepN,block_01.thisTrialN,block_01.thisN,block_01.thisIndex,block_02.thisRepN,block_02.thisTrialN,block_02.thisN,block_02.thisIndex,block_03.thisRepN,block_03.thisTrialN,block_03.thisN,block_03.thisIndex,block_04.thisRepN,block_04.thisTrialN,block_04.thisN,block_04.thisIndex,mouse.x,mouse.y,mouse.leftButton,mouse.midButton,mouse.rightButton,buttonBox_2.keys,buttonBox_2.corr,buttonBox_2.rt,mouse_2.x,mouse_2.y,mouse_2.leftButton,mouse_2.midButton,mouse_2.rightButton,expName,Participant,frameRate,SessionNumber,Version,date,Group,
,,,,,,,,,,,,,,,,,,,,,,,,0.9984375,1.0,1,0,0,,,,,,,,,PLC_L_D2S1,P20,60.0200605242,02,C,2015_Feb_26_1408,Y,
stim/posf.jpg,stim/negf.jpg,stim/2.jpg,stim/1.jpg,stim/latef.jpg,AB,1,2,0,0,0,2,,,,,,,,,,,,,,,,,,4,0,0.949749506205,,,,,,PLC_L_D2S1,P20,60.0200605242,02,C,2015_Feb_26_1408,Y,
stim/posf.jpg,stim/negf.jpg,stim/4.jpg,stim/3.jpg,stim/latef.jpg,EF,2,4,0,1,1,50,,,,,,,,,,,,,,,,,,4,1,0.932988363202,,,,,,PLC_L_D2S1,P20,60.0200605242,02,C,2015_Feb_26_1408,Y,
stim/negf.jpg,stim/posf.jpg,stim/5.jpg,stim/6.jpg,stim/latef.jpg,CD,2,4,0,2,2,37,,,,,,,,,,,,,,,,,,2,0,0.633169815151,,,,,,PLC_L_D2S1,P20,60.0200605242,02,C,2015_Feb_26_1408,Y,
stim/posf.jpg,stim/negf.jpg,stim/5.jpg,stim/6.jpg,stim/latef.jpg,CD,2,4,0,3,3,35,,,,,,,,,,,,,,,,,,2,0,0.716424870583,,,,,,PLC_L_D2S1,P20,60.0200605242,02,C,2015_Feb_26_1408,Y,
stim/negf.jpg,stim/posf.jpg,stim/6.jpg,stim/5.jpg,stim/latef.jpg,CD,1,2,0,4,4,27,,,,,,,,,,,,,,,,,,4,0,0.666428866057,,,,,,PLC_L_D2S1,P20,60.0200605242,02,C,2015_Feb_26_1408,Y,
stim/negf.jpg,stim/posf.jpg,stim/1.jpg,stim/2.jpg,stim/latef.jpg,AB,2,4,0,5,5,19,,,,,,,,,,,,,,,,,,4,1,0.883049585528,,,,,,PLC_L_D2S1,P20,60.0200605242,02,C,2015_Feb_26_1408,Y,
stim/posf.jpg,stim/negf.jpg,stim/2.jpg,stim/1.jpg,stim/latef.jpg,AB,1,2,0,6,6,6,,,,,,,,,,,,,,,,,,4,0,0.949702047737,,,,,,PLC_L_D2S1,P20,60.0200605242,02,C,2015_Feb_26_1408,Y,
stim/negf.jpg,stim/posf.jpg,stim/4.jpg,stim/3.jpg,stim/latef.jpg,EF,2,4,0,7,7,56,,,,,,,,,,,,,,,,,,4,1,0.716422858561,,,,,,PLC_L_D2S1,P20,60.0200605242,02,C,2015_Feb_26_1408,Y,
stim/negf.jpg,stim/posf.jpg,stim/1.jpg,stim/2.jpg,stim/latef.jpg,AB,2,4,0,8,8,18,,,,,,,,,,,,,,,,,,4,1,1.41617809557,,,,,,PLC_L_D2S1,P20,60.0200605242,02,C,2015_Feb_26_1408,Y,
stim/posf.jpg,stim/negf.jpg,stim/5.jpg,stim/6.jpg,stim/latef.jpg,CD,2,4,0,9,9,33,,,,,,,,,,,,,,,,,,2,0,0.649779518122,,,,,,PLC_L_D2S1,P20,60.0200605242,02,C,2015_Feb_26_1408,Y,
stim/negf.jpg,stim/posf.jpg,stim/4.jpg,stim/3.jpg,stim/latef.jpg,EF,2,4,0,10,10,59,,,,,,,,,,,,,,,,,,4,1,0.999640822403,,,,,,PLC_L_D2S1,P20,60.0200605242,02,C,2015_Feb_26_1408,Y,
stim/posf.jpg,stim/negf.jpg,stim/1.jpg,stim/2.jpg,stim/latef.jpg,AB,2,4,0,11,11,13,,,,,,,,,,,,,,,,,,2,0,0.933021015711,,,,,,PLC_L_D2S1,P20,60.0200605242,02,C,2015_Feb_26_1408,Y,
stim/posf.jpg,stim/negf.jpg,stim/1.jpg,stim/2.jpg,stim/latef.jpg,AB,2,4,0,12,12,12,,,,,,,,,,,,,,,,,,4,1,0.749760495637,,,,,,PLC_L_D2S1,P20,60.0200605242,02,C,2015_Feb_26_1408,Y,
stim/posf.jpg,stim/negf.jpg,stim/3.jpg,stim/4.jpg,stim/latef.jpg,EF,1,2,0,13,13,41,,,,,,,,,,,,,,,,,,2,1,1.09963428709,,,,,,PLC_L_D2S1,P20,60.0200605242,02,C,2015_Feb_26_1408,Y,
stim/posf.jpg,stim/negf.jpg,stim/2.jpg,stim/1.jpg,stim/latef.jpg,AB,1,2,0,14,14,3,,,,,,,,,,,,,,,,,,2,1,1.01634472652,,,,,,PLC_L_D2S1,P20,60.0200605242,02,C,2015_Feb_26_1408,Y,
stim/posf.jpg,stim/negf.jpg,stim/6.jpg,stim/5.jpg,stim/latef.jpg,CD,1,2,0,15,15,20,,,,,,,,,,,,,,,,,,2,1,0.683033143484,,,,,,PLC_L_D2S1,P20,60.0200605242,02,C,2015_Feb_26_1408,Y,
stim/negf.jpg,stim/posf.jpg,stim/6.jpg,stim/5.jpg,stim/latef.jpg,CD,1,2,0,16,16,29,,,,,,,,,,,,,,,,,,2,1,0.71644793215,,,,,,PLC_L_D2S1,P20,60.0200605242,02,C,2015_Feb_26_1408,Y,
stim/posf.jpg,stim/negf.jpg,stim/2.jpg,stim/1.jpg,stim/latef.jpg,AB,1,2,0,17,17,7,,,,,,,,,,,,,,,,,,2,1,1.3829160131,,,,,,PLC_L_D2S1,P20,60.0200605242,02,C,2015_Feb_26_1408,Y,
stim/posf.jpg,stim/negf.jpg,stim/3.jpg,stim/4.jpg,stim/latef.jpg,EF,1,2,0,18,18,42,,,,,,,,,,,,,,,,,,2,1,0.783072165894,,,,,,PLC_L_D2S1,P20,60.0200605242,02,C,2015_Feb_26_1408,Y,
stim/posf.jpg,stim/negf.jpg,stim/6.jpg,stim/5.jpg,stim/latef.jpg,CD,1,2,0,19,19,25,,,,,,,,,,,,,,,,,,4,0,0.499810797704,,,,,,PLC_L_D2S1,P20,60.0200605242,02,C,2015_Feb_26_1408,Y,
stim/negf.jpg,stim/posf.jpg,stim/5.jpg,stim/6.jpg,stim/latef.jpg,CD,2,4,0,20,20,39,,,,,,,,,,,,,,,,,,4,1,0.599808000722,,,,,,PLC_L_D2S1,P20,60.0200605242,02,C,2015_Feb_26_1408,Y,
stim/posf.jpg,stim/negf.jpg,stim/4.jpg,stim/3.jpg,stim/latef.jpg,EF,2,4,0,21,21,53,,,,,,,,,,,,,,,,,,4,1,0.866407025537,,,,,,PLC_L_D2S1,P20,60.0200605242,02,C,2015_Feb_26_1408,Y,
stim/negf.jpg,stim/posf.jpg,stim/3.jpg,stim/4.jpg,stim/latef.jpg,EF,1,2,0,22,22,46,,,,,,,,,,,,,,,,,,2,1,0.816379902331,,,,,,PLC_L_D2S1,P20,60.0200605242,02,C,2015_Feb_26_1408,Y,
stim/posf.jpg,stim/negf.jpg,stim/3.jpg,stim/4.jpg,stim/latef.jpg,EF,1,2,0,23,23,45,,,,,,,,,,,,,,,,,,2,1,0.649801524054,,,,,,PLC_L_D2S1,P20,60.0200605242,02,C,2015_Feb_26_1408,Y,
stim/posf.jpg,stim/negf.jpg,stim/1.jpg,stim/2.jpg,stim/latef.jpg,AB,2,4,0,24,24,16,,,,,,,,,,,,,,,,,,2,0,0.949714850696,,,,,,PLC_L_D2S1,P20,60.0200605242,02,C,2015_Feb_26_1408,Y,
stim/posf.jpg,stim/negf.jpg,stim/1.jpg,stim/2.jpg,stim/latef.jpg,AB,2,4,0,25,25,11,,,,,,,,,,,,,,,,,,4,1,0.59980826839,,,,,,PLC_L_D2S1,P20,60.0200605242,02,C,2015_Feb_26_1408,Y,
stim/posf.jpg,stim/negf.jpg,stim/5.jpg,stim/6.jpg,stim/latef.jpg,CD,2,4,0,26,26,36,,,,,,,,,,,,,,,,,,4,1,0.849716652193,,,,,,PLC_L_D2S1,P20,60.0200605242,02,C,2015_Feb_26_1408,Y,
stim/posf.jpg,stim/negf.jpg,stim/4.jpg,stim/3.jpg,stim/latef.jpg,EF,2,4,0,27,27,52,,,,,,,,,,,,,,,,,,4,1,0.849723903294,,,,,,PLC_L_D2S1,P20,60.0200605242,02,C,2015_Feb_26_1408,Y,
stim/posf.jpg,stim/negf.jpg,stim/1.jpg,stim/2.jpg,stim/latef.jpg,AB,2,4,0,28,28,10,,,,,,,,,,,,,,,,,,4,1,0.633136762644,,,,,,PLC_L_D2S1,P20,60.0200605242,02,C,2015_Feb_26_1408,Y,
stim/posf.jpg,stim/negf.jpg,stim/3.jpg,stim/4.jpg,stim/latef.jpg,EF,1,2,0,29,29,44,,,,,,,,,,,,,,,,,,2,1,0.733058459179,,,,,,PLC_L_D2S1,P20,60.0200605242,02,C,2015_Feb_26_1408,Y,
stim/posf.jpg,stim/negf.jpg,stim/2.jpg,stim/1.jpg,stim/latef.jpg,AB,1,2,0,30,30,5,,,,,,,,,,,,,,,,,,2,1,0.666433440476,,,,,,PLC_L_D2S1,P20,60.0200605242,02,C,2015_Feb_26_1408,Y,
stim/posf.jpg,stim/negf.jpg,stim/4.jpg,stim/3.jpg,stim/latef.jpg,EF,2,4,0,31,31,54,,,,,,,,,,,,,,,,,,4,1,1.08297841587,,,,,,PLC_L_D2S1,P20,60.0200605242,02,C,2015_Feb_26_1408,Y,
stim/posf.jpg,stim/negf.jpg,stim/3.jpg,stim/4.jpg,stim/latef.jpg,EF,1,2,0,32,32,40,,,,,,,,,,,,,,,,,,2,1,0.616473035816,,,,,,PLC_L_D2S1,P20,60.0200605242,02,C,2015_Feb_26_1408,Y,
stim/negf.jpg,stim/posf.jpg,stim/2.jpg,stim/1.jpg,stim/latef.jpg,AB,1,2,0,33,33,8,,,,,,,,,,,,,,,,,,2,1,0.749717274747,,,,,,PLC_L_D2S1,P20,60.0200605242,02,C,2015_Feb_26_1408,Y,
stim/posf.jpg,stim/negf.jpg,stim/6.jpg,stim/5.jpg,stim/latef.jpg,CD,1,2,0,34,34,26,,,,,,,,,,,,,,,,,,2,1,0.633103986827,,,,,,PLC_L_D2S1,P20,60.0200605242,02,C,2015_Feb_26_1408,Y,
stim/posf.jpg,stim/negf.jpg,stim/5.jpg,stim/6.jpg,stim/latef.jpg,CD,2,4,0,35,35,30,,,,,,,,,,,,,,,,,,4,1,0.649774582802,,,,,,PLC_L_D2S1,P20,60.0200605242,02,C,2015_Feb_26_1408,Y,
stim/posf.jpg,stim/negf.jpg,stim/2.jpg,stim/1.jpg,stim/latef.jpg,AB,1,2,0,36,36,4,,,,,,,,,,,,,,,,,,2,1,0.749670938079,,,,,,PLC_L_D2S1,P20,60.0200605242,02,C,2015_Feb_26_1408,Y,
stim/posf.jpg,stim/negf.jpg,stim/6.jpg,stim/5.jpg,stim/latef.jpg,CD,1,2,0,37,37,23,,,,,,,,,,,,,,,,,,2,1,0.683081224507,,,,,,PLC_L_D2S1,P20,60.0200605242,02,C,2015_Feb_26_1408,Y,
stim/negf.jpg,stim/posf.jpg,stim/3.jpg,stim/4.jpg,stim/latef.jpg,EF,1,2,0,38,38,47,,,,,,,,,,,,,,,,,,2,1,0.699769979812,,,,,,PLC_L_D2S1,P20,60.0200605242,02,C,2015_Feb_26_1408,Y,
stim/posf.jpg,stim/negf.jpg,stim/6.jpg,stim/5.jpg,stim/latef.jpg,CD,1,2,0,39,39,24,,,,,,,,,,,,,,,,,,2,1,0.549882471119,,,,,,PLC_L_D2S1,P20,60.0200605242,02,C,2015_Feb_26_1408,Y,
stim/posf.jpg,stim/negf.jpg,stim/4.jpg,stim/3.jpg,stim/latef.jpg,EF,2,4,0,40,40,55,,,,,,,,,,,,,,,,,,4,1,0.699843534423,,,,,,PLC_L_D2S1,P20,60.0200605242,02,C,2015_Feb_26_1408,Y,
stim/posf.jpg,stim/negf.jpg,stim/5.jpg,stim/6.jpg,stim/latef.jpg,CD,2,4,0,41,41,32,,,,,,,,,,,,,,,,,,4,1,0.666444670509,,,,,,PLC_L_D2S1,P20,60.0200605242,02,C,2015_Feb_26_1408,Y,
stim/posf.jpg,stim/negf.jpg,stim/1.jpg,stim/2.jpg,stim/latef.jpg,AB,2,4,0,42,42,17,,,,,,,,,,,,,,,,,,4,1,0.882954596411,,,,,,PLC_L_D2S1,P20,60.0200605242,02,C,2015_Feb_26_1408,Y,
stim/posf.jpg,stim/negf.jpg,stim/5.jpg,stim/6.jpg,stim/latef.jpg,CD,2,4,0,43,43,34,,,,,,,,,,,,,,,,,,4,1,0.716335267912,,,,,,PLC_L_D2S1,P20,60.0200605242,02,C,2015_Feb_26_1408,Y,
stim/posf.jpg,stim/negf.jpg,stim/6.jpg,stim/5.jpg,stim/latef.jpg,CD,1,2,0,44,44,21,,,,,,,,,,,,,,,,,,2,1,0.64977872414,,,,,,PLC_L_D2S1,P20,60.0200605242,02,C,2015_Feb_26_1408,Y,
stim/negf.jpg,stim/posf.jpg,stim/4.jpg,stim/3.jpg,stim/latef.jpg,EF,2,4,0,45,45,57,,,,,,,,,,,,,,,,,,4,1,0.549815996181,,,,,,PLC_L_D2S1,P20,60.0200605242,02,C,2015_Feb_26_1408,Y,
stim/negf.jpg,stim/posf.jpg,stim/4.jpg,stim/3.jpg,stim/latef.jpg,EF,2,4,0,46,46,58,,,,,,,,,,,,,,,,,,4,1,0.516467213281,,,,,,PLC_L_D2S1,P20,60.0200605242,02,C,2015_Feb_26_1408,Y,
stim/posf.jpg,stim/negf.jpg,stim/1.jpg,stim/2.jpg,stim/latef.jpg,AB,2,4,0,47,47,15,,,,,,,,,,,,,,,,,,4,1,0.783080268119,,,,,,PLC_L_D2S1,P20,60.0200605242,02,C,2015_Feb_26_1408,Y,
stim/posf.jpg,stim/negf.jpg,stim/1.jpg,stim/2.jpg,stim/latef.jpg,AB,2,4,0,48,48,14,,,,,,,,,,,,,,,,,,4,1,0.549810757102,,,,,,PLC_L_D2S1,P20,60.0200605242,02,C,2015_Feb_26_1408,Y,
stim/posf.jpg,stim/negf.jpg,stim/5.jpg,stim/6.jpg,stim/latef.jpg,CD,2,4,0,49,49,31,,,,,,,,,,,,,,,,,,4,1,0.683109251469,,,,,,PLC_L_D2S1,P20,60.0200605242,02,C,2015_Feb_26_1408,Y,
stim/negf.jpg,stim/posf.jpg,stim/3.jpg,stim/4.jpg,stim/latef.jpg,EF,1,2,0,50,50,48,,,,,,,,,,,,,,,,,,2,1,0.733171733941,,,,,,PLC_L_D2S1,P20,60.0200605242,02,C,2015_Feb_26_1408,Y,
stim/posf.jpg,stim/negf.jpg,stim/3.jpg,stim/4.jpg,stim/latef.jpg,EF,1,2,0,51,51,43,,,,,,,,,,,,,,,,,,2,1,0.566481199695,,,,,,PLC_L_D2S1,P20,60.0200605242,02,C,2015_Feb_26_1408,Y,
stim/posf.jpg,stim/negf.jpg,stim/2.jpg,stim/1.jpg,stim/latef.jpg,AB,1,2,0,52,52,1,,,,,,,,,,,,,,,,,,2,1,0.649796119563,,,,,,PLC_L_D2S1,P20,60.0200605242,02,C,2015_Feb_26_1408,Y,
stim/posf.jpg,stim/negf.jpg,stim/2.jpg,stim/1.jpg,stim/latef.jpg,AB,1,2,0,53,53,0,,,,,,,,,,,,,,,,,,2,1,0.599796133097,,,,,,PLC_L_D2S1,P20,60.0200605242,02,C,2015_Feb_26_1408,Y,
stim/posf.jpg,stim/negf.jpg,stim/6.jpg,stim/5.jpg,stim/latef.jpg,CD,1,2,0,54,54,22,,,,,,,,,,,,,,,,,,2,1,0.649763918181,,,,,,PLC_L_D2S1,P20,60.0200605242,02,C,2015_Feb_26_1408,Y,
stim/posf.jpg,stim/negf.jpg,stim/4.jpg,stim/3.jpg,stim/latef.jpg,EF,2,4,0,55,55,51,,,,,,,,,,,,,,,,,,4,1,0.666430887102,,,,,,PLC_L_D2S1,P20,60.0200605242,02,C,2015_Feb_26_1408,Y,
stim/negf.jpg,stim/posf.jpg,stim/6.jpg,stim/5.jpg,stim/latef.jpg,CD,1,2,0,56,56,28,,,,,,,,,,,,,,,,,,2,1,0.483169687332,,,,,,PLC_L_D2S1,P20,60.0200605242,02,C,2015_Feb_26_1408,Y,
stim/negf.jpg,stim/posf.jpg,stim/3.jpg,stim/4.jpg,stim/latef.jpg,EF,1,2,0,57,57,49,,,,,,,,,,,,,,,,,,2,1,0.516494166563,,,,,,PLC_L_D2S1,P20,60.0200605242,02,C,2015_Feb_26_1408,Y,
stim/negf.jpg,stim/posf.jpg,stim/2.jpg,stim/1.jpg,stim/latef.jpg,AB,1,2,0,58,58,9,,,,,,,,,,,,,,,,,,2,1,0.566459837369,,,,,,PLC_L_D2S1,P20,60.0200605242,02,C,2015_Feb_26_1408,Y,
stim/negf.jpg,stim/posf.jpg,stim/5.jpg,stim/6.jpg,stim/latef.jpg,CD,2,4,0,59,59,38,,,,,,,,,,,,,,,,,,4,1,0.566492742508,,,,,,PLC_L_D2S1,P20,60.0200605242,02,C,2015_Feb_26_1408,Y,
,,,,,,,,,,,,,,,,,,,,,,,,,,,,,,,,0.9984375,1.0,1,0,0,PLC_L_D2S1,P20,60.0200605242,02,C,2015_Feb_26_1408,Y,
stim/posf.jpg,stim/negf.jpg,stim/1.jpg,stim/2.jpg,stim/latef.jpg,AB,2,4,,,,,0,0,0,13,,,,,,,,,,,,,,4,1,0.766399864662,,,,,,PLC_L_D2S1,P20,60.0200605242,02,C,2015_Feb_26_1408,Y,
stim/negf.jpg,stim/posf.jpg,stim/3.jpg,stim/4.jpg,stim/latef.jpg,EF,1,2,,,,,0,1,1,48,,,,,,,,,,,,,,2,1,0.783074617013,,,,,,PLC_L_D2S1,P20,60.0200605242,02,C,2015_Feb_26_1408,Y,
stim/posf.jpg,stim/negf.jpg,stim/2.jpg,stim/1.jpg,stim/latef.jpg,AB,1,2,,,,,0,2,2,1,,,,,,,,,,,,,,2,1,0.533150612216,,,,,,PLC_L_D2S1,P20,60.0200605242,02,C,2015_Feb_26_1408,Y,
stim/posf.jpg,stim/negf.jpg,stim/3.jpg,stim/4.jpg,stim/latef.jpg,EF,1,2,,,,,0,3,3,44,,,,,,,,,,,,,,2,1,0.54974352728,,,,,,PLC_L_D2S1,P20,60.0200605242,02,C,2015_Feb_26_1408,Y,
stim/negf.jpg,stim/posf.jpg,stim/4.jpg,stim/3.jpg,stim/latef.jpg,EF,2,4,,,,,0,4,4,58,,,,,,,,,,,,,,4,1,0.816373583558,,,,,,PLC_L_D2S1,P20,60.0200605242,02,C,2015_Feb_26_1408,Y,
stim/posf.jpg,stim/negf.jpg,stim/6.jpg,stim/5.jpg,stim/latef.jpg,CD,1,2,,,,,0,5,5,23,,,,,,,,,,,,,,2,1,0.583140162631,,,,,,PLC_L_D2S1,P20,60.0200605242,02,C,2015_Feb_26_1408,Y,
stim/posf.jpg,stim/negf.jpg,stim/2.jpg,stim/1.jpg,stim/latef.jpg,AB,1,2,,,,,0,6,6,5,,,,,,,,,,,,,,2,1,0.733105478551,,,,,,PLC_L_D2S1,P20,60.0200605242,02,C,2015_Feb_26_1408,Y,
stim/posf.jpg,stim/negf.jpg,stim/6.jpg,stim/5.jpg,stim/latef.jpg,CD,1,2,,,,,0,7,7,22,,,,,,,,,,,,,,2,1,0.849736185954,,,,,,PLC_L_D2S1,P20,60.0200605242,02,C,2015_Feb_26_1408,Y,
stim/posf.jpg,stim/negf.jpg,stim/4.jpg,stim/3.jpg,stim/latef.jpg,EF,2,4,,,,,0,8,8,55,,,,,,,,,,,,,,4,1,0.683157257303,,,,,,PLC_L_D2S1,P20,60.0200605242,02,C,2015_Feb_26_1408,Y,
stim/negf.jpg,stim/posf.jpg,stim/2.jpg,stim/1.jpg,stim/latef.jpg,AB,1,2,,,,,0,9,9,9,,,,,,,,,,,,,,2,1,0.54981066387,,,,,,PLC_L_D2S1,P20,60.0200605242,02,C,2015_Feb_26_1408,Y,
stim/posf.jpg,stim/negf.jpg,stim/2.jpg,stim/1.jpg,stim/latef.jpg,AB,1,2,,,,,0,10,10,4,,,,,,,,,,,,,,2,1,0.583128403277,,,,,,PLC_L_D2S1,P20,60.0200605242,02,C,2015_Feb_26_1408,Y,
stim/posf.jpg,stim/negf.jpg,stim/2.jpg,stim/1.jpg,stim/latef.jpg,AB,1,2,,,,,0,11,11,0,,,,,,,,,,,,,,2,1,0.499872105744,,,,,,PLC_L_D2S1,P20,60.0200605242,02,C,2015_Feb_26_1408,Y,
stim/posf.jpg,stim/negf.jpg,stim/2.jpg,stim/1.jpg,stim/latef.jpg,AB,1,2,,,,,0,12,12,7,,,,,,,,,,,,,,2,1,0.533206999974,,,,,,PLC_L_D2S1,P20,60.0200605242,02,C,2015_Feb_26_1408,Y,
stim/posf.jpg,stim/negf.jpg,stim/3.jpg,stim/4.jpg,stim/latef.jpg,EF,1,2,,,,,0,13,13,41,,,,,,,,,,,,,,2,1,0.64977567152,,,,,,PLC_L_D2S1,P20,60.0200605242,02,C,2015_Feb_26_1408,Y,
stim/negf.jpg,stim/posf.jpg,stim/5.jpg,stim/6.jpg,stim/latef.jpg,CD,2,4,,,,,0,14,14,39,,,,,,,,,,,,,,4,1,0.599854707313,,,,,,PLC_L_D2S1,P20,60.0200605242,02,C,2015_Feb_26_1408,Y,
stim/posf.jpg,stim/negf.jpg,stim/6.jpg,stim/5.jpg,stim/latef.jpg,CD,1,2,,,,,0,15,15,26,,,,,,,,,,,,,,2,1,0.599782463976,,,,,,PLC_L_D2S1,P20,60.0200605242,02,C,2015_Feb_26_1408,Y,
stim/posf.jpg,stim/negf.jpg,stim/1.jpg,stim/2.jpg,stim/latef.jpg,AB,2,4,,,,,0,16,16,10,,,,,,,,,,,,,,4,1,0.749748441547,,,,,,PLC_L_D2S1,P20,60.0200605242,02,C,2015_Feb_26_1408,Y,
stim/posf.jpg,stim/negf.jpg,stim/1.jpg,stim/2.jpg,stim/latef.jpg,AB,2,4,,,,,0,17,17,14,,,,,,,,,,,,,,4,1,0.649813635287,,,,,,PLC_L_D2S1,P20,60.0200605242,02,C,2015_Feb_26_1408,Y,
stim/posf.jpg,stim/negf.jpg,stim/6.jpg,stim/5.jpg,stim/latef.jpg,CD,1,2,,,,,0,18,18,21,,,,,,,,,,,,,,2,1,0.583143335551,,,,,,PLC_L_D2S1,P20,60.0200605242,02,C,2015_Feb_26_1408,Y,
stim/posf.jpg,stim/negf.jpg,stim/5.jpg,stim/6.jpg,stim/latef.jpg,CD,2,4,,,,,0,19,19,30,,,,,,,,,,,,,,4,1,0.466550068609,,,,,,PLC_L_D2S1,P20,60.0200605242,02,C,2015_Feb_26_1408,Y,
stim/posf.jpg,stim/negf.jpg,stim/5.jpg,stim/6.jpg,stim/latef.jpg,CD,2,4,,,,,0,20,20,33,,,,,,,,,,,,,,4,1,0.53315924677,,,,,,PLC_L_D2S1,P20,60.0200605242,02,C,2015_Feb_26_1408,Y,
stim/posf.jpg,stim/negf.jpg,stim/1.jpg,stim/2.jpg,stim/latef.jpg,AB,2,4,,,,,0,21,21,15,,,,,,,,,,,,,,4,1,0.766462324578,,,,,,PLC_L_D2S1,P20,60.0200605242,02,C,2015_Feb_26_1408,Y,
stim/posf.jpg,stim/negf.jpg,stim/4.jpg,stim/3.jpg,stim/latef.jpg,EF,2,4,,,,,0,22,22,54,,,,,,,,,,,,,,4,1,0.71642786606,,,,,,PLC_L_D2S1,P20,60.0200605242,02,C,2015_Feb_26_1408,Y,
stim/posf.jpg,stim/negf.jpg,stim/1.jpg,stim/2.jpg,stim/latef.jpg,AB,2,4,,,,,0,23,23,17,,,,,,,,,,,,,,4,1,0.716421180372,,,,,,PLC_L_D2S1,P20,60.0200605242,02,C,2015_Feb_26_1408,Y,
stim/negf.jpg,stim/posf.jpg,stim/6.jpg,stim/5.jpg,stim/latef.jpg,CD,1,2,,,,,0,24,24,29,,,,,,,,,,,,,,2,1,0.649776838433,,,,,,PLC_L_D2S1,P20,60.0200605242,02,C,2015_Feb_26_1408,Y,
stim/negf.jpg,stim/posf.jpg,stim/1.jpg,stim/2.jpg,stim/latef.jpg,AB,2,4,,,,,0,25,25,19,,,,,,,,,,,,,,4,1,0.666396027083,,,,,,PLC_L_D2S1,P20,60.0200605242,02,C,2015_Feb_26_1408,Y,
stim/negf.jpg,stim/posf.jpg,stim/5.jpg,stim/6.jpg,stim/latef.jpg,CD,2,4,,,,,0,26,26,38,,,,,,,,,,,,,,4,1,0.566489527483,,,,,,PLC_L_D2S1,P20,60.0200605242,02,C,2015_Feb_26_1408,Y,
stim/negf.jpg,stim/posf.jpg,stim/3.jpg,stim/4.jpg,stim/latef.jpg,EF,1,2,,,,,0,27,27,47,,,,,,,,,,,,,,2,1,0.683109092071,,,,,,PLC_L_D2S1,P20,60.0200605242,02,C,2015_Feb_26_1408,Y,
stim/negf.jpg,stim/posf.jpg,stim/4.jpg,stim/3.jpg,stim/latef.jpg,EF,2,4,,,,,0,28,28,56,,,,,,,,,,,,,,4,1,0.499848668238,,,,,,PLC_L_D2S1,P20,60.0200605242,02,C,2015_Feb_26_1408,Y,
stim/posf.jpg,stim/negf.jpg,stim/6.jpg,stim/5.jpg,stim/latef.jpg,CD,1,2,,,,,0,29,29,24,,,,,,,,,,,,,,2,1,0.499841871271,,,,,,PLC_L_D2S1,P20,60.0200605242,02,C,2015_Feb_26_1408,Y,
stim/posf.jpg,stim/negf.jpg,stim/2.jpg,stim/1.jpg,stim/latef.jpg,AB,1,2,,,,,0,30,30,2,,,,,,,,,,,,,,4,0,0.633106365766,,,,,,PLC_L_D2S1,P20,60.0200605242,02,C,2015_Feb_26_1408,Y,
stim/negf.jpg,stim/posf.jpg,stim/5.jpg,stim/6.jpg,stim/latef.jpg,CD,2,4,,,,,0,31,31,37,,,,,,,,,,,,,,4,1,0.46645821933,,,,,,PLC_L_D2S1,P20,60.0200605242,02,C,2015_Feb_26_1408,Y,
stim/posf.jpg,stim/negf.jpg,stim/5.jpg,stim/6.jpg,stim/latef.jpg,CD,2,4,,,,,0,32,32,36,,,,,,,,,,,,,,4,1,0.49979623836,,,,,,PLC_L_D2S1,P20,60.0200605242,02,C,2015_Feb_26_1408,Y,
stim/posf.jpg,stim/negf.jpg,stim/2.jpg,stim/1.jpg,stim/latef.jpg,AB,1,2,,,,,0,33,33,3,,,,,,,,,,,,,,2,1,0.616467147116,,,,,,PLC_L_D2S1,P20,60.0200605242,02,C,2015_Feb_26_1408,Y,
stim/posf.jpg,stim/negf.jpg,stim/3.jpg,stim/4.jpg,stim/latef.jpg,EF,1,2,,,,,0,34,34,40,,,,,,,,,,,,,,2,1,0.599798340608,,,,,,PLC_L_D2S1,P20,60.0200605242,02,C,2015_Feb_26_1408,Y,
stim/posf.jpg,stim/negf.jpg,stim/2.jpg,stim/1.jpg,stim/latef.jpg,AB,1,2,,,,,0,35,35,6,,,,,,,,,,,,,,2,1,0.549817716475,,,,,,PLC_L_D2S1,P20,60.0200605242,02,C,2015_Feb_26_1408,Y,
stim/posf.jpg,stim/negf.jpg,stim/1.jpg,stim/2.jpg,stim/latef.jpg,AB,2,4,,,,,0,36,36,12,,,,,,,,,,,,,,4,1,0.58319679099,,,,,,PLC_L_D2S1,P20,60.0200605242,02,C,2015_Feb_26_1408,Y,
stim/posf.jpg,stim/negf.jpg,stim/1.jpg,stim/2.jpg,stim/latef.jpg,AB,2,4,,,,,0,37,37,11,,,,,,,,,,,,,,4,1,0.61646276217,,,,,,PLC_L_D2S1,P20,60.0200605242,02,C,2015_Feb_26_1408,Y,
stim/posf.jpg,stim/negf.jpg,stim/4.jpg,stim/3.jpg,stim/latef.jpg,EF,2,4,,,,,0,38,38,51,,,,,,,,,,,,,,4,1,0.699734779944,,,,,,PLC_L_D2S1,P20,60.0200605242,02,C,2015_Feb_26_1408,Y,
stim/posf.jpg,stim/negf.jpg,stim/4.jpg,stim/3.jpg,stim/latef.jpg,EF,2,4,,,,,0,39,39,53,,,,,,,,,,,,,,4,1,0.649816224751,,,,,,PLC_L_D2S1,P20,60.0200605242,02,C,2015_Feb_26_1408,Y,
stim/negf.jpg,stim/posf.jpg,stim/6.jpg,stim/5.jpg,stim/latef.jpg,CD,1,2,,,,,0,40,40,28,,,,,,,,,,,,,,2,1,0.66640810824,,,,,,PLC_L_D2S1,P20,60.0200605242,02,C,2015_Feb_26_1408,Y,
stim/posf.jpg,stim/negf.jpg,stim/4.jpg,stim/3.jpg,stim/latef.jpg,EF,2,4,,,,,0,41,41,50,,,,,,,,,,,,,,4,1,0.516511998075,,,,,,PLC_L_D2S1,P20,60.0200605242,02,C,2015_Feb_26_1408,Y,
stim/posf.jpg,stim/negf.jpg,stim/6.jpg,stim/5.jpg,stim/latef.jpg,CD,1,2,,,,,0,42,42,25,,,,,,,,,,,,,,2,1,0.533180317367,,,,,,PLC_L_D2S1,P20,60.0200605242,02,C,2015_Feb_26_1408,Y,
stim/negf.jpg,stim/posf.jpg,stim/3.jpg,stim/4.jpg,stim/latef.jpg,EF,1,2,,,,,0,43,43,46,,,,,,,,,,,,,,2,1,0.516484121488,,,,,,PLC_L_D2S1,P20,60.0200605242,02,C,2015_Feb_26_1408,Y,
stim/negf.jpg,stim/posf.jpg,stim/3.jpg,stim/4.jpg,stim/latef.jpg,EF,1,2,,,,,0,44,44,49,,,,,,,,,,,,,,2,1,0.499838415645,,,,,,PLC_L_D2S1,P20,60.0200605242,02,C,2015_Feb_26_1408,Y,
stim/posf.jpg,stim/negf.jpg,stim/5.jpg,stim/6.jpg,stim/latef.jpg,CD,2,4,,,,,0,45,45,32,,,,,,,,,,,,,,4,1,0.516507471777,,,,,,PLC_L_D2S1,P20,60.0200605242,02,C,2015_Feb_26_1408,Y,
stim/posf.jpg,stim/negf.jpg,stim/3.jpg,stim/4.jpg,stim/latef.jpg,EF,1,2,,,,,0,46,46,45,,,,,,,,,,,,,,2,1,1.04963878482,,,,,,PLC_L_D2S1,P20,60.0200605242,02,C,2015_Feb_26_1408,Y,
stim/negf.jpg,stim/posf.jpg,stim/4.jpg,stim/3.jpg,stim/latef.jpg,EF,2,4,,,,,0,47,47,59,,,,,,,,,,,,,,4,1,0.633118747674,,,,,,PLC_L_D2S1,P20,60.0200605242,02,C,2015_Feb_26_1408,Y,
stim/posf.jpg,stim/negf.jpg,stim/6.jpg,stim/5.jpg,stim/latef.jpg,CD,1,2,,,,,0,48,48,20,,,,,,,,,,,,,,2,1,0.749761091124,,,,,,PLC_L_D2S1,P20,60.0200605242,02,C,2015_Feb_26_1408,Y,
stim/posf.jpg,stim/negf.jpg,stim/5.jpg,stim/6.jpg,stim/latef.jpg,CD,2,4,,,,,0,49,49,31,,,,,,,,,,,,,,4,1,0.633053875737,,,,,,PLC_L_D2S1,P20,60.0200605242,02,C,2015_Feb_26_1408,Y,
stim/posf.jpg,stim/negf.jpg,stim/5.jpg,stim/6.jpg,stim/latef.jpg,CD,2,4,,,,,0,50,50,35,,,,,,,,,,,,,,4,1,0.633197153394,,,,,,PLC_L_D2S1,P20,60.0200605242,02,C,2015_Feb_26_1408,Y,
stim/negf.jpg,stim/posf.jpg,stim/2.jpg,stim/1.jpg,stim/latef.jpg,AB,1,2,,,,,0,51,51,8,,,,,,,,,,,,,,2,1,0.633087277116,,,,,,PLC_L_D2S1,P20,60.0200605242,02,C,2015_Feb_26_1408,Y,
stim/posf.jpg,stim/negf.jpg,stim/5.jpg,stim/6.jpg,stim/latef.jpg,CD,2,4,,,,,0,52,52,34,,,,,,,,,,,,,,4,1,0.599786241405,,,,,,PLC_L_D2S1,P20,60.0200605242,02,C,2015_Feb_26_1408,Y,
stim/negf.jpg,stim/posf.jpg,stim/6.jpg,stim/5.jpg,stim/latef.jpg,CD,1,2,,,,,0,53,53,27,,,,,,,,,,,,,,2,1,0.499769892594,,,,,,PLC_L_D2S1,P20,60.0200605242,02,C,2015_Feb_26_1408,Y,
stim/negf.jpg,stim/posf.jpg,stim/4.jpg,stim/3.jpg,stim/latef.jpg,EF,2,4,,,,,0,54,54,57,,,,,,,,,,,,,,4,1,0.51649088838,,,,,,PLC_L_D2S1,P20,60.0200605242,02,C,2015_Feb_26_1408,Y,
stim/negf.jpg,stim/posf.jpg,stim/1.jpg,stim/2.jpg,stim/latef.jpg,AB,2,4,,,,,0,55,55,18,,,,,,,,,,,,,,4,1,0.849742483675,,,,,,PLC_L_D2S1,P20,60.0200605242,02,C,2015_Feb_26_1408,Y,
stim/posf.jpg,stim/negf.jpg,stim/3.jpg,stim/4.jpg,stim/latef.jpg,EF,1,2,,,,,0,56,56,42,,,,,,,,,,,,,,2,1,0.64981287138,,,,,,PLC_L_D2S1,P20,60.0200605242,02,C,2015_Feb_26_1408,Y,
stim/posf.jpg,stim/negf.jpg,stim/4.jpg,stim/3.jpg,stim/latef.jpg,EF,2,4,,,,,0,57,57,52,,,,,,,,,,,,,,4,1,0.616437423919,,,,,,PLC_L_D2S1,P20,60.0200605242,02,C,2015_Feb_26_1408,Y,
stim/posf.jpg,stim/negf.jpg,stim/3.jpg,stim/4.jpg,stim/latef.jpg,EF,1,2,,,,,0,58,58,43,,,,,,,,,,,,,,2,1,0.566477726024,,,,,,PLC_L_D2S1,P20,60.0200605242,02,C,2015_Feb_26_1408,Y,
stim/posf.jpg,stim/negf.jpg,stim/1.jpg,stim/2.jpg,stim/latef.jpg,AB,2,4,,,,,0,59,59,16,,,,,,,,,,,,,,4,1,0.599720349923,,,,,,PLC_L_D2S1,P20,60.0200605242,02,C,2015_Feb_26_1408,Y,
,,,,,,,,,,,,,,,,,,,,,,,,,,,,,,,,0.9984375,1.0,1,0,0,PLC_L_D2S1,P20,60.0200605242,02,C,2015_Feb_26_1408,Y,
stim/posf.jpg,stim/negf.jpg,stim/5.jpg,stim/6.jpg,stim/latef.jpg,CD,2,4,,,,,,,,,0,0,0,34,,,,,,,,,,4,1,0.783034767538,,,,,,PLC_L_D2S1,P20,60.0200605242,02,C,2015_Feb_26_1408,Y,
stim/posf.jpg,stim/negf.jpg,stim/4.jpg,stim/3.jpg,stim/latef.jpg,EF,2,4,,,,,,,,,0,1,1,54,,,,,,,,,,4,1,0.599802650366,,,,,,PLC_L_D2S1,P20,60.0200605242,02,C,2015_Feb_26_1408,Y,
stim/posf.jpg,stim/negf.jpg,stim/5.jpg,stim/6.jpg,stim/latef.jpg,CD,2,4,,,,,,,,,0,2,2,31,,,,,,,,,,4,1,0.583144962613,,,,,,PLC_L_D2S1,P20,60.0200605242,02,C,2015_Feb_26_1408,Y,
stim/negf.jpg,stim/posf.jpg,stim/3.jpg,stim/4.jpg,stim/latef.jpg,EF,1,2,,,,,,,,,0,3,3,49,,,,,,,,,,2,1,0.583148198691,,,,,,PLC_L_D2S1,P20,60.0200605242,02,C,2015_Feb_26_1408,Y,
stim/posf.jpg,stim/negf.jpg,stim/2.jpg,stim/1.jpg,stim/latef.jpg,AB,1,2,,,,,,,,,0,4,4,2,,,,,,,,,,2,1,0.849729807031,,,,,,PLC_L_D2S1,P20,60.0200605242,02,C,2015_Feb_26_1408,Y,
stim/posf.jpg,stim/negf.jpg,stim/3.jpg,stim/4.jpg,stim/latef.jpg,EF,1,2,,,,,,,,,0,5,5,45,,,,,,,,,,2,1,0.883085988399,,,,,,PLC_L_D2S1,P20,60.0200605242,02,C,2015_Feb_26_1408,Y,
stim/posf.jpg,stim/negf.jpg,stim/3.jpg,stim/4.jpg,stim/latef.jpg,EF,1,2,,,,,,,,,0,6,6,42,,,,,,,,,,2,1,0.749723813068,,,,,,PLC_L_D2S1,P20,60.0200605242,02,C,2015_Feb_26_1408,Y,
stim/posf.jpg,stim/negf.jpg,stim/6.jpg,stim/5.jpg,stim/latef.jpg,CD,1,2,,,,,,,,,0,7,7,24,,,,,,,,,,2,1,0.583156809185,,,,,,PLC_L_D2S1,P20,60.0200605242,02,C,2015_Feb_26_1408,Y,
stim/posf.jpg,stim/negf.jpg,stim/5.jpg,stim/6.jpg,stim/latef.jpg,CD,2,4,,,,,,,,,0,8,8,30,,,,,,,,,,4,1,1.04965191259,,,,,,PLC_L_D2S1,P20,60.0200605242,02,C,2015_Feb_26_1408,Y,
stim/posf.jpg,stim/negf.jpg,stim/3.jpg,stim/4.jpg,stim/latef.jpg,EF,1,2,,,,,,,,,0,9,9,40,,,,,,,,,,2,1,0.649796931591,,,,,,PLC_L_D2S1,P20,60.0200605242,02,C,2015_Feb_26_1408,Y,
stim/posf.jpg,stim/negf.jpg,stim/1.jpg,stim/2.jpg,stim/latef.jpg,AB,2,4,,,,,,,,,0,10,10,10,,,,,,,,,,4,1,0.699775853474,,,,,,PLC_L_D2S1,P20,60.0200605242,02,C,2015_Feb_26_1408,Y,
stim/negf.jpg,stim/posf.jpg,stim/6.jpg,stim/5.jpg,stim/latef.jpg,CD,1,2,,,,,,,,,0,11,11,28,,,,,,,,,,2,1,0.54979588197,,,,,,PLC_L_D2S1,P20,60.0200605242,02,C,2015_Feb_26_1408,Y,
stim/posf.jpg,stim/negf.jpg,stim/6.jpg,stim/5.jpg,stim/latef.jpg,CD,1,2,,,,,,,,,0,12,12,21,,,,,,,,,,2,1,0.683119254439,,,,,,PLC_L_D2S1,P20,60.0200605242,02,C,2015_Feb_26_1408,Y,
stim/posf.jpg,stim/negf.jpg,stim/1.jpg,stim/2.jpg,stim/latef.jpg,AB,2,4,,,,,,,,,0,13,13,13,,,,,,,,,,4,1,0.849725566445,,,,,,PLC_L_D2S1,P20,60.0200605242,02,C,2015_Feb_26_1408,Y,
stim/posf.jpg,stim/negf.jpg,stim/2.jpg,stim/1.jpg,stim/latef.jpg,AB,1,2,,,,,,,,,0,14,14,1,,,,,,,,,,2,1,0.733065668174,,,,,,PLC_L_D2S1,P20,60.0200605242,02,C,2015_Feb_26_1408,Y,
stim/posf.jpg,stim/negf.jpg,stim/4.jpg,stim/3.jpg,stim/latef.jpg,EF,2,4,,,,,,,,,0,15,15,52,,,,,,,,,,4,1,0.733074618516,,,,,,PLC_L_D2S1,P20,60.0200605242,02,C,2015_Feb_26_1408,Y,
stim/posf.jpg,stim/negf.jpg,stim/1.jpg,stim/2.jpg,stim/latef.jpg,AB,2,4,,,,,,,,,0,16,16,15,,,,,,,,,,4,1,0.549824477352,,,,,,PLC_L_D2S1,P20,60.0200605242,02,C,2015_Feb_26_1408,Y,
stim/negf.jpg,stim/posf.jpg,stim/2.jpg,stim/1.jpg,stim/latef.jpg,AB,1,2,,,,,,,,,0,17,17,8,,,,,,,,,,2,1,0.633115547686,,,,,,PLC_L_D2S1,P20,60.0200605242,02,C,2015_Feb_26_1408,Y,
stim/negf.jpg,stim/posf.jpg,stim/4.jpg,stim/3.jpg,stim/latef.jpg,EF,2,4,,,,,,,,,0,18,18,59,,,,,,,,,,4,1,0.633073256116,,,,,,PLC_L_D2S1,P20,60.0200605242,02,C,2015_Feb_26_1408,Y,
stim/posf.jpg,stim/negf.jpg,stim/2.jpg,stim/1.jpg,stim/latef.jpg,AB,1,2,,,,,,,,,0,19,19,6,,,,,,,,,,2,1,0.549825445769,,,,,,PLC_L_D2S1,P20,60.0200605242,02,C,2015_Feb_26_1408,Y,
stim/negf.jpg,stim/posf.jpg,stim/6.jpg,stim/5.jpg,stim/latef.jpg,CD,1,2,,,,,,,,,0,20,20,27,,,,,,,,,,2,1,0.583132066421,,,,,,PLC_L_D2S1,P20,60.0200605242,02,C,2015_Feb_26_1408,Y,
stim/negf.jpg,stim/posf.jpg,stim/1.jpg,stim/2.jpg,stim/latef.jpg,AB,2,4,,,,,,,,,0,21,21,18,,,,,,,,,,4,1,0.66640902553,,,,,,PLC_L_D2S1,P20,60.0200605242,02,C,2015_Feb_26_1408,Y,
stim/negf.jpg,stim/posf.jpg,stim/5.jpg,stim/6.jpg,stim/latef.jpg,CD,2,4,,,,,,,,,0,22,22,38,,,,,,,,,,4,1,0.583144225774,,,,,,PLC_L_D2S1,P20,60.0200605242,02,C,2015_Feb_26_1408,Y,
stim/posf.jpg,stim/negf.jpg,stim/3.jpg,stim/4.jpg,stim/latef.jpg,EF,1,2,,,,,,,,,0,23,23,44,,,,,,,,,,2,1,0.83306890726,,,,,,PLC_L_D2S1,P20,60.0200605242,02,C,2015_Feb_26_1408,Y,
stim/negf.jpg,stim/posf.jpg,stim/4.jpg,stim/3.jpg,stim/latef.jpg,EF,2,4,,,,,,,,,0,24,24,58,,,,,,,,,,4,1,0.949695852271,,,,,,PLC_L_D2S1,P20,60.0200605242,02,C,2015_Feb_26_1408,Y,
stim/posf.jpg,stim/negf.jpg,stim/2.jpg,stim/1.jpg,stim/latef.jpg,AB,1,2,,,,,,,,,0,25,25,7,,,,,,,,,,2,1,0.64978867899,,,,,,PLC_L_D2S1,P20,60.0200605242,02,C,2015_Feb_26_1408,Y,
stim/posf.jpg,stim/negf.jpg,stim/3.jpg,stim/4.jpg,stim/latef.jpg,EF,1,2,,,,,,,,,0,26,26,41,,,,,,,,,,2,1,0.61644866899,,,,,,PLC_L_D2S1,P20,60.0200605242,02,C,2015_Feb_26_1408,Y,
stim/negf.jpg,stim/posf.jpg,stim/3.jpg,stim/4.jpg,stim/latef.jpg,EF,1,2,,,,,,,,,0,27,27,48,,,,,,,,,,2,1,0.549813421754,,,,,,PLC_L_D2S1,P20,60.0200605242,02,C,2015_Feb_26_1408,Y,
stim/negf.jpg,stim/posf.jpg,stim/4.jpg,stim/3.jpg,stim/latef.jpg,EF,2,4,,,,,,,,,0,28,28,57,,,,,,,,,,4,1,0.633072835065,,,,,,PLC_L_D2S1,P20,60.0200605242,02,C,2015_Feb_26_1408,Y,
stim/negf.jpg,stim/posf.jpg,stim/6.jpg,stim/5.jpg,stim/latef.jpg,CD,1,2,,,,,,,,,0,29,29,29,,,,,,,,,,2,1,0.516498846245,,,,,,PLC_L_D2S1,P20,60.0200605242,02,C,2015_Feb_26_1408,Y,
stim/posf.jpg,stim/negf.jpg,stim/5.jpg,stim/6.jpg,stim/latef.jpg,CD,2,4,,,,,,,,,0,30,30,33,,,,,,,,,,4,1,0.616459514062,,,,,,PLC_L_D2S1,P20,60.0200605242,02,C,2015_Feb_26_1408,Y,
stim/posf.jpg,stim/negf.jpg,stim/5.jpg,stim/6.jpg,stim/latef.jpg,CD,2,4,,,,,,,,,0,31,31,35,,,,,,,,,,4,1,0.59979730001,,,,,,PLC_L_D2S1,P20,60.0200605242,02,C,2015_Feb_26_1408,Y,
stim/negf.jpg,stim/posf.jpg,stim/5.jpg,stim/6.jpg,stim/latef.jpg,CD,2,4,,,,,,,,,0,32,32,37,,,,,,,,,,4,1,0.533146506968,,,,,,PLC_L_D2S1,P20,60.0200605242,02,C,2015_Feb_26_1408,Y,
stim/posf.jpg,stim/negf.jpg,stim/1.jpg,stim/2.jpg,stim/latef.jpg,AB,2,4,,,,,,,,,0,33,33,17,,,,,,,,,,4,1,0.799743468634,,,,,,PLC_L_D2S1,P20,60.0200605242,02,C,2015_Feb_26_1408,Y,
stim/negf.jpg,stim/posf.jpg,stim/3.jpg,stim/4.jpg,stim/latef.jpg,EF,1,2,,,,,,,,,0,34,34,47,,,,,,,,,,2,1,0.816401366912,,,,,,PLC_L_D2S1,P20,60.0200605242,02,C,2015_Feb_26_1408,Y,
stim/posf.jpg,stim/negf.jpg,stim/2.jpg,stim/1.jpg,stim/latef.jpg,AB,1,2,,,,,,,,,0,35,35,5,,,,,,,,,,2,1,0.816367947489,,,,,,PLC_L_D2S1,P20,60.0200605242,02,C,2015_Feb_26_1408,Y,
stim/posf.jpg,stim/negf.jpg,stim/6.jpg,stim/5.jpg,stim/latef.jpg,CD,1,2,,,,,,,,,0,36,36,25,,,,,,,,,,2,1,0.799764728704,,,,,,PLC_L_D2S1,P20,60.0200605242,02,C,2015_Feb_26_1408,Y,
stim/posf.jpg,stim/negf.jpg,stim/6.jpg,stim/5.jpg,stim/latef.jpg,CD,1,2,,,,,,,,,0,37,37,20,,,,,,,,,,2,1,0.683093044011,,,,,,PLC_L_D2S1,P20,60.0200605242,02,C,2015_Feb_26_1408,Y,
stim/posf.jpg,stim/negf.jpg,stim/4.jpg,stim/3.jpg,stim/latef.jpg,EF,2,4,,,,,,,,,0,38,38,51,,,,,,,,,,4,1,0.616514530396,,,,,,PLC_L_D2S1,P20,60.0200605242,02,C,2015_Feb_26_1408,Y,
stim/posf.jpg,stim/negf.jpg,stim/2.jpg,stim/1.jpg,stim/latef.jpg,AB,1,2,,,,,,,,,0,39,39,0,,,,,,,,,,2,1,0.633122194277,,,,,,PLC_L_D2S1,P20,60.0200605242,02,C,2015_Feb_26_1408,Y,
stim/posf.jpg,stim/negf.jpg,stim/3.jpg,stim/4.jpg,stim/latef.jpg,EF,1,2,,,,,,,,,0,40,40,43,,,,,,,,,,2,1,0.699767041477,,,,,,PLC_L_D2S1,P20,60.0200605242,02,C,2015_Feb_26_1408,Y,
stim/posf.jpg,stim/negf.jpg,stim/6.jpg,stim/5.jpg,stim/latef.jpg,CD,1,2,,,,,,,,,0,41,41,23,,,,,,,,,,2,1,0.533136001744,,,,,,PLC_L_D2S1,P20,60.0200605242,02,C,2015_Feb_26_1408,Y,
stim/posf.jpg,stim/negf.jpg,stim/4.jpg,stim/3.jpg,stim/latef.jpg,EF,2,4,,,,,,,,,0,42,42,50,,,,,,,,,,4,1,0.832954715208,,,,,,PLC_L_D2S1,P20,60.0200605242,02,C,2015_Feb_26_1408,Y,
stim/posf.jpg,stim/negf.jpg,stim/2.jpg,stim/1.jpg,stim/latef.jpg,AB,1,2,,,,,,,,,0,43,43,4,,,,,,,,,,2,1,0.533167884331,,,,,,PLC_L_D2S1,P20,60.0200605242,02,C,2015_Feb_26_1408,Y,
stim/posf.jpg,stim/negf.jpg,stim/2.jpg,stim/1.jpg,stim/latef.jpg,AB,1,2,,,,,,,,,0,44,44,3,,,,,,,,,,2,1,0.566460694509,,,,,,PLC_L_D2S1,P20,60.0200605242,02,C,2015_Feb_26_1408,Y,
stim/posf.jpg,stim/negf.jpg,stim/6.jpg,stim/5.jpg,stim/latef.jpg,CD,1,2,,,,,,,,,0,45,45,22,,,,,,,,,,2,1,0.649796627832,,,,,,PLC_L_D2S1,P20,60.0200605242,02,C,2015_Feb_26_1408,Y,
stim/posf.jpg,stim/negf.jpg,stim/1.jpg,stim/2.jpg,stim/latef.jpg,AB,2,4,,,,,,,,,0,46,46,12,,,,,,,,,,4,1,0.766403425551,,,,,,PLC_L_D2S1,P20,60.0200605242,02,C,2015_Feb_26_1408,Y,
stim/posf.jpg,stim/negf.jpg,stim/1.jpg,stim/2.jpg,stim/latef.jpg,AB,2,4,,,,,,,,,0,47,47,16,,,,,,,,,,4,1,0.733153240777,,,,,,PLC_L_D2S1,P20,60.0200605242,02,C,2015_Feb_26_1408,Y,
stim/posf.jpg,stim/negf.jpg,stim/4.jpg,stim/3.jpg,stim/latef.jpg,EF,2,4,,,,,,,,,0,48,48,55,,,,,,,,,,2,0,0.533224666073,,,,,,PLC_L_D2S1,P20,60.0200605242,02,C,2015_Feb_26_1408,Y,
stim/posf.jpg,stim/negf.jpg,stim/1.jpg,stim/2.jpg,stim/latef.jpg,AB,2,4,,,,,,,,,0,49,49,11,,,,,,,,,,4,1,0.549785497047,,,,,,PLC_L_D2S1,P20,60.0200605242,02,C,2015_Feb_26_1408,Y,
stim/posf.jpg,stim/negf.jpg,stim/5.jpg,stim/6.jpg,stim/latef.jpg,CD,2,4,,,,,,,,,0,50,50,36,,,,,,,,,,4,1,0.616437763768,,,,,,PLC_L_D2S1,P20,60.0200605242,02,C,2015_Feb_26_1408,Y,
stim/negf.jpg,stim/posf.jpg,stim/1.jpg,stim/2.jpg,stim/latef.jpg,AB,2,4,,,,,,,,,0,51,51,19,,,,,,,,,,4,1,0.683118385269,,,,,,PLC_L_D2S1,P20,60.0200605242,02,C,2015_Feb_26_1408,Y,
stim/posf.jpg,stim/negf.jpg,stim/1.jpg,stim/2.jpg,stim/latef.jpg,AB,2,4,,,,,,,,,0,52,52,14,,,,,,,,,,4,1,0.683099675565,,,,,,PLC_L_D2S1,P20,60.0200605242,02,C,2015_Feb_26_1408,Y,
stim/negf.jpg,stim/posf.jpg,stim/4.jpg,stim/3.jpg,stim/latef.jpg,EF,2,4,,,,,,,,,0,53,53,56,,,,,,,,,,4,1,0.816385631633,,,,,,PLC_L_D2S1,P20,60.0200605242,02,C,2015_Feb_26_1408,Y,
stim/posf.jpg,stim/negf.jpg,stim/5.jpg,stim/6.jpg,stim/latef.jpg,CD,2,4,,,,,,,,,0,54,54,32,,,,,,,,,,4,1,0.666453314085,,,,,,PLC_L_D2S1,P20,60.0200605242,02,C,2015_Feb_26_1408,Y,
stim/negf.jpg,stim/posf.jpg,stim/3.jpg,stim/4.jpg,stim/latef.jpg,EF,1,2,,,,,,,,,0,55,55,46,,,,,,,,,,2,1,0.666448183277,,,,,,PLC_L_D2S1,P20,60.0200605242,02,C,2015_Feb_26_1408,Y,
stim/negf.jpg,stim/posf.jpg,stim/5.jpg,stim/6.jpg,stim/latef.jpg,CD,2,4,,,,,,,,,0,56,56,39,,,,,,,,,,4,1,0.533115153703,,,,,,PLC_L_D2S1,P20,60.0200605242,02,C,2015_Feb_26_1408,Y,
stim/posf.jpg,stim/negf.jpg,stim/4.jpg,stim/3.jpg,stim/latef.jpg,EF,2,4,,,,,,,,,0,57,57,53,,,,,,,,,,4,1,0.53316634148,,,,,,PLC_L_D2S1,P20,60.0200605242,02,C,2015_Feb_26_1408,Y,
stim/negf.jpg,stim/posf.jpg,stim/2.jpg,stim/1.jpg,stim/latef.jpg,AB,1,2,,,,,,,,,0,58,58,9,,,,,,,,,,2,1,0.566467485461,,,,,,PLC_L_D2S1,P20,60.0200605242,02,C,2015_Feb_26_1408,Y,
stim/posf.jpg,stim/negf.jpg,stim/6.jpg,stim/5.jpg,stim/latef.jpg,CD,1,2,,,,,,,,,0,59,59,26,,,,,,,,,,2,1,0.666451079507,,,,,,PLC_L_D2S1,P20,60.0200605242,02,C,2015_Feb_26_1408,Y,
,,,,,,,,,,,,,,,,,,,,,,,,,,,,,,,,0.9984375,1.0,1,0,0,PLC_L_D2S1,P20,60.0200605242,02,C,2015_Feb_26_1408,Y,
stim/posf.jpg,stim/negf.jpg,stim/5.jpg,stim/6.jpg,stim/latef.jpg,CD,2,4,,,,,,,,,,,,,0,0,0,31,,,,,,4,1,0.583177744445,,,,,,PLC_L_D2S1,P20,60.0200605242,02,C,2015_Feb_26_1408,Y,
stim/negf.jpg,stim/posf.jpg,stim/3.jpg,stim/4.jpg,stim/latef.jpg,EF,1,2,,,,,,,,,,,,,0,1,1,48,,,,,,2,1,0.549781430897,,,,,,PLC_L_D2S1,P20,60.0200605242,02,C,2015_Feb_26_1408,Y,
stim/posf.jpg,stim/negf.jpg,stim/1.jpg,stim/2.jpg,stim/latef.jpg,AB,2,4,,,,,,,,,,,,,0,2,2,14,,,,,,4,1,0.566484357578,,,,,,PLC_L_D2S1,P20,60.0200605242,02,C,2015_Feb_26_1408,Y,
stim/posf.jpg,stim/negf.jpg,stim/4.jpg,stim/3.jpg,stim/latef.jpg,EF,2,4,,,,,,,,,,,,,0,3,3,53,,,,,,4,1,0.583144538554,,,,,,PLC_L_D2S1,P20,60.0200605242,02,C,2015_Feb_26_1408,Y,
stim/negf.jpg,stim/posf.jpg,stim/5.jpg,stim/6.jpg,stim/latef.jpg,CD,2,4,,,,,,,,,,,,,0,4,4,38,,,,,,4,1,0.566470580186,,,,,,PLC_L_D2S1,P20,60.0200605242,02,C,2015_Feb_26_1408,Y,
stim/posf.jpg,stim/negf.jpg,stim/2.jpg,stim/1.jpg,stim/latef.jpg,AB,1,2,,,,,,,,,,,,,0,5,5,4,,,,,,2,1,0.683093459047,,,,,,PLC_L_D2S1,P20,60.0200605242,02,C,2015_Feb_26_1408,Y,
stim/negf.jpg,stim/posf.jpg,stim/3.jpg,stim/4.jpg,stim/latef.jpg,EF,1,2,,,,,,,,,,,,,0,6,6,47,,,,,,2,1,0.766428261548,,,,,,PLC_L_D2S1,P20,60.0200605242,02,C,2015_Feb_26_1408,Y,
stim/negf.jpg,stim/posf.jpg,stim/1.jpg,stim/2.jpg,stim/latef.jpg,AB,2,4,,,,,,,,,,,,,0,7,7,18,,,,,,4,1,0.616469180191,,,,,,PLC_L_D2S1,P20,60.0200605242,02,C,2015_Feb_26_1408,Y,
stim/negf.jpg,stim/posf.jpg,stim/4.jpg,stim/3.jpg,stim/latef.jpg,EF,2,4,,,,,,,,,,,,,0,8,8,57,,,,,,4,1,0.699771835444,,,,,,PLC_L_D2S1,P20,60.0200605242,02,C,2015_Feb_26_1408,Y,
stim/posf.jpg,stim/negf.jpg,stim/2.jpg,stim/1.jpg,stim/latef.jpg,AB,1,2,,,,,,,,,,,,,0,9,9,2,,,,,,2,1,0.48316498359,,,,,,PLC_L_D2S1,P20,60.0200605242,02,C,2015_Feb_26_1408,Y,
stim/negf.jpg,stim/posf.jpg,stim/4.jpg,stim/3.jpg,stim/latef.jpg,EF,2,4,,,,,,,,,,,,,0,10,10,58,,,,,,4,1,0.533169875301,,,,,,PLC_L_D2S1,P20,60.0200605242,02,C,2015_Feb_26_1408,Y,
stim/posf.jpg,stim/negf.jpg,stim/6.jpg,stim/5.jpg,stim/latef.jpg,CD,1,2,,,,,,,,,,,,,0,11,11,26,,,,,,2,1,0.783094012428,,,,,,PLC_L_D2S1,P20,60.0200605242,02,C,2015_Feb_26_1408,Y,
stim/posf.jpg,stim/negf.jpg,stim/6.jpg,stim/5.jpg,stim/latef.jpg,CD,1,2,,,,,,,,,,,,,0,12,12,25,,,,,,2,1,0.633118940154,,,,,,PLC_L_D2S1,P20,60.0200605242,02,C,2015_Feb_26_1408,Y,
stim/posf.jpg,stim/negf.jpg,stim/2.jpg,stim/1.jpg,stim/latef.jpg,AB,1,2,,,,,,,,,,,,,0,13,13,7,,,,,,2,1,0.598835652497,,,,,,PLC_L_D2S1,P20,60.0200605242,02,C,2015_Feb_26_1408,Y,
stim/posf.jpg,stim/negf.jpg,stim/6.jpg,stim/5.jpg,stim/latef.jpg,CD,1,2,,,,,,,,,,,,,0,14,14,23,,,,,,2,1,0.649794092503,,,,,,PLC_L_D2S1,P20,60.0200605242,02,C,2015_Feb_26_1408,Y,
stim/posf.jpg,stim/negf.jpg,stim/6.jpg,stim/5.jpg,stim/latef.jpg,CD,1,2,,,,,,,,,,,,,0,15,15,22,,,,,,2,1,0.533176230165,,,,,,PLC_L_D2S1,P20,60.0200605242,02,C,2015_Feb_26_1408,Y,
stim/posf.jpg,stim/negf.jpg,stim/2.jpg,stim/1.jpg,stim/latef.jpg,AB,1,2,,,,,,,,,,,,,0,16,16,1,,,,,,2,1,0.549813921,,,,,,PLC_L_D2S1,P20,60.0200605242,02,C,2015_Feb_26_1408,Y,
stim/posf.jpg,stim/negf.jpg,stim/3.jpg,stim/4.jpg,stim/latef.jpg,EF,1,2,,,,,,,,,,,,,0,17,17,42,,,,,,2,1,0.733085424491,,,,,,PLC_L_D2S1,P20,60.0200605242,02,C,2015_Feb_26_1408,Y,
stim/posf.jpg,stim/negf.jpg,stim/5.jpg,stim/6.jpg,stim/latef.jpg,CD,2,4,,,,,,,,,,,,,0,18,18,33,,,,,,4,1,0.549805743588,,,,,,PLC_L_D2S1,P20,60.0200605242,02,C,2015_Feb_26_1408,Y,
stim/posf.jpg,stim/negf.jpg,stim/3.jpg,stim/4.jpg,stim/latef.jpg,EF,1,2,,,,,,,,,,,,,0,19,19,44,,,,,,2,1,0.433213974384,,,,,,PLC_L_D2S1,P20,60.0200605242,02,C,2015_Feb_26_1408,Y,
stim/posf.jpg,stim/negf.jpg,stim/1.jpg,stim/2.jpg,stim/latef.jpg,AB,2,4,,,,,,,,,,,,,0,20,20,13,,,,,,4,1,0.783070168909,,,,,,PLC_L_D2S1,P20,60.0200605242,02,C,2015_Feb_26_1408,Y,
stim/posf.jpg,stim/negf.jpg,stim/6.jpg,stim/5.jpg,stim/latef.jpg,CD,1,2,,,,,,,,,,,,,0,21,21,20,,,,,,2,1,0.683114854455,,,,,,PLC_L_D2S1,P20,60.0200605242,02,C,2015_Feb_26_1408,Y,
stim/posf.jpg,stim/negf.jpg,stim/1.jpg,stim/2.jpg,stim/latef.jpg,AB,2,4,,,,,,,,,,,,,0,22,22,11,,,,,,4,1,0.649799142109,,,,,,PLC_L_D2S1,P20,60.0200605242,02,C,2015_Feb_26_1408,Y,
stim/posf.jpg,stim/negf.jpg,stim/1.jpg,stim/2.jpg,stim/latef.jpg,AB,2,4,,,,,,,,,,,,,0,23,23,12,,,,,,4,1,0.499858123841,,,,,,PLC_L_D2S1,P20,60.0200605242,02,C,2015_Feb_26_1408,Y,
stim/posf.jpg,stim/negf.jpg,stim/4.jpg,stim/3.jpg,stim/latef.jpg,EF,2,4,,,,,,,,,,,,,0,24,24,52,,,,,,4,1,0.533150840786,,,,,,PLC_L_D2S1,P20,60.0200605242,02,C,2015_Feb_26_1408,Y,
stim/posf.jpg,stim/negf.jpg,stim/2.jpg,stim/1.jpg,stim/latef.jpg,AB,1,2,,,,,,,,,,,,,0,25,25,0,,,,,,2,1,0.766408114255,,,,,,PLC_L_D2S1,P20,60.0200605242,02,C,2015_Feb_26_1408,Y,
stim/posf.jpg,stim/negf.jpg,stim/5.jpg,stim/6.jpg,stim/latef.jpg,CD,2,4,,,,,,,,,,,,,0,26,26,36,,,,,,4,1,0.683104770283,,,,,,PLC_L_D2S1,P20,60.0200605242,02,C,2015_Feb_26_1408,Y,
stim/negf.jpg,stim/posf.jpg,stim/5.jpg,stim/6.jpg,stim/latef.jpg,CD,2,4,,,,,,,,,,,,,0,27,27,37,,,,,,4,1,0.549813857843,,,,,,PLC_L_D2S1,P20,60.0200605242,02,C,2015_Feb_26_1408,Y,
stim/posf.jpg,stim/negf.jpg,stim/6.jpg,stim/5.jpg,stim/latef.jpg,CD,1,2,,,,,,,,,,,,,0,28,28,24,,,,,,2,1,0.549798823313,,,,,,PLC_L_D2S1,P20,60.0200605242,02,C,2015_Feb_26_1408,Y,
stim/posf.jpg,stim/negf.jpg,stim/2.jpg,stim/1.jpg,stim/latef.jpg,AB,1,2,,,,,,,,,,,,,0,29,29,3,,,,,,2,1,0.583133332581,,,,,,PLC_L_D2S1,P20,60.0200605242,02,C,2015_Feb_26_1408,Y,
stim/posf.jpg,stim/negf.jpg,stim/3.jpg,stim/4.jpg,stim/latef.jpg,EF,1,2,,,,,,,,,,,,,0,30,30,43,,,,,,2,1,0.733078110233,,,,,,PLC_L_D2S1,P20,60.0200605242,02,C,2015_Feb_26_1408,Y,
stim/posf.jpg,stim/negf.jpg,stim/3.jpg,stim/4.jpg,stim/latef.jpg,EF,1,2,,,,,,,,,,,,,0,31,31,41,,,,,,2,1,0.499803865399,,,,,,PLC_L_D2S1,P20,60.0200605242,02,C,2015_Feb_26_1408,Y,
stim/negf.jpg,stim/posf.jpg,stim/3.jpg,stim/4.jpg,stim/latef.jpg,EF,1,2,,,,,,,,,,,,,0,32,32,46,,,,,,2,1,0.783090710185,,,,,,PLC_L_D2S1,P20,60.0200605242,02,C,2015_Feb_26_1408,Y,
stim/negf.jpg,stim/posf.jpg,stim/1.jpg,stim/2.jpg,stim/latef.jpg,AB,2,4,,,,,,,,,,,,,0,33,33,19,,,,,,4,1,0.86638875493,,,,,,PLC_L_D2S1,P20,60.0200605242,02,C,2015_Feb_26_1408,Y,
stim/posf.jpg,stim/negf.jpg,stim/4.jpg,stim/3.jpg,stim/latef.jpg,EF,2,4,,,,,,,,,,,,,0,34,34,50,,,,,,4,1,0.68309363649,,,,,,PLC_L_D2S1,P20,60.0200605242,02,C,2015_Feb_26_1408,Y,
stim/negf.jpg,stim/posf.jpg,stim/4.jpg,stim/3.jpg,stim/latef.jpg,EF,2,4,,,,,,,,,,,,,0,35,35,59,,,,,,4,1,0.733089391393,,,,,,PLC_L_D2S1,P20,60.0200605242,02,C,2015_Feb_26_1408,Y,
stim/posf.jpg,stim/negf.jpg,stim/1.jpg,stim/2.jpg,stim/latef.jpg,AB,2,4,,,,,,,,,,,,,0,36,36,17,,,,,,4,1,0.683093332732,,,,,,PLC_L_D2S1,P20,60.0200605242,02,C,2015_Feb_26_1408,Y,
stim/posf.jpg,stim/negf.jpg,stim/2.jpg,stim/1.jpg,stim/latef.jpg,AB,1,2,,,,,,,,,,,,,0,37,37,6,,,,,,2,1,0.56644726298,,,,,,PLC_L_D2S1,P20,60.0200605242,02,C,2015_Feb_26_1408,Y,
stim/posf.jpg,stim/negf.jpg,stim/5.jpg,stim/6.jpg,stim/latef.jpg,CD,2,4,,,,,,,,,,,,,0,38,38,32,,,,,,4,1,0.516467947113,,,,,,PLC_L_D2S1,P20,60.0200605242,02,C,2015_Feb_26_1408,Y,
stim/negf.jpg,stim/posf.jpg,stim/5.jpg,stim/6.jpg,stim/latef.jpg,CD,2,4,,,,,,,,,,,,,0,39,39,39,,,,,,4,1,0.483176228661,,,,,,PLC_L_D2S1,P20,60.0200605242,02,C,2015_Feb_26_1408,Y,
stim/posf.jpg,stim/negf.jpg,stim/1.jpg,stim/2.jpg,stim/latef.jpg,AB,2,4,,,,,,,,,,,,,0,40,40,16,,,,,,4,1,0.549826369074,,,,,,PLC_L_D2S1,P20,60.0200605242,02,C,2015_Feb_26_1408,Y,
stim/posf.jpg,stim/negf.jpg,stim/4.jpg,stim/3.jpg,stim/latef.jpg,EF,2,4,,,,,,,,,,,,,0,41,41,55,,,,,,4,1,0.583146568622,,,,,,PLC_L_D2S1,P20,60.0200605242,02,C,2015_Feb_26_1408,Y,
stim/posf.jpg,stim/negf.jpg,stim/5.jpg,stim/6.jpg,stim/latef.jpg,CD,2,4,,,,,,,,,,,,,0,42,42,30,,,,,,4,1,0.549779554212,,,,,,PLC_L_D2S1,P20,60.0200605242,02,C,2015_Feb_26_1408,Y,
stim/posf.jpg,stim/negf.jpg,stim/1.jpg,stim/2.jpg,stim/latef.jpg,AB,2,4,,,,,,,,,,,,,0,43,43,10,,,,,,4,1,0.583157052793,,,,,,PLC_L_D2S1,P20,60.0200605242,02,C,2015_Feb_26_1408,Y,
stim/negf.jpg,stim/posf.jpg,stim/3.jpg,stim/4.jpg,stim/latef.jpg,EF,1,2,,,,,,,,,,,,,0,44,44,49,,,,,,2,1,0.69980916162,,,,,,PLC_L_D2S1,P20,60.0200605242,02,C,2015_Feb_26_1408,Y,
stim/posf.jpg,stim/negf.jpg,stim/4.jpg,stim/3.jpg,stim/latef.jpg,EF,2,4,,,,,,,,,,,,,0,45,45,51,,,,,,4,1,0.58313473408,,,,,,PLC_L_D2S1,P20,60.0200605242,02,C,2015_Feb_26_1408,Y,
stim/negf.jpg,stim/posf.jpg,stim/2.jpg,stim/1.jpg,stim/latef.jpg,AB,1,2,,,,,,,,,,,,,0,46,46,9,,,,,,4,0,0.616429559287,,,,,,PLC_L_D2S1,P20,60.0200605242,02,C,2015_Feb_26_1408,Y,
stim/posf.jpg,stim/negf.jpg,stim/2.jpg,stim/1.jpg,stim/latef.jpg,AB,1,2,,,,,,,,,,,,,0,47,47,5,,,,,,2,1,0.616433589347,,,,,,PLC_L_D2S1,P20,60.0200605242,02,C,2015_Feb_26_1408,Y,
stim/negf.jpg,stim/posf.jpg,stim/6.jpg,stim/5.jpg,stim/latef.jpg,CD,1,2,,,,,,,,,,,,,0,48,48,29,,,,,,2,1,0.633179267747,,,,,,PLC_L_D2S1,P20,60.0200605242,02,C,2015_Feb_26_1408,Y,
stim/negf.jpg,stim/posf.jpg,stim/2.jpg,stim/1.jpg,stim/latef.jpg,AB,1,2,,,,,,,,,,,,,0,49,49,8,,,,,,2,1,0.666442577284,,,,,,PLC_L_D2S1,P20,60.0200605242,02,C,2015_Feb_26_1408,Y,
stim/negf.jpg,stim/posf.jpg,stim/6.jpg,stim/5.jpg,stim/latef.jpg,CD,1,2,,,,,,,,,,,,,0,50,50,28,,,,,,2,1,0.749745253589,,,,,,PLC_L_D2S1,P20,60.0200605242,02,C,2015_Feb_26_1408,Y,
stim/posf.jpg,stim/negf.jpg,stim/5.jpg,stim/6.jpg,stim/latef.jpg,CD,2,4,,,,,,,,,,,,,0,51,51,34,,,,,,4,1,0.616403105251,,,,,,PLC_L_D2S1,P20,60.0200605242,02,C,2015_Feb_26_1408,Y,
stim/posf.jpg,stim/negf.jpg,stim/5.jpg,stim/6.jpg,stim/latef.jpg,CD,2,4,,,,,,,,,,,,,0,52,52,35,,,,,,4,1,0.683098995868,,,,,,PLC_L_D2S1,P20,60.0200605242,02,C,2015_Feb_26_1408,Y,
stim/posf.jpg,stim/negf.jpg,stim/4.jpg,stim/3.jpg,stim/latef.jpg,EF,2,4,,,,,,,,,,,,,0,53,53,54,,,,,,4,1,0.649805310507,,,,,,PLC_L_D2S1,P20,60.0200605242,02,C,2015_Feb_26_1408,Y,
stim/negf.jpg,stim/posf.jpg,stim/4.jpg,stim/3.jpg,stim/latef.jpg,EF,2,4,,,,,,,,,,,,,0,54,54,56,,,,,,4,1,0.516503580062,,,,,,PLC_L_D2S1,P20,60.0200605242,02,C,2015_Feb_26_1408,Y,
stim/posf.jpg,stim/negf.jpg,stim/6.jpg,stim/5.jpg,stim/latef.jpg,CD,1,2,,,,,,,,,,,,,0,55,55,21,,,,,,2,1,0.499847823129,,,,,,PLC_L_D2S1,P20,60.0200605242,02,C,2015_Feb_26_1408,Y,
stim/posf.jpg,stim/negf.jpg,stim/3.jpg,stim/4.jpg,stim/latef.jpg,EF,1,2,,,,,,,,,,,,,0,56,56,40,,,,,,2,1,0.716442118639,,,,,,PLC_L_D2S1,P20,60.0200605242,02,C,2015_Feb_26_1408,Y,
stim/posf.jpg,stim/negf.jpg,stim/3.jpg,stim/4.jpg,stim/latef.jpg,EF,1,2,,,,,,,,,,,,,0,57,57,45,,,,,,2,1,0.516478479404,,,,,,PLC_L_D2S1,P20,60.0200605242,02,C,2015_Feb_26_1408,Y,
stim/posf.jpg,stim/negf.jpg,stim/1.jpg,stim/2.jpg,stim/latef.jpg,AB,2,4,,,,,,,,,,,,,0,58,58,15,,,,,,4,1,0.816378927899,,,,,,PLC_L_D2S1,P20,60.0200605242,02,C,2015_Feb_26_1408,Y,
stim/negf.jpg,stim/posf.jpg,stim/6.jpg,stim/5.jpg,stim/latef.jpg,CD,1,2,,,,,,,,,,,,,0,59,59,27,,,,,,2,1,0.549809478912,,,,,,PLC_L_D2S1,P20,60.0200605242,02,C,2015_Feb_26_1408,Y,
