fb_corr,fb_incorr,symbol2,symbol1,fb_late,pair,position,correct,block_01.thisRepN,block_01.thisTrialN,block_01.thisN,block_01.thisIndex,block_02.thisRepN,block_02.thisTrialN,block_02.thisN,block_02.thisIndex,block_03.thisRepN,block_03.thisTrialN,block_03.thisN,block_03.thisIndex,block_04.thisRepN,block_04.thisTrialN,block_04.thisN,block_04.thisIndex,mouse.x,mouse.y,mouse.leftButton,mouse.midButton,mouse.rightButton,buttonBox_2.keys,buttonBox_2.corr,buttonBox_2.rt,mouse_2.x,mouse_2.y,mouse_2.leftButton,mouse_2.midButton,mouse_2.rightButton,expName,Participant,frameRate,SessionNumber,Version,date,Group,
,,,,,,,,,,,,,,,,,,,,,,,,-1.0,-0.541015625,1,0,0,,,,,,,,,PLC_L_D2S1,P23,60.0157721476,02,A,2015_Mrz_05_1429,Y,
stim/posf.jpg,stim/negf.jpg,stim/4.jpg,stim/2.jpg,stim/latef.jpg,EF,1,2,0,0,0,41,,,,,,,,,,,,,,,,,,4,0,1.01632072119,,,,,,PLC_L_D2S1,P23,60.0157721476,02,A,2015_Mrz_05_1429,Y,
stim/posf.jpg,stim/negf.jpg,stim/3.jpg,stim/1.jpg,stim/latef.jpg,CD,1,2,0,1,1,25,,,,,,,,,,,,,,,,,,2,1,1.31624145292,,,,,,PLC_L_D2S1,P23,60.0157721476,02,A,2015_Mrz_05_1429,Y,
stim/posf.jpg,stim/negf.jpg,stim/3.jpg,stim/1.jpg,stim/latef.jpg,CD,1,2,0,2,2,26,,,,,,,,,,,,,,,,,,2,1,0.899761647801,,,,,,PLC_L_D2S1,P23,60.0157721476,02,A,2015_Mrz_05_1429,Y,
stim/posf.jpg,stim/negf.jpg,stim/5.jpg,stim/6.jpg,stim/latef.jpg,AB,2,4,0,3,3,14,,,,,,,,,,,,,,,,,,2,0,1.19956727405,,,,,,PLC_L_D2S1,P23,60.0157721476,02,A,2015_Mrz_05_1429,Y,
stim/posf.jpg,stim/negf.jpg,stim/2.jpg,stim/4.jpg,stim/latef.jpg,EF,2,4,0,4,4,52,,,,,,,,,,,,,,,,,,2,0,1.0163259482,,,,,,PLC_L_D2S1,P23,60.0157721476,02,A,2015_Mrz_05_1429,Y,
stim/negf.jpg,stim/posf.jpg,stim/6.jpg,stim/5.jpg,stim/latef.jpg,AB,1,2,0,5,5,9,,,,,,,,,,,,,,,,,,2,1,1.24958259569,,,,,,PLC_L_D2S1,P23,60.0157721476,02,A,2015_Mrz_05_1429,Y,
stim/posf.jpg,stim/negf.jpg,stim/5.jpg,stim/6.jpg,stim/latef.jpg,AB,2,4,0,6,6,17,,,,,,,,,,,,,,,,,,4,1,0.833016514851,,,,,,PLC_L_D2S1,P23,60.0157721476,02,A,2015_Mrz_05_1429,Y,
stim/posf.jpg,stim/negf.jpg,stim/6.jpg,stim/5.jpg,stim/latef.jpg,AB,1,2,0,7,7,0,,,,,,,,,,,,,,,,,,2,1,0.733099506397,,,,,,PLC_L_D2S1,P23,60.0157721476,02,A,2015_Mrz_05_1429,Y,
stim/posf.jpg,stim/negf.jpg,stim/6.jpg,stim/5.jpg,stim/latef.jpg,AB,1,2,0,8,8,3,,,,,,,,,,,,,,,,,,2,1,1.13301728777,,,,,,PLC_L_D2S1,P23,60.0157721476,02,A,2015_Mrz_05_1429,Y,
stim/posf.jpg,stim/negf.jpg,stim/1.jpg,stim/3.jpg,stim/latef.jpg,CD,2,4,0,9,9,33,,,,,,,,,,,,,,,,,,4,1,1.01636591768,,,,,,PLC_L_D2S1,P23,60.0157721476,02,A,2015_Mrz_05_1429,Y,
stim/posf.jpg,stim/negf.jpg,stim/2.jpg,stim/4.jpg,stim/latef.jpg,EF,2,4,0,10,10,51,,,,,,,,,,,,,,,,,,2,0,0.949625491442,,,,,,PLC_L_D2S1,P23,60.0157721476,02,A,2015_Mrz_05_1429,Y,
stim/posf.jpg,stim/negf.jpg,stim/6.jpg,stim/5.jpg,stim/latef.jpg,AB,1,2,0,11,11,1,,,,,,,,,,,,,,,,,,2,1,0.766326127149,,,,,,PLC_L_D2S1,P23,60.0157721476,02,A,2015_Mrz_05_1429,Y,
stim/posf.jpg,stim/negf.jpg,stim/5.jpg,stim/6.jpg,stim/latef.jpg,AB,2,4,0,12,12,15,,,,,,,,,,,,,,,,,,4,1,1.03302723954,,,,,,PLC_L_D2S1,P23,60.0157721476,02,A,2015_Mrz_05_1429,Y,
stim/posf.jpg,stim/negf.jpg,stim/4.jpg,stim/2.jpg,stim/latef.jpg,EF,1,2,0,13,13,45,,,,,,,,,,,,,,,,,,4,0,0.966317321233,,,,,,PLC_L_D2S1,P23,60.0157721476,02,A,2015_Mrz_05_1429,Y,
stim/posf.jpg,stim/negf.jpg,stim/3.jpg,stim/1.jpg,stim/latef.jpg,CD,1,2,0,14,14,22,,,,,,,,,,,,,,,,,,2,1,0.766400348868,,,,,,PLC_L_D2S1,P23,60.0157721476,02,A,2015_Mrz_05_1429,Y,
stim/negf.jpg,stim/posf.jpg,stim/4.jpg,stim/2.jpg,stim/latef.jpg,EF,1,2,0,15,15,47,,,,,,,,,,,,,,,,,,2,1,0.883049779138,,,,,,PLC_L_D2S1,P23,60.0157721476,02,A,2015_Mrz_05_1429,Y,
stim/posf.jpg,stim/negf.jpg,stim/2.jpg,stim/4.jpg,stim/latef.jpg,EF,2,4,0,16,16,50,,,,,,,,,,,,,,,,,,2,0,0.866414153224,,,,,,PLC_L_D2S1,P23,60.0157721476,02,A,2015_Mrz_05_1429,Y,
stim/negf.jpg,stim/posf.jpg,stim/3.jpg,stim/1.jpg,stim/latef.jpg,CD,1,2,0,17,17,27,,,,,,,,,,,,,,,,,,2,1,0.916296697406,,,,,,PLC_L_D2S1,P23,60.0157721476,02,A,2015_Mrz_05_1429,Y,
stim/negf.jpg,stim/posf.jpg,stim/3.jpg,stim/1.jpg,stim/latef.jpg,CD,1,2,0,18,18,28,,,,,,,,,,,,,,,,,,2,1,0.649820132856,,,,,,PLC_L_D2S1,P23,60.0157721476,02,A,2015_Mrz_05_1429,Y,
stim/posf.jpg,stim/negf.jpg,stim/6.jpg,stim/5.jpg,stim/latef.jpg,AB,1,2,0,19,19,2,,,,,,,,,,,,,,,,,,4,0,1.26624486491,,,,,,PLC_L_D2S1,P23,60.0157721476,02,A,2015_Mrz_05_1429,Y,
stim/negf.jpg,stim/posf.jpg,stim/1.jpg,stim/3.jpg,stim/latef.jpg,CD,2,4,0,20,20,38,,,,,,,,,,,,,,,,,,4,1,0.916368994335,,,,,,PLC_L_D2S1,P23,60.0157721476,02,A,2015_Mrz_05_1429,Y,
stim/negf.jpg,stim/posf.jpg,stim/4.jpg,stim/2.jpg,stim/latef.jpg,EF,1,2,0,21,21,49,,,,,,,,,,,,,,,,,,2,1,0.816446855111,,,,,,PLC_L_D2S1,P23,60.0157721476,02,A,2015_Mrz_05_1429,Y,
stim/posf.jpg,stim/negf.jpg,stim/1.jpg,stim/3.jpg,stim/latef.jpg,CD,2,4,0,22,22,35,,,,,,,,,,,,,,,,,,4,1,0.999651958812,,,,,,PLC_L_D2S1,P23,60.0157721476,02,A,2015_Mrz_05_1429,Y,
stim/negf.jpg,stim/posf.jpg,stim/2.jpg,stim/4.jpg,stim/latef.jpg,EF,2,4,0,23,23,58,,,,,,,,,,,,,,,,,,2,0,1.29961291264,,,,,,PLC_L_D2S1,P23,60.0157721476,02,A,2015_Mrz_05_1429,Y,
stim/posf.jpg,stim/negf.jpg,stim/2.jpg,stim/4.jpg,stim/latef.jpg,EF,2,4,0,24,24,55,,,,,,,,,,,,,,,,,,2,0,0.833003104476,,,,,,PLC_L_D2S1,P23,60.0157721476,02,A,2015_Mrz_05_1429,Y,
stim/negf.jpg,stim/posf.jpg,stim/4.jpg,stim/2.jpg,stim/latef.jpg,EF,1,2,0,25,25,48,,,,,,,,,,,,,,,,,,4,0,0.932995260956,,,,,,PLC_L_D2S1,P23,60.0157721476,02,A,2015_Mrz_05_1429,Y,
stim/posf.jpg,stim/negf.jpg,stim/1.jpg,stim/3.jpg,stim/latef.jpg,CD,2,4,0,26,26,36,,,,,,,,,,,,,,,,,,4,1,0.833047819761,,,,,,PLC_L_D2S1,P23,60.0157721476,02,A,2015_Mrz_05_1429,Y,
stim/posf.jpg,stim/negf.jpg,stim/5.jpg,stim/6.jpg,stim/latef.jpg,AB,2,4,0,27,27,11,,,,,,,,,,,,,,,,,,2,0,1.0496597076,,,,,,PLC_L_D2S1,P23,60.0157721476,02,A,2015_Mrz_05_1429,Y,
stim/posf.jpg,stim/negf.jpg,stim/2.jpg,stim/4.jpg,stim/latef.jpg,EF,2,4,0,28,28,54,,,,,,,,,,,,,,,,,,2,0,1.09968462311,,,,,,PLC_L_D2S1,P23,60.0157721476,02,A,2015_Mrz_05_1429,Y,
stim/posf.jpg,stim/negf.jpg,stim/4.jpg,stim/2.jpg,stim/latef.jpg,EF,1,2,0,29,29,40,,,,,,,,,,,,,,,,,,4,0,0.86633941121,,,,,,PLC_L_D2S1,P23,60.0157721476,02,A,2015_Mrz_05_1429,Y,
stim/posf.jpg,stim/negf.jpg,stim/4.jpg,stim/2.jpg,stim/latef.jpg,EF,1,2,0,30,30,44,,,,,,,,,,,,,,,,,,4,0,1.03297509276,,,,,,PLC_L_D2S1,P23,60.0157721476,02,A,2015_Mrz_05_1429,Y,
stim/negf.jpg,stim/posf.jpg,stim/1.jpg,stim/3.jpg,stim/latef.jpg,CD,2,4,0,31,31,39,,,,,,,,,,,,,,,,,,4,1,0.866347997579,,,,,,PLC_L_D2S1,P23,60.0157721476,02,A,2015_Mrz_05_1429,Y,
stim/posf.jpg,stim/negf.jpg,stim/5.jpg,stim/6.jpg,stim/latef.jpg,AB,2,4,0,32,32,10,,,,,,,,,,,,,,,,,,4,1,1.01631098296,,,,,,PLC_L_D2S1,P23,60.0157721476,02,A,2015_Mrz_05_1429,Y,
stim/posf.jpg,stim/negf.jpg,stim/2.jpg,stim/4.jpg,stim/latef.jpg,EF,2,4,0,33,33,53,,,,,,,,,,,,,,,,,,2,0,0.983010474318,,,,,,PLC_L_D2S1,P23,60.0157721476,02,A,2015_Mrz_05_1429,Y,
stim/posf.jpg,stim/negf.jpg,stim/1.jpg,stim/3.jpg,stim/latef.jpg,CD,2,4,0,34,34,30,,,,,,,,,,,,,,,,,,4,1,0.833041955166,,,,,,PLC_L_D2S1,P23,60.0157721476,02,A,2015_Mrz_05_1429,Y,
stim/negf.jpg,stim/posf.jpg,stim/2.jpg,stim/4.jpg,stim/latef.jpg,EF,2,4,0,35,35,57,,,,,,,,,,,,,,,,,,2,0,0.982974258185,,,,,,PLC_L_D2S1,P23,60.0157721476,02,A,2015_Mrz_05_1429,Y,
stim/posf.jpg,stim/negf.jpg,stim/6.jpg,stim/5.jpg,stim/latef.jpg,AB,1,2,0,36,36,6,,,,,,,,,,,,,,,,,,2,1,0.833039904061,,,,,,PLC_L_D2S1,P23,60.0157721476,02,A,2015_Mrz_05_1429,Y,
stim/posf.jpg,stim/negf.jpg,stim/5.jpg,stim/6.jpg,stim/latef.jpg,AB,2,4,0,37,37,12,,,,,,,,,,,,,,,,,,4,1,0.633135181182,,,,,,PLC_L_D2S1,P23,60.0157721476,02,A,2015_Mrz_05_1429,Y,
stim/posf.jpg,stim/negf.jpg,stim/1.jpg,stim/3.jpg,stim/latef.jpg,CD,2,4,0,38,38,34,,,,,,,,,,,,,,,,,,4,1,0.916345093852,,,,,,PLC_L_D2S1,P23,60.0157721476,02,A,2015_Mrz_05_1429,Y,
stim/posf.jpg,stim/negf.jpg,stim/3.jpg,stim/1.jpg,stim/latef.jpg,CD,1,2,0,39,39,23,,,,,,,,,,,,,,,,,,2,1,1.08294150667,,,,,,PLC_L_D2S1,P23,60.0157721476,02,A,2015_Mrz_05_1429,Y,
stim/posf.jpg,stim/negf.jpg,stim/4.jpg,stim/2.jpg,stim/latef.jpg,EF,1,2,0,40,40,43,,,,,,,,,,,,,,,,,,4,0,1.03303375075,,,,,,PLC_L_D2S1,P23,60.0157721476,02,A,2015_Mrz_05_1429,Y,
stim/posf.jpg,stim/negf.jpg,stim/4.jpg,stim/2.jpg,stim/latef.jpg,EF,1,2,0,41,41,42,,,,,,,,,,,,,,,,,,2,1,0.683095703432,,,,,,PLC_L_D2S1,P23,60.0157721476,02,A,2015_Mrz_05_1429,Y,
stim/negf.jpg,stim/posf.jpg,stim/5.jpg,stim/6.jpg,stim/latef.jpg,AB,2,4,0,42,42,19,,,,,,,,,,,,,,,,,,4,1,1.04964533783,,,,,,PLC_L_D2S1,P23,60.0157721476,02,A,2015_Mrz_05_1429,Y,
stim/negf.jpg,stim/posf.jpg,stim/2.jpg,stim/4.jpg,stim/latef.jpg,EF,2,4,0,43,43,56,,,,,,,,,,,,,,,,,,2,0,1.08296673045,,,,,,PLC_L_D2S1,P23,60.0157721476,02,A,2015_Mrz_05_1429,Y,
stim/negf.jpg,stim/posf.jpg,stim/5.jpg,stim/6.jpg,stim/latef.jpg,AB,2,4,0,44,44,18,,,,,,,,,,,,,,,,,,4,1,0.749732398507,,,,,,PLC_L_D2S1,P23,60.0157721476,02,A,2015_Mrz_05_1429,Y,
stim/negf.jpg,stim/posf.jpg,stim/4.jpg,stim/2.jpg,stim/latef.jpg,EF,1,2,0,45,45,46,,,,,,,,,,,,,,,,,,2,1,1.06625560764,,,,,,PLC_L_D2S1,P23,60.0157721476,02,A,2015_Mrz_05_1429,Y,
stim/posf.jpg,stim/negf.jpg,stim/6.jpg,stim/5.jpg,stim/latef.jpg,AB,1,2,0,46,46,5,,,,,,,,,,,,,,,,,,2,1,0.799728174494,,,,,,PLC_L_D2S1,P23,60.0157721476,02,A,2015_Mrz_05_1429,Y,
stim/posf.jpg,stim/negf.jpg,stim/3.jpg,stim/1.jpg,stim/latef.jpg,CD,1,2,0,47,47,21,,,,,,,,,,,,,,,,,,2,1,0.916358377913,,,,,,PLC_L_D2S1,P23,60.0157721476,02,A,2015_Mrz_05_1429,Y,
stim/posf.jpg,stim/negf.jpg,stim/5.jpg,stim/6.jpg,stim/latef.jpg,AB,2,4,0,48,48,16,,,,,,,,,,,,,,,,,,4,1,0.983005421743,,,,,,PLC_L_D2S1,P23,60.0157721476,02,A,2015_Mrz_05_1429,Y,
stim/posf.jpg,stim/negf.jpg,stim/6.jpg,stim/5.jpg,stim/latef.jpg,AB,1,2,0,49,49,7,,,,,,,,,,,,,,,,,,2,1,0.716407562321,,,,,,PLC_L_D2S1,P23,60.0157721476,02,A,2015_Mrz_05_1429,Y,
stim/negf.jpg,stim/posf.jpg,stim/2.jpg,stim/4.jpg,stim/latef.jpg,EF,2,4,0,50,50,59,,,,,,,,,,,,,,,,,,4,1,1.19963026282,,,,,,PLC_L_D2S1,P23,60.0157721476,02,A,2015_Mrz_05_1429,Y,
stim/negf.jpg,stim/posf.jpg,stim/3.jpg,stim/1.jpg,stim/latef.jpg,CD,1,2,0,51,51,29,,,,,,,,,,,,,,,,,,2,1,1.08295903129,,,,,,PLC_L_D2S1,P23,60.0157721476,02,A,2015_Mrz_05_1429,Y,
stim/posf.jpg,stim/negf.jpg,stim/6.jpg,stim/5.jpg,stim/latef.jpg,AB,1,2,0,52,52,4,,,,,,,,,,,,,,,,,,2,1,0.749700104134,,,,,,PLC_L_D2S1,P23,60.0157721476,02,A,2015_Mrz_05_1429,Y,
stim/posf.jpg,stim/negf.jpg,stim/3.jpg,stim/1.jpg,stim/latef.jpg,CD,1,2,0,53,53,24,,,,,,,,,,,,,,,,,,2,1,0.916351968963,,,,,,PLC_L_D2S1,P23,60.0157721476,02,A,2015_Mrz_05_1429,Y,
stim/negf.jpg,stim/posf.jpg,stim/6.jpg,stim/5.jpg,stim/latef.jpg,AB,1,2,0,54,54,8,,,,,,,,,,,,,,,,,,2,1,0.849652871584,,,,,,PLC_L_D2S1,P23,60.0157721476,02,A,2015_Mrz_05_1429,Y,
stim/posf.jpg,stim/negf.jpg,stim/3.jpg,stim/1.jpg,stim/latef.jpg,CD,1,2,0,55,55,20,,,,,,,,,,,,,,,,,,2,1,0.86634430138,,,,,,PLC_L_D2S1,P23,60.0157721476,02,A,2015_Mrz_05_1429,Y,
stim/posf.jpg,stim/negf.jpg,stim/1.jpg,stim/3.jpg,stim/latef.jpg,CD,2,4,0,56,56,31,,,,,,,,,,,,,,,,,,4,1,0.966344138976,,,,,,PLC_L_D2S1,P23,60.0157721476,02,A,2015_Mrz_05_1429,Y,
stim/negf.jpg,stim/posf.jpg,stim/1.jpg,stim/3.jpg,stim/latef.jpg,CD,2,4,0,57,57,37,,,,,,,,,,,,,,,,,,4,1,0.833053603155,,,,,,PLC_L_D2S1,P23,60.0157721476,02,A,2015_Mrz_05_1429,Y,
stim/posf.jpg,stim/negf.jpg,stim/5.jpg,stim/6.jpg,stim/latef.jpg,AB,2,4,0,58,58,13,,,,,,,,,,,,,,,,,,4,1,0.966326157224,,,,,,PLC_L_D2S1,P23,60.0157721476,02,A,2015_Mrz_05_1429,Y,
stim/posf.jpg,stim/negf.jpg,stim/1.jpg,stim/3.jpg,stim/latef.jpg,CD,2,4,0,59,59,32,,,,,,,,,,,,,,,,,,4,1,0.832993056469,,,,,,PLC_L_D2S1,P23,60.0157721476,02,A,2015_Mrz_05_1429,Y,
,,,,,,,,,,,,,,,,,,,,,,,,,,,,,,,,-0.9578125,-0.615234375,1,0,0,PLC_L_D2S1,P23,60.0157721476,02,A,2015_Mrz_05_1429,Y,
stim/posf.jpg,stim/negf.jpg,stim/5.jpg,stim/6.jpg,stim/latef.jpg,AB,2,4,,,,,0,0,0,15,,,,,,,,,,,,,,4,1,0.816379791205,,,,,,PLC_L_D2S1,P23,60.0157721476,02,A,2015_Mrz_05_1429,Y,
stim/negf.jpg,stim/posf.jpg,stim/6.jpg,stim/5.jpg,stim/latef.jpg,AB,1,2,,,,,0,1,1,8,,,,,,,,,,,,,,2,1,0.816391845205,,,,,,PLC_L_D2S1,P23,60.0157721476,02,A,2015_Mrz_05_1429,Y,
stim/negf.jpg,stim/posf.jpg,stim/2.jpg,stim/4.jpg,stim/latef.jpg,EF,2,4,,,,,0,2,2,58,,,,,,,,,,,,,,4,1,0.949684687767,,,,,,PLC_L_D2S1,P23,60.0157721476,02,A,2015_Mrz_05_1429,Y,
stim/posf.jpg,stim/negf.jpg,stim/2.jpg,stim/4.jpg,stim/latef.jpg,EF,2,4,,,,,0,3,3,55,,,,,,,,,,,,,,2,0,0.94969050725,,,,,,PLC_L_D2S1,P23,60.0157721476,02,A,2015_Mrz_05_1429,Y,
stim/negf.jpg,stim/posf.jpg,stim/4.jpg,stim/2.jpg,stim/latef.jpg,EF,1,2,,,,,0,4,4,46,,,,,,,,,,,,,,4,0,1.04964182509,,,,,,PLC_L_D2S1,P23,60.0157721476,02,A,2015_Mrz_05_1429,Y,
stim/negf.jpg,stim/posf.jpg,stim/4.jpg,stim/2.jpg,stim/latef.jpg,EF,1,2,,,,,0,5,5,49,,,,,,,,,,,,,,4,0,0.566467205257,,,,,,PLC_L_D2S1,P23,60.0157721476,02,A,2015_Mrz_05_1429,Y,
stim/posf.jpg,stim/negf.jpg,stim/1.jpg,stim/3.jpg,stim/latef.jpg,CD,2,4,,,,,0,6,6,33,,,,,,,,,,,,,,4,1,0.816352609557,,,,,,PLC_L_D2S1,P23,60.0157721476,02,A,2015_Mrz_05_1429,Y,
stim/posf.jpg,stim/negf.jpg,stim/4.jpg,stim/2.jpg,stim/latef.jpg,EF,1,2,,,,,0,7,7,41,,,,,,,,,,,,,,4,0,0.78302295538,,,,,,PLC_L_D2S1,P23,60.0157721476,02,A,2015_Mrz_05_1429,Y,
stim/posf.jpg,stim/negf.jpg,stim/5.jpg,stim/6.jpg,stim/latef.jpg,AB,2,4,,,,,0,8,8,11,,,,,,,,,,,,,,4,1,0.99966181434,,,,,,PLC_L_D2S1,P23,60.0157721476,02,A,2015_Mrz_05_1429,Y,
stim/posf.jpg,stim/negf.jpg,stim/3.jpg,stim/1.jpg,stim/latef.jpg,CD,1,2,,,,,0,9,9,25,,,,,,,,,,,,,,2,1,0.84972921358,,,,,,PLC_L_D2S1,P23,60.0157721476,02,A,2015_Mrz_05_1429,Y,
stim/posf.jpg,stim/negf.jpg,stim/5.jpg,stim/6.jpg,stim/latef.jpg,AB,2,4,,,,,0,10,10,14,,,,,,,,,,,,,,4,1,0.866372655948,,,,,,PLC_L_D2S1,P23,60.0157721476,02,A,2015_Mrz_05_1429,Y,
stim/posf.jpg,stim/negf.jpg,stim/1.jpg,stim/3.jpg,stim/latef.jpg,CD,2,4,,,,,0,11,11,36,,,,,,,,,,,,,,4,1,0.683077887092,,,,,,PLC_L_D2S1,P23,60.0157721476,02,A,2015_Mrz_05_1429,Y,
stim/posf.jpg,stim/negf.jpg,stim/6.jpg,stim/5.jpg,stim/latef.jpg,AB,1,2,,,,,0,12,12,2,,,,,,,,,,,,,,2,1,0.849716657331,,,,,,PLC_L_D2S1,P23,60.0157721476,02,A,2015_Mrz_05_1429,Y,
stim/posf.jpg,stim/negf.jpg,stim/6.jpg,stim/5.jpg,stim/latef.jpg,AB,1,2,,,,,0,13,13,7,,,,,,,,,,,,,,2,1,0.533127692545,,,,,,PLC_L_D2S1,P23,60.0157721476,02,A,2015_Mrz_05_1429,Y,
stim/posf.jpg,stim/negf.jpg,stim/1.jpg,stim/3.jpg,stim/latef.jpg,CD,2,4,,,,,0,14,14,30,,,,,,,,,,,,,,4,1,0.999600584956,,,,,,PLC_L_D2S1,P23,60.0157721476,02,A,2015_Mrz_05_1429,Y,
stim/negf.jpg,stim/posf.jpg,stim/1.jpg,stim/3.jpg,stim/latef.jpg,CD,2,4,,,,,0,15,15,37,,,,,,,,,,,,,,4,1,0.833036153728,,,,,,PLC_L_D2S1,P23,60.0157721476,02,A,2015_Mrz_05_1429,Y,
stim/negf.jpg,stim/posf.jpg,stim/4.jpg,stim/2.jpg,stim/latef.jpg,EF,1,2,,,,,0,16,16,48,,,,,,,,,,,,,,4,0,1.08298527159,,,,,,PLC_L_D2S1,P23,60.0157721476,02,A,2015_Mrz_05_1429,Y,
stim/negf.jpg,stim/posf.jpg,stim/1.jpg,stim/3.jpg,stim/latef.jpg,CD,2,4,,,,,0,17,17,39,,,,,,,,,,,,,,4,1,1.1329437668,,,,,,PLC_L_D2S1,P23,60.0157721476,02,A,2015_Mrz_05_1429,Y,
stim/posf.jpg,stim/negf.jpg,stim/3.jpg,stim/1.jpg,stim/latef.jpg,CD,1,2,,,,,0,18,18,26,,,,,,,,,,,,,,2,1,1.04964960546,,,,,,PLC_L_D2S1,P23,60.0157721476,02,A,2015_Mrz_05_1429,Y,
stim/negf.jpg,stim/posf.jpg,stim/4.jpg,stim/2.jpg,stim/latef.jpg,EF,1,2,,,,,0,19,19,47,,,,,,,,,,,,,,4,0,1.09964102961,,,,,,PLC_L_D2S1,P23,60.0157721476,02,A,2015_Mrz_05_1429,Y,
stim/posf.jpg,stim/negf.jpg,stim/4.jpg,stim/2.jpg,stim/latef.jpg,EF,1,2,,,,,0,20,20,42,,,,,,,,,,,,,,4,0,0.766404646564,,,,,,PLC_L_D2S1,P23,60.0157721476,02,A,2015_Mrz_05_1429,Y,
stim/negf.jpg,stim/posf.jpg,stim/1.jpg,stim/3.jpg,stim/latef.jpg,CD,2,4,,,,,0,21,21,38,,,,,,,,,,,,,,4,1,0.833103996571,,,,,,PLC_L_D2S1,P23,60.0157721476,02,A,2015_Mrz_05_1429,Y,
stim/posf.jpg,stim/negf.jpg,stim/3.jpg,stim/1.jpg,stim/latef.jpg,CD,1,2,,,,,0,22,22,20,,,,,,,,,,,,,,2,1,0.866359062116,,,,,,PLC_L_D2S1,P23,60.0157721476,02,A,2015_Mrz_05_1429,Y,
stim/posf.jpg,stim/negf.jpg,stim/2.jpg,stim/4.jpg,stim/latef.jpg,EF,2,4,,,,,0,23,23,52,,,,,,,,,,,,,,4,1,1.19959166175,,,,,,PLC_L_D2S1,P23,60.0157721476,02,A,2015_Mrz_05_1429,Y,
stim/posf.jpg,stim/negf.jpg,stim/6.jpg,stim/5.jpg,stim/latef.jpg,AB,1,2,,,,,0,24,24,6,,,,,,,,,,,,,,2,1,0.749757778672,,,,,,PLC_L_D2S1,P23,60.0157721476,02,A,2015_Mrz_05_1429,Y,
stim/negf.jpg,stim/posf.jpg,stim/3.jpg,stim/1.jpg,stim/latef.jpg,CD,1,2,,,,,0,25,25,29,,,,,,,,,,,,,,2,1,0.79979916016,,,,,,PLC_L_D2S1,P23,60.0157721476,02,A,2015_Mrz_05_1429,Y,
stim/posf.jpg,stim/negf.jpg,stim/2.jpg,stim/4.jpg,stim/latef.jpg,EF,2,4,,,,,0,26,26,54,,,,,,,,,,,,,,4,1,1.21623225302,,,,,,PLC_L_D2S1,P23,60.0157721476,02,A,2015_Mrz_05_1429,Y,
stim/negf.jpg,stim/posf.jpg,stim/2.jpg,stim/4.jpg,stim/latef.jpg,EF,2,4,,,,,0,27,27,59,,,,,,,,,,,,,,4,1,1.2495950166,,,,,,PLC_L_D2S1,P23,60.0157721476,02,A,2015_Mrz_05_1429,Y,
stim/negf.jpg,stim/posf.jpg,stim/5.jpg,stim/6.jpg,stim/latef.jpg,AB,2,4,,,,,0,28,28,18,,,,,,,,,,,,,,4,1,1.06629991993,,,,,,PLC_L_D2S1,P23,60.0157721476,02,A,2015_Mrz_05_1429,Y,
stim/posf.jpg,stim/negf.jpg,stim/6.jpg,stim/5.jpg,stim/latef.jpg,AB,1,2,,,,,0,29,29,4,,,,,,,,,,,,,,2,1,0.899697007929,,,,,,PLC_L_D2S1,P23,60.0157721476,02,A,2015_Mrz_05_1429,Y,
stim/posf.jpg,stim/negf.jpg,stim/3.jpg,stim/1.jpg,stim/latef.jpg,CD,1,2,,,,,0,30,30,21,,,,,,,,,,,,,,2,1,0.883035000357,,,,,,PLC_L_D2S1,P23,60.0157721476,02,A,2015_Mrz_05_1429,Y,
stim/posf.jpg,stim/negf.jpg,stim/3.jpg,stim/1.jpg,stim/latef.jpg,CD,1,2,,,,,0,31,31,22,,,,,,,,,,,,,,2,1,0.81643104777,,,,,,PLC_L_D2S1,P23,60.0157721476,02,A,2015_Mrz_05_1429,Y,
stim/posf.jpg,stim/negf.jpg,stim/5.jpg,stim/6.jpg,stim/latef.jpg,AB,2,4,,,,,0,32,32,17,,,,,,,,,,,,,,4,1,0.816392497829,,,,,,PLC_L_D2S1,P23,60.0157721476,02,A,2015_Mrz_05_1429,Y,
stim/posf.jpg,stim/negf.jpg,stim/1.jpg,stim/3.jpg,stim/latef.jpg,CD,2,4,,,,,0,33,33,34,,,,,,,,,,,,,,4,1,0.866390451235,,,,,,PLC_L_D2S1,P23,60.0157721476,02,A,2015_Mrz_05_1429,Y,
stim/posf.jpg,stim/negf.jpg,stim/5.jpg,stim/6.jpg,stim/latef.jpg,AB,2,4,,,,,0,34,34,13,,,,,,,,,,,,,,4,1,0.733107981489,,,,,,PLC_L_D2S1,P23,60.0157721476,02,A,2015_Mrz_05_1429,Y,
stim/negf.jpg,stim/posf.jpg,stim/6.jpg,stim/5.jpg,stim/latef.jpg,AB,1,2,,,,,0,35,35,9,,,,,,,,,,,,,,2,1,0.866415897565,,,,,,PLC_L_D2S1,P23,60.0157721476,02,A,2015_Mrz_05_1429,Y,
stim/posf.jpg,stim/negf.jpg,stim/5.jpg,stim/6.jpg,stim/latef.jpg,AB,2,4,,,,,0,36,36,10,,,,,,,,,,,,,,4,1,1.18294962087,,,,,,PLC_L_D2S1,P23,60.0157721476,02,A,2015_Mrz_05_1429,Y,
stim/posf.jpg,stim/negf.jpg,stim/4.jpg,stim/2.jpg,stim/latef.jpg,EF,1,2,,,,,0,37,37,40,,,,,,,,,,,,,,4,0,1.11629064635,,,,,,PLC_L_D2S1,P23,60.0157721476,02,A,2015_Mrz_05_1429,Y,
stim/posf.jpg,stim/negf.jpg,stim/3.jpg,stim/1.jpg,stim/latef.jpg,CD,1,2,,,,,0,38,38,23,,,,,,,,,,,,,,2,1,0.733098522949,,,,,,PLC_L_D2S1,P23,60.0157721476,02,A,2015_Mrz_05_1429,Y,
stim/posf.jpg,stim/negf.jpg,stim/1.jpg,stim/3.jpg,stim/latef.jpg,CD,2,4,,,,,0,39,39,32,,,,,,,,,,,,,,4,1,1.09961336376,,,,,,PLC_L_D2S1,P23,60.0157721476,02,A,2015_Mrz_05_1429,Y,
stim/posf.jpg,stim/negf.jpg,stim/2.jpg,stim/4.jpg,stim/latef.jpg,EF,2,4,,,,,0,40,40,53,,,,,,,,,,,,,,2,0,0.849767303376,,,,,,PLC_L_D2S1,P23,60.0157721476,02,A,2015_Mrz_05_1429,Y,
stim/posf.jpg,stim/negf.jpg,stim/6.jpg,stim/5.jpg,stim/latef.jpg,AB,1,2,,,,,0,41,41,5,,,,,,,,,,,,,,4,0,0.716427562095,,,,,,PLC_L_D2S1,P23,60.0157721476,02,A,2015_Mrz_05_1429,Y,
stim/posf.jpg,stim/negf.jpg,stim/3.jpg,stim/1.jpg,stim/latef.jpg,CD,1,2,,,,,0,42,42,24,,,,,,,,,,,,,,2,1,0.9497069612,,,,,,PLC_L_D2S1,P23,60.0157721476,02,A,2015_Mrz_05_1429,Y,
stim/posf.jpg,stim/negf.jpg,stim/2.jpg,stim/4.jpg,stim/latef.jpg,EF,2,4,,,,,0,43,43,50,,,,,,,,,,,,,,2,0,0.88297885663,,,,,,PLC_L_D2S1,P23,60.0157721476,02,A,2015_Mrz_05_1429,Y,
stim/posf.jpg,stim/negf.jpg,stim/5.jpg,stim/6.jpg,stim/latef.jpg,AB,2,4,,,,,0,44,44,12,,,,,,,,,,,,,,4,1,0.799761813213,,,,,,PLC_L_D2S1,P23,60.0157721476,02,A,2015_Mrz_05_1429,Y,
stim/negf.jpg,stim/posf.jpg,stim/2.jpg,stim/4.jpg,stim/latef.jpg,EF,2,4,,,,,0,45,45,57,,,,,,,,,,,,,,2,0,0.833089070424,,,,,,PLC_L_D2S1,P23,60.0157721476,02,A,2015_Mrz_05_1429,Y,
stim/posf.jpg,stim/negf.jpg,stim/1.jpg,stim/3.jpg,stim/latef.jpg,CD,2,4,,,,,0,46,46,31,,,,,,,,,,,,,,4,1,0.883070335297,,,,,,PLC_L_D2S1,P23,60.0157721476,02,A,2015_Mrz_05_1429,Y,
stim/posf.jpg,stim/negf.jpg,stim/6.jpg,stim/5.jpg,stim/latef.jpg,AB,1,2,,,,,0,47,47,3,,,,,,,,,,,,,,2,1,0.866361179385,,,,,,PLC_L_D2S1,P23,60.0157721476,02,A,2015_Mrz_05_1429,Y,
stim/posf.jpg,stim/negf.jpg,stim/6.jpg,stim/5.jpg,stim/latef.jpg,AB,1,2,,,,,0,48,48,0,,,,,,,,,,,,,,2,1,0.68313147145,,,,,,PLC_L_D2S1,P23,60.0157721476,02,A,2015_Mrz_05_1429,Y,
stim/posf.jpg,stim/negf.jpg,stim/2.jpg,stim/4.jpg,stim/latef.jpg,EF,2,4,,,,,0,49,49,51,,,,,,,,,,,,,,2,0,0.633069437562,,,,,,PLC_L_D2S1,P23,60.0157721476,02,A,2015_Mrz_05_1429,Y,
stim/negf.jpg,stim/posf.jpg,stim/3.jpg,stim/1.jpg,stim/latef.jpg,CD,1,2,,,,,0,50,50,28,,,,,,,,,,,,,,2,1,0.749742422454,,,,,,PLC_L_D2S1,P23,60.0157721476,02,A,2015_Mrz_05_1429,Y,
stim/posf.jpg,stim/negf.jpg,stim/4.jpg,stim/2.jpg,stim/latef.jpg,EF,1,2,,,,,0,51,51,45,,,,,,,,,,,,,,4,0,0.799740517212,,,,,,PLC_L_D2S1,P23,60.0157721476,02,A,2015_Mrz_05_1429,Y,
stim/posf.jpg,stim/negf.jpg,stim/4.jpg,stim/2.jpg,stim/latef.jpg,EF,1,2,,,,,0,52,52,44,,,,,,,,,,,,,,4,0,0.783028245546,,,,,,PLC_L_D2S1,P23,60.0157721476,02,A,2015_Mrz_05_1429,Y,
stim/negf.jpg,stim/posf.jpg,stim/5.jpg,stim/6.jpg,stim/latef.jpg,AB,2,4,,,,,0,53,53,19,,,,,,,,,,,,,,4,1,0.816391225663,,,,,,PLC_L_D2S1,P23,60.0157721476,02,A,2015_Mrz_05_1429,Y,
stim/negf.jpg,stim/posf.jpg,stim/3.jpg,stim/1.jpg,stim/latef.jpg,CD,1,2,,,,,0,54,54,27,,,,,,,,,,,,,,2,1,0.649794100067,,,,,,PLC_L_D2S1,P23,60.0157721476,02,A,2015_Mrz_05_1429,Y,
stim/posf.jpg,stim/negf.jpg,stim/5.jpg,stim/6.jpg,stim/latef.jpg,AB,2,4,,,,,0,55,55,16,,,,,,,,,,,,,,4,1,0.716430831231,,,,,,PLC_L_D2S1,P23,60.0157721476,02,A,2015_Mrz_05_1429,Y,
stim/negf.jpg,stim/posf.jpg,stim/2.jpg,stim/4.jpg,stim/latef.jpg,EF,2,4,,,,,0,56,56,56,,,,,,,,,,,,,,4,1,0.866386303914,,,,,,PLC_L_D2S1,P23,60.0157721476,02,A,2015_Mrz_05_1429,Y,
stim/posf.jpg,stim/negf.jpg,stim/1.jpg,stim/3.jpg,stim/latef.jpg,CD,2,4,,,,,0,57,57,35,,,,,,,,,,,,,,4,1,0.633119623463,,,,,,PLC_L_D2S1,P23,60.0157721476,02,A,2015_Mrz_05_1429,Y,
stim/posf.jpg,stim/negf.jpg,stim/6.jpg,stim/5.jpg,stim/latef.jpg,AB,1,2,,,,,0,58,58,1,,,,,,,,,,,,,,4,0,0.783081953211,,,,,,PLC_L_D2S1,P23,60.0157721476,02,A,2015_Mrz_05_1429,Y,
stim/posf.jpg,stim/negf.jpg,stim/4.jpg,stim/2.jpg,stim/latef.jpg,EF,1,2,,,,,0,59,59,43,,,,,,,,,,,,,,4,0,0.833085828355,,,,,,PLC_L_D2S1,P23,60.0157721476,02,A,2015_Mrz_05_1429,Y,
,,,,,,,,,,,,,,,,,,,,,,,,,,,,,,,,-0.9578125,-0.615234375,1,0,0,PLC_L_D2S1,P23,60.0157721476,02,A,2015_Mrz_05_1429,Y,
stim/negf.jpg,stim/posf.jpg,stim/1.jpg,stim/3.jpg,stim/latef.jpg,CD,2,4,,,,,,,,,0,0,0,37,,,,,,,,,,4,1,0.899669829288,,,,,,PLC_L_D2S1,P23,60.0157721476,02,A,2015_Mrz_05_1429,Y,
stim/negf.jpg,stim/posf.jpg,stim/5.jpg,stim/6.jpg,stim/latef.jpg,AB,2,4,,,,,,,,,0,1,1,18,,,,,,,,,,4,1,0.633115379901,,,,,,PLC_L_D2S1,P23,60.0157721476,02,A,2015_Mrz_05_1429,Y,
stim/posf.jpg,stim/negf.jpg,stim/5.jpg,stim/6.jpg,stim/latef.jpg,AB,2,4,,,,,,,,,0,2,2,12,,,,,,,,,,4,1,0.583167531193,,,,,,PLC_L_D2S1,P23,60.0157721476,02,A,2015_Mrz_05_1429,Y,
stim/posf.jpg,stim/negf.jpg,stim/2.jpg,stim/4.jpg,stim/latef.jpg,EF,2,4,,,,,,,,,0,3,3,53,,,,,,,,,,4,1,1.29958290395,,,,,,PLC_L_D2S1,P23,60.0157721476,02,A,2015_Mrz_05_1429,Y,
stim/negf.jpg,stim/posf.jpg,stim/4.jpg,stim/2.jpg,stim/latef.jpg,EF,1,2,,,,,,,,,0,4,4,47,,,,,,,,,,2,1,0.99971068597,,,,,,PLC_L_D2S1,P23,60.0157721476,02,A,2015_Mrz_05_1429,Y,
stim/posf.jpg,stim/negf.jpg,stim/3.jpg,stim/1.jpg,stim/latef.jpg,CD,1,2,,,,,,,,,0,5,5,25,,,,,,,,,,2,1,0.716451904678,,,,,,PLC_L_D2S1,P23,60.0157721476,02,A,2015_Mrz_05_1429,Y,
stim/posf.jpg,stim/negf.jpg,stim/2.jpg,stim/4.jpg,stim/latef.jpg,EF,2,4,,,,,,,,,0,6,6,50,,,,,,,,,,2,0,0.999631150025,,,,,,PLC_L_D2S1,P23,60.0157721476,02,A,2015_Mrz_05_1429,Y,
stim/negf.jpg,stim/posf.jpg,stim/2.jpg,stim/4.jpg,stim/latef.jpg,EF,2,4,,,,,,,,,0,7,7,56,,,,,,,,,,4,1,0.93300928185,,,,,,PLC_L_D2S1,P23,60.0157721476,02,A,2015_Mrz_05_1429,Y,
stim/negf.jpg,stim/posf.jpg,stim/1.jpg,stim/3.jpg,stim/latef.jpg,CD,2,4,,,,,,,,,0,8,8,38,,,,,,,,,,4,1,0.899651946783,,,,,,PLC_L_D2S1,P23,60.0157721476,02,A,2015_Mrz_05_1429,Y,
stim/posf.jpg,stim/negf.jpg,stim/1.jpg,stim/3.jpg,stim/latef.jpg,CD,2,4,,,,,,,,,0,9,9,31,,,,,,,,,,4,1,0.933006905937,,,,,,PLC_L_D2S1,P23,60.0157721476,02,A,2015_Mrz_05_1429,Y,
stim/negf.jpg,stim/posf.jpg,stim/1.jpg,stim/3.jpg,stim/latef.jpg,CD,2,4,,,,,,,,,0,10,10,39,,,,,,,,,,4,1,0.716389989586,,,,,,PLC_L_D2S1,P23,60.0157721476,02,A,2015_Mrz_05_1429,Y,
stim/posf.jpg,stim/negf.jpg,stim/5.jpg,stim/6.jpg,stim/latef.jpg,AB,2,4,,,,,,,,,0,11,11,15,,,,,,,,,,4,1,0.633131839867,,,,,,PLC_L_D2S1,P23,60.0157721476,02,A,2015_Mrz_05_1429,Y,
stim/posf.jpg,stim/negf.jpg,stim/6.jpg,stim/5.jpg,stim/latef.jpg,AB,1,2,,,,,,,,,0,12,12,3,,,,,,,,,,2,1,0.666416814848,,,,,,PLC_L_D2S1,P23,60.0157721476,02,A,2015_Mrz_05_1429,Y,
stim/posf.jpg,stim/negf.jpg,stim/2.jpg,stim/4.jpg,stim/latef.jpg,EF,2,4,,,,,,,,,0,13,13,55,,,,,,,,,,2,0,0.999668051864,,,,,,PLC_L_D2S1,P23,60.0157721476,02,A,2015_Mrz_05_1429,Y,
stim/posf.jpg,stim/negf.jpg,stim/5.jpg,stim/6.jpg,stim/latef.jpg,AB,2,4,,,,,,,,,0,14,14,17,,,,,,,,,,4,1,0.549779820529,,,,,,PLC_L_D2S1,P23,60.0157721476,02,A,2015_Mrz_05_1429,Y,
stim/posf.jpg,stim/negf.jpg,stim/1.jpg,stim/3.jpg,stim/latef.jpg,CD,2,4,,,,,,,,,0,15,15,32,,,,,,,,,,4,1,0.766418291523,,,,,,PLC_L_D2S1,P23,60.0157721476,02,A,2015_Mrz_05_1429,Y,
stim/posf.jpg,stim/negf.jpg,stim/5.jpg,stim/6.jpg,stim/latef.jpg,AB,2,4,,,,,,,,,0,16,16,16,,,,,,,,,,4,1,0.733068917268,,,,,,PLC_L_D2S1,P23,60.0157721476,02,A,2015_Mrz_05_1429,Y,
stim/posf.jpg,stim/negf.jpg,stim/1.jpg,stim/3.jpg,stim/latef.jpg,CD,2,4,,,,,,,,,0,17,17,35,,,,,,,,,,2,0,0.816396001549,,,,,,PLC_L_D2S1,P23,60.0157721476,02,A,2015_Mrz_05_1429,Y,
stim/posf.jpg,stim/negf.jpg,stim/4.jpg,stim/2.jpg,stim/latef.jpg,EF,1,2,,,,,,,,,0,18,18,45,,,,,,,,,,4,0,1.03291986932,,,,,,PLC_L_D2S1,P23,60.0157721476,02,A,2015_Mrz_05_1429,Y,
stim/posf.jpg,stim/negf.jpg,stim/6.jpg,stim/5.jpg,stim/latef.jpg,AB,1,2,,,,,,,,,0,19,19,6,,,,,,,,,,2,1,0.949642670195,,,,,,PLC_L_D2S1,P23,60.0157721476,02,A,2015_Mrz_05_1429,Y,
stim/negf.jpg,stim/posf.jpg,stim/3.jpg,stim/1.jpg,stim/latef.jpg,CD,1,2,,,,,,,,,0,20,20,28,,,,,,,,,,2,1,0.749760488416,,,,,,PLC_L_D2S1,P23,60.0157721476,02,A,2015_Mrz_05_1429,Y,
stim/posf.jpg,stim/negf.jpg,stim/5.jpg,stim/6.jpg,stim/latef.jpg,AB,2,4,,,,,,,,,0,21,21,11,,,,,,,,,,4,1,0.93301883663,,,,,,PLC_L_D2S1,P23,60.0157721476,02,A,2015_Mrz_05_1429,Y,
stim/posf.jpg,stim/negf.jpg,stim/6.jpg,stim/5.jpg,stim/latef.jpg,AB,1,2,,,,,,,,,0,22,22,5,,,,,,,,,,2,1,1.06630677699,,,,,,PLC_L_D2S1,P23,60.0157721476,02,A,2015_Mrz_05_1429,Y,
stim/negf.jpg,stim/posf.jpg,stim/6.jpg,stim/5.jpg,stim/latef.jpg,AB,1,2,,,,,,,,,0,23,23,8,,,,,,,,,,2,1,0.566493051582,,,,,,PLC_L_D2S1,P23,60.0157721476,02,A,2015_Mrz_05_1429,Y,
stim/posf.jpg,stim/negf.jpg,stim/4.jpg,stim/2.jpg,stim/latef.jpg,EF,1,2,,,,,,,,,0,24,24,40,,,,,,,,,,4,0,0.933085644899,,,,,,PLC_L_D2S1,P23,60.0157721476,02,A,2015_Mrz_05_1429,Y,
stim/negf.jpg,stim/posf.jpg,stim/3.jpg,stim/1.jpg,stim/latef.jpg,CD,1,2,,,,,,,,,0,25,25,27,,,,,,,,,,2,1,0.916365319188,,,,,,PLC_L_D2S1,P23,60.0157721476,02,A,2015_Mrz_05_1429,Y,
stim/posf.jpg,stim/negf.jpg,stim/3.jpg,stim/1.jpg,stim/latef.jpg,CD,1,2,,,,,,,,,0,26,26,21,,,,,,,,,,2,1,0.84977047928,,,,,,PLC_L_D2S1,P23,60.0157721476,02,A,2015_Mrz_05_1429,Y,
stim/posf.jpg,stim/negf.jpg,stim/3.jpg,stim/1.jpg,stim/latef.jpg,CD,1,2,,,,,,,,,0,27,27,22,,,,,,,,,,2,1,0.733086941124,,,,,,PLC_L_D2S1,P23,60.0157721476,02,A,2015_Mrz_05_1429,Y,
stim/posf.jpg,stim/negf.jpg,stim/2.jpg,stim/4.jpg,stim/latef.jpg,EF,2,4,,,,,,,,,0,28,28,52,,,,,,,,,,2,0,0.983015605087,,,,,,PLC_L_D2S1,P23,60.0157721476,02,A,2015_Mrz_05_1429,Y,
stim/negf.jpg,stim/posf.jpg,stim/4.jpg,stim/2.jpg,stim/latef.jpg,EF,1,2,,,,,,,,,0,29,29,48,,,,,,,,,,4,0,0.783065306782,,,,,,PLC_L_D2S1,P23,60.0157721476,02,A,2015_Mrz_05_1429,Y,
stim/negf.jpg,stim/posf.jpg,stim/2.jpg,stim/4.jpg,stim/latef.jpg,EF,2,4,,,,,,,,,0,30,30,57,,,,,,,,,,4,1,1.0663047319,,,,,,PLC_L_D2S1,P23,60.0157721476,02,A,2015_Mrz_05_1429,Y,
stim/negf.jpg,stim/posf.jpg,stim/4.jpg,stim/2.jpg,stim/latef.jpg,EF,1,2,,,,,,,,,0,31,31,49,,,,,,,,,,4,0,0.716424202735,,,,,,PLC_L_D2S1,P23,60.0157721476,02,A,2015_Mrz_05_1429,Y,
stim/posf.jpg,stim/negf.jpg,stim/4.jpg,stim/2.jpg,stim/latef.jpg,EF,1,2,,,,,,,,,0,32,32,42,,,,,,,,,,4,0,0.64979502938,,,,,,PLC_L_D2S1,P23,60.0157721476,02,A,2015_Mrz_05_1429,Y,
stim/posf.jpg,stim/negf.jpg,stim/3.jpg,stim/1.jpg,stim/latef.jpg,CD,1,2,,,,,,,,,0,33,33,23,,,,,,,,,,2,1,0.966367552246,,,,,,PLC_L_D2S1,P23,60.0157721476,02,A,2015_Mrz_05_1429,Y,
stim/posf.jpg,stim/negf.jpg,stim/3.jpg,stim/1.jpg,stim/latef.jpg,CD,1,2,,,,,,,,,0,34,34,24,,,,,,,,,,2,1,0.666466733082,,,,,,PLC_L_D2S1,P23,60.0157721476,02,A,2015_Mrz_05_1429,Y,
stim/posf.jpg,stim/negf.jpg,stim/6.jpg,stim/5.jpg,stim/latef.jpg,AB,1,2,,,,,,,,,0,35,35,4,,,,,,,,,,2,1,0.799746847968,,,,,,PLC_L_D2S1,P23,60.0157721476,02,A,2015_Mrz_05_1429,Y,
stim/posf.jpg,stim/negf.jpg,stim/6.jpg,stim/5.jpg,stim/latef.jpg,AB,1,2,,,,,,,,,0,36,36,0,,,,,,,,,,2,1,0.633055149002,,,,,,PLC_L_D2S1,P23,60.0157721476,02,A,2015_Mrz_05_1429,Y,
stim/negf.jpg,stim/posf.jpg,stim/2.jpg,stim/4.jpg,stim/latef.jpg,EF,2,4,,,,,,,,,0,37,37,59,,,,,,,,,,2,0,0.933029982369,,,,,,PLC_L_D2S1,P23,60.0157721476,02,A,2015_Mrz_05_1429,Y,
stim/posf.jpg,stim/negf.jpg,stim/1.jpg,stim/3.jpg,stim/latef.jpg,CD,2,4,,,,,,,,,0,38,38,33,,,,,,,,,,4,1,0.866373925106,,,,,,PLC_L_D2S1,P23,60.0157721476,02,A,2015_Mrz_05_1429,Y,
stim/negf.jpg,stim/posf.jpg,stim/4.jpg,stim/2.jpg,stim/latef.jpg,EF,1,2,,,,,,,,,0,39,39,46,,,,,,,,,,4,0,1.04959562712,,,,,,PLC_L_D2S1,P23,60.0157721476,02,A,2015_Mrz_05_1429,Y,
stim/posf.jpg,stim/negf.jpg,stim/5.jpg,stim/6.jpg,stim/latef.jpg,AB,2,4,,,,,,,,,0,40,40,14,,,,,,,,,,4,1,1.01632145803,,,,,,PLC_L_D2S1,P23,60.0157721476,02,A,2015_Mrz_05_1429,Y,
stim/posf.jpg,stim/negf.jpg,stim/5.jpg,stim/6.jpg,stim/latef.jpg,AB,2,4,,,,,,,,,0,41,41,13,,,,,,,,,,None,0,,,,,,,PLC_L_D2S1,P23,60.0157721476,02,A,2015_Mrz_05_1429,Y,
stim/posf.jpg,stim/negf.jpg,stim/2.jpg,stim/4.jpg,stim/latef.jpg,EF,2,4,,,,,,,,,0,42,42,51,,,,,,,,,,2,0,1.24958579264,,,,,,PLC_L_D2S1,P23,60.0157721476,02,A,2015_Mrz_05_1429,Y,
stim/negf.jpg,stim/posf.jpg,stim/2.jpg,stim/4.jpg,stim/latef.jpg,EF,2,4,,,,,,,,,0,43,43,58,,,,,,,,,,2,0,0.749730145901,,,,,,PLC_L_D2S1,P23,60.0157721476,02,A,2015_Mrz_05_1429,Y,
stim/posf.jpg,stim/negf.jpg,stim/4.jpg,stim/2.jpg,stim/latef.jpg,EF,1,2,,,,,,,,,0,44,44,41,,,,,,,,,,2,1,0.733089037342,,,,,,PLC_L_D2S1,P23,60.0157721476,02,A,2015_Mrz_05_1429,Y,
stim/posf.jpg,stim/negf.jpg,stim/6.jpg,stim/5.jpg,stim/latef.jpg,AB,1,2,,,,,,,,,0,45,45,1,,,,,,,,,,2,1,0.71642205539,,,,,,PLC_L_D2S1,P23,60.0157721476,02,A,2015_Mrz_05_1429,Y,
stim/negf.jpg,stim/posf.jpg,stim/6.jpg,stim/5.jpg,stim/latef.jpg,AB,1,2,,,,,,,,,0,46,46,9,,,,,,,,,,2,1,0.549820884727,,,,,,PLC_L_D2S1,P23,60.0157721476,02,A,2015_Mrz_05_1429,Y,
stim/posf.jpg,stim/negf.jpg,stim/1.jpg,stim/3.jpg,stim/latef.jpg,CD,2,4,,,,,,,,,0,47,47,36,,,,,,,,,,4,1,0.666453632478,,,,,,PLC_L_D2S1,P23,60.0157721476,02,A,2015_Mrz_05_1429,Y,
stim/posf.jpg,stim/negf.jpg,stim/2.jpg,stim/4.jpg,stim/latef.jpg,EF,2,4,,,,,,,,,0,48,48,54,,,,,,,,,,2,0,0.949736211998,,,,,,PLC_L_D2S1,P23,60.0157721476,02,A,2015_Mrz_05_1429,Y,
stim/posf.jpg,stim/negf.jpg,stim/5.jpg,stim/6.jpg,stim/latef.jpg,AB,2,4,,,,,,,,,0,49,49,10,,,,,,,,,,4,1,0.549806247298,,,,,,PLC_L_D2S1,P23,60.0157721476,02,A,2015_Mrz_05_1429,Y,
stim/posf.jpg,stim/negf.jpg,stim/4.jpg,stim/2.jpg,stim/latef.jpg,EF,1,2,,,,,,,,,0,50,50,44,,,,,,,,,,2,1,0.88306328876,,,,,,PLC_L_D2S1,P23,60.0157721476,02,A,2015_Mrz_05_1429,Y,
stim/posf.jpg,stim/negf.jpg,stim/1.jpg,stim/3.jpg,stim/latef.jpg,CD,2,4,,,,,,,,,0,51,51,30,,,,,,,,,,4,1,0.733073220978,,,,,,PLC_L_D2S1,P23,60.0157721476,02,A,2015_Mrz_05_1429,Y,
stim/posf.jpg,stim/negf.jpg,stim/6.jpg,stim/5.jpg,stim/latef.jpg,AB,1,2,,,,,,,,,0,52,52,7,,,,,,,,,,2,1,0.783037887543,,,,,,PLC_L_D2S1,P23,60.0157721476,02,A,2015_Mrz_05_1429,Y,
stim/posf.jpg,stim/negf.jpg,stim/6.jpg,stim/5.jpg,stim/latef.jpg,AB,1,2,,,,,,,,,0,53,53,2,,,,,,,,,,2,1,0.516430175599,,,,,,PLC_L_D2S1,P23,60.0157721476,02,A,2015_Mrz_05_1429,Y,
stim/posf.jpg,stim/negf.jpg,stim/3.jpg,stim/1.jpg,stim/latef.jpg,CD,1,2,,,,,,,,,0,54,54,26,,,,,,,,,,2,1,0.799727852693,,,,,,PLC_L_D2S1,P23,60.0157721476,02,A,2015_Mrz_05_1429,Y,
stim/posf.jpg,stim/negf.jpg,stim/4.jpg,stim/2.jpg,stim/latef.jpg,EF,1,2,,,,,,,,,0,55,55,43,,,,,,,,,,4,0,0.833044776186,,,,,,PLC_L_D2S1,P23,60.0157721476,02,A,2015_Mrz_05_1429,Y,
stim/negf.jpg,stim/posf.jpg,stim/5.jpg,stim/6.jpg,stim/latef.jpg,AB,2,4,,,,,,,,,0,56,56,19,,,,,,,,,,4,1,0.849773510825,,,,,,PLC_L_D2S1,P23,60.0157721476,02,A,2015_Mrz_05_1429,Y,
stim/negf.jpg,stim/posf.jpg,stim/3.jpg,stim/1.jpg,stim/latef.jpg,CD,1,2,,,,,,,,,0,57,57,29,,,,,,,,,,2,1,0.766362878614,,,,,,PLC_L_D2S1,P23,60.0157721476,02,A,2015_Mrz_05_1429,Y,
stim/posf.jpg,stim/negf.jpg,stim/3.jpg,stim/1.jpg,stim/latef.jpg,CD,1,2,,,,,,,,,0,58,58,20,,,,,,,,,,4,0,0.799727025635,,,,,,PLC_L_D2S1,P23,60.0157721476,02,A,2015_Mrz_05_1429,Y,
stim/posf.jpg,stim/negf.jpg,stim/1.jpg,stim/3.jpg,stim/latef.jpg,CD,2,4,,,,,,,,,0,59,59,34,,,,,,,,,,4,1,0.816383249813,,,,,,PLC_L_D2S1,P23,60.0157721476,02,A,2015_Mrz_05_1429,Y,
,,,,,,,,,,,,,,,,,,,,,,,,,,,,,,,,-0.9578125,-0.615234375,1,0,0,PLC_L_D2S1,P23,60.0157721476,02,A,2015_Mrz_05_1429,Y,
stim/negf.jpg,stim/posf.jpg,stim/5.jpg,stim/6.jpg,stim/latef.jpg,AB,2,4,,,,,,,,,,,,,0,0,0,18,,,,,,4,1,0.699801698477,,,,,,PLC_L_D2S1,P23,60.0157721476,02,A,2015_Mrz_05_1429,Y,
stim/posf.jpg,stim/negf.jpg,stim/6.jpg,stim/5.jpg,stim/latef.jpg,AB,1,2,,,,,,,,,,,,,0,1,1,1,,,,,,2,1,0.699735795461,,,,,,PLC_L_D2S1,P23,60.0157721476,02,A,2015_Mrz_05_1429,Y,
stim/posf.jpg,stim/negf.jpg,stim/2.jpg,stim/4.jpg,stim/latef.jpg,EF,2,4,,,,,,,,,,,,,0,2,2,54,,,,,,4,1,1.13295744183,,,,,,PLC_L_D2S1,P23,60.0157721476,02,A,2015_Mrz_05_1429,Y,
stim/negf.jpg,stim/posf.jpg,stim/1.jpg,stim/3.jpg,stim/latef.jpg,CD,2,4,,,,,,,,,,,,,0,3,3,39,,,,,,4,1,0.833036553723,,,,,,PLC_L_D2S1,P23,60.0157721476,02,A,2015_Mrz_05_1429,Y,
stim/posf.jpg,stim/negf.jpg,stim/4.jpg,stim/2.jpg,stim/latef.jpg,EF,1,2,,,,,,,,,,,,,0,4,4,40,,,,,,2,1,0.949675557043,,,,,,PLC_L_D2S1,P23,60.0157721476,02,A,2015_Mrz_05_1429,Y,
stim/posf.jpg,stim/negf.jpg,stim/1.jpg,stim/3.jpg,stim/latef.jpg,CD,2,4,,,,,,,,,,,,,0,5,5,30,,,,,,4,1,0.749706615339,,,,,,PLC_L_D2S1,P23,60.0157721476,02,A,2015_Mrz_05_1429,Y,
stim/posf.jpg,stim/negf.jpg,stim/3.jpg,stim/1.jpg,stim/latef.jpg,CD,1,2,,,,,,,,,,,,,0,6,6,22,,,,,,2,1,1.29962433506,,,,,,PLC_L_D2S1,P23,60.0157721476,02,A,2015_Mrz_05_1429,Y,
stim/posf.jpg,stim/negf.jpg,stim/6.jpg,stim/5.jpg,stim/latef.jpg,AB,1,2,,,,,,,,,,,,,0,7,7,2,,,,,,2,1,0.766406502182,,,,,,PLC_L_D2S1,P23,60.0157721476,02,A,2015_Mrz_05_1429,Y,
stim/negf.jpg,stim/posf.jpg,stim/2.jpg,stim/4.jpg,stim/latef.jpg,EF,2,4,,,,,,,,,,,,,0,8,8,57,,,,,,2,0,1.14958251148,,,,,,PLC_L_D2S1,P23,60.0157721476,02,A,2015_Mrz_05_1429,Y,
stim/negf.jpg,stim/posf.jpg,stim/1.jpg,stim/3.jpg,stim/latef.jpg,CD,2,4,,,,,,,,,,,,,0,9,9,37,,,,,,4,1,0.666452233997,,,,,,PLC_L_D2S1,P23,60.0157721476,02,A,2015_Mrz_05_1429,Y,
stim/posf.jpg,stim/negf.jpg,stim/5.jpg,stim/6.jpg,stim/latef.jpg,AB,2,4,,,,,,,,,,,,,0,10,10,14,,,,,,4,1,0.749764831224,,,,,,PLC_L_D2S1,P23,60.0157721476,02,A,2015_Mrz_05_1429,Y,
stim/posf.jpg,stim/negf.jpg,stim/4.jpg,stim/2.jpg,stim/latef.jpg,EF,1,2,,,,,,,,,,,,,0,11,11,42,,,,,,4,0,0.966381512991,,,,,,PLC_L_D2S1,P23,60.0157721476,02,A,2015_Mrz_05_1429,Y,
stim/posf.jpg,stim/negf.jpg,stim/2.jpg,stim/4.jpg,stim/latef.jpg,EF,2,4,,,,,,,,,,,,,0,12,12,51,,,,,,4,1,1.03291547238,,,,,,PLC_L_D2S1,P23,60.0157721476,02,A,2015_Mrz_05_1429,Y,
stim/negf.jpg,stim/posf.jpg,stim/2.jpg,stim/4.jpg,stim/latef.jpg,EF,2,4,,,,,,,,,,,,,0,13,13,59,,,,,,4,1,0.932935905234,,,,,,PLC_L_D2S1,P23,60.0157721476,02,A,2015_Mrz_05_1429,Y,
stim/posf.jpg,stim/negf.jpg,stim/5.jpg,stim/6.jpg,stim/latef.jpg,AB,2,4,,,,,,,,,,,,,0,14,14,10,,,,,,4,1,0.633187349015,,,,,,PLC_L_D2S1,P23,60.0157721476,02,A,2015_Mrz_05_1429,Y,
stim/negf.jpg,stim/posf.jpg,stim/3.jpg,stim/1.jpg,stim/latef.jpg,CD,1,2,,,,,,,,,,,,,0,15,15,27,,,,,,2,1,1.06631589869,,,,,,PLC_L_D2S1,P23,60.0157721476,02,A,2015_Mrz_05_1429,Y,
stim/posf.jpg,stim/negf.jpg,stim/5.jpg,stim/6.jpg,stim/latef.jpg,AB,2,4,,,,,,,,,,,,,0,16,16,16,,,,,,4,1,0.766420453905,,,,,,PLC_L_D2S1,P23,60.0157721476,02,A,2015_Mrz_05_1429,Y,
stim/negf.jpg,stim/posf.jpg,stim/4.jpg,stim/2.jpg,stim/latef.jpg,EF,1,2,,,,,,,,,,,,,0,17,17,46,,,,,,2,1,0.949694170366,,,,,,PLC_L_D2S1,P23,60.0157721476,02,A,2015_Mrz_05_1429,Y,
stim/posf.jpg,stim/negf.jpg,stim/3.jpg,stim/1.jpg,stim/latef.jpg,CD,1,2,,,,,,,,,,,,,0,18,18,20,,,,,,4,0,0.616523239212,,,,,,PLC_L_D2S1,P23,60.0157721476,02,A,2015_Mrz_05_1429,Y,
stim/negf.jpg,stim/posf.jpg,stim/6.jpg,stim/5.jpg,stim/latef.jpg,AB,1,2,,,,,,,,,,,,,0,19,19,8,,,,,,2,1,0.799679227678,,,,,,PLC_L_D2S1,P23,60.0157721476,02,A,2015_Mrz_05_1429,Y,
stim/posf.jpg,stim/negf.jpg,stim/4.jpg,stim/2.jpg,stim/latef.jpg,EF,1,2,,,,,,,,,,,,,0,20,20,41,,,,,,4,0,1.01631914227,,,,,,PLC_L_D2S1,P23,60.0157721476,02,A,2015_Mrz_05_1429,Y,
stim/posf.jpg,stim/negf.jpg,stim/1.jpg,stim/3.jpg,stim/latef.jpg,CD,2,4,,,,,,,,,,,,,0,21,21,32,,,,,,4,1,0.933003850333,,,,,,PLC_L_D2S1,P23,60.0157721476,02,A,2015_Mrz_05_1429,Y,
stim/negf.jpg,stim/posf.jpg,stim/4.jpg,stim/2.jpg,stim/latef.jpg,EF,1,2,,,,,,,,,,,,,0,22,22,47,,,,,,2,1,0.69979918422,,,,,,PLC_L_D2S1,P23,60.0157721476,02,A,2015_Mrz_05_1429,Y,
stim/negf.jpg,stim/posf.jpg,stim/4.jpg,stim/2.jpg,stim/latef.jpg,EF,1,2,,,,,,,,,,,,,0,23,23,48,,,,,,2,1,0.833070547324,,,,,,PLC_L_D2S1,P23,60.0157721476,02,A,2015_Mrz_05_1429,Y,
stim/posf.jpg,stim/negf.jpg,stim/2.jpg,stim/4.jpg,stim/latef.jpg,EF,2,4,,,,,,,,,,,,,0,24,24,52,,,,,,2,0,1.06631449119,,,,,,PLC_L_D2S1,P23,60.0157721476,02,A,2015_Mrz_05_1429,Y,
stim/posf.jpg,stim/negf.jpg,stim/6.jpg,stim/5.jpg,stim/latef.jpg,AB,1,2,,,,,,,,,,,,,0,25,25,4,,,,,,2,1,1.03294857878,,,,,,PLC_L_D2S1,P23,60.0157721476,02,A,2015_Mrz_05_1429,Y,
stim/negf.jpg,stim/posf.jpg,stim/3.jpg,stim/1.jpg,stim/latef.jpg,CD,1,2,,,,,,,,,,,,,0,26,26,29,,,,,,2,1,0.749718933997,,,,,,PLC_L_D2S1,P23,60.0157721476,02,A,2015_Mrz_05_1429,Y,
stim/posf.jpg,stim/negf.jpg,stim/1.jpg,stim/3.jpg,stim/latef.jpg,CD,2,4,,,,,,,,,,,,,0,27,27,35,,,,,,4,1,0.816410693112,,,,,,PLC_L_D2S1,P23,60.0157721476,02,A,2015_Mrz_05_1429,Y,
stim/posf.jpg,stim/negf.jpg,stim/6.jpg,stim/5.jpg,stim/latef.jpg,AB,1,2,,,,,,,,,,,,,0,28,28,3,,,,,,2,1,0.88304230253,,,,,,PLC_L_D2S1,P23,60.0157721476,02,A,2015_Mrz_05_1429,Y,
stim/negf.jpg,stim/posf.jpg,stim/6.jpg,stim/5.jpg,stim/latef.jpg,AB,1,2,,,,,,,,,,,,,0,29,29,9,,,,,,2,1,0.733108628098,,,,,,PLC_L_D2S1,P23,60.0157721476,02,A,2015_Mrz_05_1429,Y,
stim/posf.jpg,stim/negf.jpg,stim/5.jpg,stim/6.jpg,stim/latef.jpg,AB,2,4,,,,,,,,,,,,,0,30,30,12,,,,,,4,1,0.599837183791,,,,,,PLC_L_D2S1,P23,60.0157721476,02,A,2015_Mrz_05_1429,Y,
stim/posf.jpg,stim/negf.jpg,stim/6.jpg,stim/5.jpg,stim/latef.jpg,AB,1,2,,,,,,,,,,,,,0,31,31,6,,,,,,2,1,0.766393218122,,,,,,PLC_L_D2S1,P23,60.0157721476,02,A,2015_Mrz_05_1429,Y,
stim/posf.jpg,stim/negf.jpg,stim/2.jpg,stim/4.jpg,stim/latef.jpg,EF,2,4,,,,,,,,,,,,,0,32,32,55,,,,,,4,1,0.933030725218,,,,,,PLC_L_D2S1,P23,60.0157721476,02,A,2015_Mrz_05_1429,Y,
stim/posf.jpg,stim/negf.jpg,stim/3.jpg,stim/1.jpg,stim/latef.jpg,CD,1,2,,,,,,,,,,,,,0,33,33,23,,,,,,2,1,0.766384908441,,,,,,PLC_L_D2S1,P23,60.0157721476,02,A,2015_Mrz_05_1429,Y,
stim/posf.jpg,stim/negf.jpg,stim/3.jpg,stim/1.jpg,stim/latef.jpg,CD,1,2,,,,,,,,,,,,,0,34,34,24,,,,,,2,1,0.516474881862,,,,,,PLC_L_D2S1,P23,60.0157721476,02,A,2015_Mrz_05_1429,Y,
stim/posf.jpg,stim/negf.jpg,stim/1.jpg,stim/3.jpg,stim/latef.jpg,CD,2,4,,,,,,,,,,,,,0,35,35,33,,,,,,4,1,0.716444969417,,,,,,PLC_L_D2S1,P23,60.0157721476,02,A,2015_Mrz_05_1429,Y,
stim/posf.jpg,stim/negf.jpg,stim/1.jpg,stim/3.jpg,stim/latef.jpg,CD,2,4,,,,,,,,,,,,,0,36,36,34,,,,,,4,1,0.916327665478,,,,,,PLC_L_D2S1,P23,60.0157721476,02,A,2015_Mrz_05_1429,Y,
stim/posf.jpg,stim/negf.jpg,stim/5.jpg,stim/6.jpg,stim/latef.jpg,AB,2,4,,,,,,,,,,,,,0,37,37,17,,,,,,4,1,0.916362161329,,,,,,PLC_L_D2S1,P23,60.0157721476,02,A,2015_Mrz_05_1429,Y,
stim/posf.jpg,stim/negf.jpg,stim/3.jpg,stim/1.jpg,stim/latef.jpg,CD,1,2,,,,,,,,,,,,,0,38,38,21,,,,,,2,1,0.849695084642,,,,,,PLC_L_D2S1,P23,60.0157721476,02,A,2015_Mrz_05_1429,Y,
stim/negf.jpg,stim/posf.jpg,stim/1.jpg,stim/3.jpg,stim/latef.jpg,CD,2,4,,,,,,,,,,,,,0,39,39,38,,,,,,4,1,0.766418613324,,,,,,PLC_L_D2S1,P23,60.0157721476,02,A,2015_Mrz_05_1429,Y,
stim/negf.jpg,stim/posf.jpg,stim/3.jpg,stim/1.jpg,stim/latef.jpg,CD,1,2,,,,,,,,,,,,,0,40,40,28,,,,,,2,1,0.68304773104,,,,,,PLC_L_D2S1,P23,60.0157721476,02,A,2015_Mrz_05_1429,Y,
stim/posf.jpg,stim/negf.jpg,stim/6.jpg,stim/5.jpg,stim/latef.jpg,AB,1,2,,,,,,,,,,,,,0,41,41,5,,,,,,2,1,0.933001555622,,,,,,PLC_L_D2S1,P23,60.0157721476,02,A,2015_Mrz_05_1429,Y,
stim/posf.jpg,stim/negf.jpg,stim/2.jpg,stim/4.jpg,stim/latef.jpg,EF,2,4,,,,,,,,,,,,,0,42,42,50,,,,,,2,0,0.933026015496,,,,,,PLC_L_D2S1,P23,60.0157721476,02,A,2015_Mrz_05_1429,Y,
stim/posf.jpg,stim/negf.jpg,stim/5.jpg,stim/6.jpg,stim/latef.jpg,AB,2,4,,,,,,,,,,,,,0,43,43,13,,,,,,4,1,0.849775676214,,,,,,PLC_L_D2S1,P23,60.0157721476,02,A,2015_Mrz_05_1429,Y,
stim/posf.jpg,stim/negf.jpg,stim/6.jpg,stim/5.jpg,stim/latef.jpg,AB,1,2,,,,,,,,,,,,,0,44,44,7,,,,,,2,1,0.499839141664,,,,,,PLC_L_D2S1,P23,60.0157721476,02,A,2015_Mrz_05_1429,Y,
stim/posf.jpg,stim/negf.jpg,stim/6.jpg,stim/5.jpg,stim/latef.jpg,AB,1,2,,,,,,,,,,,,,0,45,45,0,,,,,,2,1,0.716414684045,,,,,,PLC_L_D2S1,P23,60.0157721476,02,A,2015_Mrz_05_1429,Y,
stim/negf.jpg,stim/posf.jpg,stim/2.jpg,stim/4.jpg,stim/latef.jpg,EF,2,4,,,,,,,,,,,,,0,46,46,58,,,,,,4,1,0.86639003921,,,,,,PLC_L_D2S1,P23,60.0157721476,02,A,2015_Mrz_05_1429,Y,
stim/negf.jpg,stim/posf.jpg,stim/4.jpg,stim/2.jpg,stim/latef.jpg,EF,1,2,,,,,,,,,,,,,0,47,47,49,,,,,,4,0,1.11628029759,,,,,,PLC_L_D2S1,P23,60.0157721476,02,A,2015_Mrz_05_1429,Y,
stim/negf.jpg,stim/posf.jpg,stim/5.jpg,stim/6.jpg,stim/latef.jpg,AB,2,4,,,,,,,,,,,,,0,48,48,19,,,,,,4,1,0.983038037917,,,,,,PLC_L_D2S1,P23,60.0157721476,02,A,2015_Mrz_05_1429,Y,
stim/negf.jpg,stim/posf.jpg,stim/2.jpg,stim/4.jpg,stim/latef.jpg,EF,2,4,,,,,,,,,,,,,0,49,49,56,,,,,,4,1,1.09963526727,,,,,,PLC_L_D2S1,P23,60.0157721476,02,A,2015_Mrz_05_1429,Y,
stim/posf.jpg,stim/negf.jpg,stim/4.jpg,stim/2.jpg,stim/latef.jpg,EF,1,2,,,,,,,,,,,,,0,50,50,45,,,,,,2,1,1.06632949252,,,,,,PLC_L_D2S1,P23,60.0157721476,02,A,2015_Mrz_05_1429,Y,
stim/posf.jpg,stim/negf.jpg,stim/3.jpg,stim/1.jpg,stim/latef.jpg,CD,1,2,,,,,,,,,,,,,0,51,51,25,,,,,,2,1,0.716412587828,,,,,,PLC_L_D2S1,P23,60.0157721476,02,A,2015_Mrz_05_1429,Y,
stim/posf.jpg,stim/negf.jpg,stim/1.jpg,stim/3.jpg,stim/latef.jpg,CD,2,4,,,,,,,,,,,,,0,52,52,36,,,,,,4,1,0.699766378575,,,,,,PLC_L_D2S1,P23,60.0157721476,02,A,2015_Mrz_05_1429,Y,
stim/posf.jpg,stim/negf.jpg,stim/1.jpg,stim/3.jpg,stim/latef.jpg,CD,2,4,,,,,,,,,,,,,0,53,53,31,,,,,,4,1,0.866381479908,,,,,,PLC_L_D2S1,P23,60.0157721476,02,A,2015_Mrz_05_1429,Y,
stim/posf.jpg,stim/negf.jpg,stim/5.jpg,stim/6.jpg,stim/latef.jpg,AB,2,4,,,,,,,,,,,,,0,54,54,11,,,,,,4,1,0.799735819521,,,,,,PLC_L_D2S1,P23,60.0157721476,02,A,2015_Mrz_05_1429,Y,
stim/posf.jpg,stim/negf.jpg,stim/3.jpg,stim/1.jpg,stim/latef.jpg,CD,1,2,,,,,,,,,,,,,0,55,55,26,,,,,,2,1,0.566469674402,,,,,,PLC_L_D2S1,P23,60.0157721476,02,A,2015_Mrz_05_1429,Y,
stim/posf.jpg,stim/negf.jpg,stim/4.jpg,stim/2.jpg,stim/latef.jpg,EF,1,2,,,,,,,,,,,,,0,56,56,44,,,,,,2,1,0.982988200885,,,,,,PLC_L_D2S1,P23,60.0157721476,02,A,2015_Mrz_05_1429,Y,
stim/posf.jpg,stim/negf.jpg,stim/5.jpg,stim/6.jpg,stim/latef.jpg,AB,2,4,,,,,,,,,,,,,0,57,57,15,,,,,,4,1,0.66646176171,,,,,,PLC_L_D2S1,P23,60.0157721476,02,A,2015_Mrz_05_1429,Y,
stim/posf.jpg,stim/negf.jpg,stim/4.jpg,stim/2.jpg,stim/latef.jpg,EF,1,2,,,,,,,,,,,,,0,58,58,43,,,,,,4,0,1.24957723334,,,,,,PLC_L_D2S1,P23,60.0157721476,02,A,2015_Mrz_05_1429,Y,
stim/posf.jpg,stim/negf.jpg,stim/2.jpg,stim/4.jpg,stim/latef.jpg,EF,2,4,,,,,,,,,,,,,0,59,59,53,,,,,,2,0,0.933026782405,,,,,,PLC_L_D2S1,P23,60.0157721476,02,A,2015_Mrz_05_1429,Y,
