fb_corr,fb_incorr,symbol2,symbol1,fb_late,pair,position,correct,block_01.thisRepN,block_01.thisTrialN,block_01.thisN,block_01.thisIndex,block_02.thisRepN,block_02.thisTrialN,block_02.thisN,block_02.thisIndex,block_03.thisRepN,block_03.thisTrialN,block_03.thisN,block_03.thisIndex,block_04.thisRepN,block_04.thisTrialN,block_04.thisN,block_04.thisIndex,mouse.x,mouse.y,mouse.leftButton,mouse.midButton,mouse.rightButton,buttonBox_2.keys,buttonBox_2.corr,buttonBox_2.rt,mouse_2.x,mouse_2.y,mouse_2.leftButton,mouse_2.midButton,mouse_2.rightButton,expName,Participant,frameRate,SessionNumber,Version,date,Group,
,,,,,,,,,,,,,,,,,,,,,,,,0.984375,1.0,1,0,0,,,,,,,,,PLC_L_D2S1,P26,60.0222334287,02,A,2015_Jul_28_1705,Y,
stim/posf.jpg,stim/negf.jpg,stim/6.jpg,stim/4.jpg,stim/latef.jpg,AB,2,4,0,0,0,11,,,,,,,,,,,,,,,,,,2,0,0.799785437006,,,,,,PLC_L_D2S1,P26,60.0222334287,02,A,2015_Jul_28_1705,Y,
stim/posf.jpg,stim/negf.jpg,stim/5.jpg,stim/2.jpg,stim/latef.jpg,CD,2,4,0,1,1,34,,,,,,,,,,,,,,,,,,2,0,1.11628327199,,,,,,PLC_L_D2S1,P26,60.0222334287,02,A,2015_Jul_28_1705,Y,
stim/negf.jpg,stim/posf.jpg,stim/3.jpg,stim/1.jpg,stim/latef.jpg,EF,1,2,0,2,2,47,,,,,,,,,,,,,,,,,,2,1,1.23292752337,,,,,,PLC_L_D2S1,P26,60.0222334287,02,A,2015_Jul_28_1705,Y,
stim/negf.jpg,stim/posf.jpg,stim/1.jpg,stim/3.jpg,stim/latef.jpg,EF,2,4,0,3,3,59,,,,,,,,,,,,,,,,,,None,0,,,,,,,PLC_L_D2S1,P26,60.0222334287,02,A,2015_Jul_28_1705,Y,
stim/posf.jpg,stim/negf.jpg,stim/2.jpg,stim/5.jpg,stim/latef.jpg,CD,1,2,0,4,4,23,,,,,,,,,,,,,,,,,,2,1,0.849721839227,,,,,,PLC_L_D2S1,P26,60.0222334287,02,A,2015_Jul_28_1705,Y,
stim/posf.jpg,stim/negf.jpg,stim/3.jpg,stim/1.jpg,stim/latef.jpg,EF,1,2,0,5,5,42,,,,,,,,,,,,,,,,,,4,0,1.19958953245,,,,,,PLC_L_D2S1,P26,60.0222334287,02,A,2015_Jul_28_1705,Y,
stim/posf.jpg,stim/negf.jpg,stim/4.jpg,stim/6.jpg,stim/latef.jpg,AB,1,2,0,6,6,5,,,,,,,,,,,,,,,,,,2,1,0.933053317444,,,,,,PLC_L_D2S1,P26,60.0222334287,02,A,2015_Jul_28_1705,Y,
stim/negf.jpg,stim/posf.jpg,stim/6.jpg,stim/4.jpg,stim/latef.jpg,AB,2,4,0,7,7,18,,,,,,,,,,,,,,,,,,4,1,0.716435763507,,,,,,PLC_L_D2S1,P26,60.0222334287,02,A,2015_Jul_28_1705,Y,
stim/negf.jpg,stim/posf.jpg,stim/2.jpg,stim/5.jpg,stim/latef.jpg,CD,1,2,0,8,8,28,,,,,,,,,,,,,,,,,,2,1,0.866371925129,,,,,,PLC_L_D2S1,P26,60.0222334287,02,A,2015_Jul_28_1705,Y,
stim/posf.jpg,stim/negf.jpg,stim/1.jpg,stim/3.jpg,stim/latef.jpg,EF,2,4,0,9,9,52,,,,,,,,,,,,,,,,,,2,0,0.916356275681,,,,,,PLC_L_D2S1,P26,60.0222334287,02,A,2015_Jul_28_1705,Y,
stim/negf.jpg,stim/posf.jpg,stim/6.jpg,stim/4.jpg,stim/latef.jpg,AB,2,4,0,10,10,19,,,,,,,,,,,,,,,,,,4,1,0.86631492126,,,,,,PLC_L_D2S1,P26,60.0222334287,02,A,2015_Jul_28_1705,Y,
stim/posf.jpg,stim/negf.jpg,stim/5.jpg,stim/2.jpg,stim/latef.jpg,CD,2,4,0,11,11,31,,,,,,,,,,,,,,,,,,4,1,0.966347245708,,,,,,PLC_L_D2S1,P26,60.0222334287,02,A,2015_Jul_28_1705,Y,
stim/posf.jpg,stim/negf.jpg,stim/4.jpg,stim/6.jpg,stim/latef.jpg,AB,1,2,0,12,12,6,,,,,,,,,,,,,,,,,,2,1,0.816383652816,,,,,,PLC_L_D2S1,P26,60.0222334287,02,A,2015_Jul_28_1705,Y,
stim/posf.jpg,stim/negf.jpg,stim/6.jpg,stim/4.jpg,stim/latef.jpg,AB,2,4,0,13,13,10,,,,,,,,,,,,,,,,,,4,1,0.633061485773,,,,,,PLC_L_D2S1,P26,60.0222334287,02,A,2015_Jul_28_1705,Y,
stim/negf.jpg,stim/posf.jpg,stim/1.jpg,stim/3.jpg,stim/latef.jpg,EF,2,4,0,14,14,58,,,,,,,,,,,,,,,,,,2,0,0.833051287391,,,,,,PLC_L_D2S1,P26,60.0222334287,02,A,2015_Jul_28_1705,Y,
stim/posf.jpg,stim/negf.jpg,stim/1.jpg,stim/3.jpg,stim/latef.jpg,EF,2,4,0,15,15,55,,,,,,,,,,,,,,,,,,2,0,0.599814128412,,,,,,PLC_L_D2S1,P26,60.0222334287,02,A,2015_Jul_28_1705,Y,
stim/posf.jpg,stim/negf.jpg,stim/6.jpg,stim/4.jpg,stim/latef.jpg,AB,2,4,0,16,16,12,,,,,,,,,,,,,,,,,,4,1,0.733078688586,,,,,,PLC_L_D2S1,P26,60.0222334287,02,A,2015_Jul_28_1705,Y,
stim/posf.jpg,stim/negf.jpg,stim/5.jpg,stim/2.jpg,stim/latef.jpg,CD,2,4,0,17,17,33,,,,,,,,,,,,,,,,,,4,1,0.816397204543,,,,,,PLC_L_D2S1,P26,60.0222334287,02,A,2015_Jul_28_1705,Y,
stim/posf.jpg,stim/negf.jpg,stim/2.jpg,stim/5.jpg,stim/latef.jpg,CD,1,2,0,18,18,26,,,,,,,,,,,,,,,,,,2,1,0.716435071785,,,,,,PLC_L_D2S1,P26,60.0222334287,02,A,2015_Jul_28_1705,Y,
stim/posf.jpg,stim/negf.jpg,stim/4.jpg,stim/6.jpg,stim/latef.jpg,AB,1,2,0,19,19,7,,,,,,,,,,,,,,,,,,2,1,0.799740514205,,,,,,PLC_L_D2S1,P26,60.0222334287,02,A,2015_Jul_28_1705,Y,
stim/negf.jpg,stim/posf.jpg,stim/1.jpg,stim/3.jpg,stim/latef.jpg,EF,2,4,0,20,20,57,,,,,,,,,,,,,,,,,,2,0,0.449871049575,,,,,,PLC_L_D2S1,P26,60.0222334287,02,A,2015_Jul_28_1705,Y,
stim/posf.jpg,stim/negf.jpg,stim/4.jpg,stim/6.jpg,stim/latef.jpg,AB,1,2,0,21,21,4,,,,,,,,,,,,,,,,,,2,1,0.699752724594,,,,,,PLC_L_D2S1,P26,60.0222334287,02,A,2015_Jul_28_1705,Y,
stim/posf.jpg,stim/negf.jpg,stim/3.jpg,stim/1.jpg,stim/latef.jpg,EF,1,2,0,22,22,43,,,,,,,,,,,,,,,,,,4,0,0.799737368376,,,,,,PLC_L_D2S1,P26,60.0222334287,02,A,2015_Jul_28_1705,Y,
stim/negf.jpg,stim/posf.jpg,stim/4.jpg,stim/6.jpg,stim/latef.jpg,AB,1,2,0,23,23,8,,,,,,,,,,,,,,,,,,2,1,0.583191016643,,,,,,PLC_L_D2S1,P26,60.0222334287,02,A,2015_Jul_28_1705,Y,
stim/posf.jpg,stim/negf.jpg,stim/1.jpg,stim/3.jpg,stim/latef.jpg,EF,2,4,0,24,24,54,,,,,,,,,,,,,,,,,,2,0,0.783008107427,,,,,,PLC_L_D2S1,P26,60.0222334287,02,A,2015_Jul_28_1705,Y,
stim/posf.jpg,stim/negf.jpg,stim/5.jpg,stim/2.jpg,stim/latef.jpg,CD,2,4,0,25,25,36,,,,,,,,,,,,,,,,,,4,1,0.716413586313,,,,,,PLC_L_D2S1,P26,60.0222334287,02,A,2015_Jul_28_1705,Y,
stim/posf.jpg,stim/negf.jpg,stim/2.jpg,stim/5.jpg,stim/latef.jpg,CD,1,2,0,26,26,24,,,,,,,,,,,,,,,,,,2,1,0.683071499194,,,,,,PLC_L_D2S1,P26,60.0222334287,02,A,2015_Jul_28_1705,Y,
stim/negf.jpg,stim/posf.jpg,stim/1.jpg,stim/3.jpg,stim/latef.jpg,EF,2,4,0,27,27,56,,,,,,,,,,,,,,,,,,2,0,1.01630821908,,,,,,PLC_L_D2S1,P26,60.0222334287,02,A,2015_Jul_28_1705,Y,
stim/posf.jpg,stim/negf.jpg,stim/2.jpg,stim/5.jpg,stim/latef.jpg,CD,1,2,0,28,28,20,,,,,,,,,,,,,,,,,,2,1,0.816429938008,,,,,,PLC_L_D2S1,P26,60.0222334287,02,A,2015_Jul_28_1705,Y,
stim/posf.jpg,stim/negf.jpg,stim/2.jpg,stim/5.jpg,stim/latef.jpg,CD,1,2,0,29,29,21,,,,,,,,,,,,,,,,,,2,1,0.699762739518,,,,,,PLC_L_D2S1,P26,60.0222334287,02,A,2015_Jul_28_1705,Y,
stim/negf.jpg,stim/posf.jpg,stim/5.jpg,stim/2.jpg,stim/latef.jpg,CD,2,4,0,30,30,38,,,,,,,,,,,,,,,,,,4,1,0.749759053845,,,,,,PLC_L_D2S1,P26,60.0222334287,02,A,2015_Jul_28_1705,Y,
stim/negf.jpg,stim/posf.jpg,stim/4.jpg,stim/6.jpg,stim/latef.jpg,AB,1,2,0,31,31,9,,,,,,,,,,,,,,,,,,2,1,0.566465752642,,,,,,PLC_L_D2S1,P26,60.0222334287,02,A,2015_Jul_28_1705,Y,
stim/posf.jpg,stim/negf.jpg,stim/2.jpg,stim/5.jpg,stim/latef.jpg,CD,1,2,0,32,32,22,,,,,,,,,,,,,,,,,,2,1,0.749793456465,,,,,,PLC_L_D2S1,P26,60.0222334287,02,A,2015_Jul_28_1705,Y,
stim/negf.jpg,stim/posf.jpg,stim/2.jpg,stim/5.jpg,stim/latef.jpg,CD,1,2,0,33,33,29,,,,,,,,,,,,,,,,,,2,1,0.666453385864,,,,,,PLC_L_D2S1,P26,60.0222334287,02,A,2015_Jul_28_1705,Y,
stim/negf.jpg,stim/posf.jpg,stim/3.jpg,stim/1.jpg,stim/latef.jpg,EF,1,2,0,34,34,48,,,,,,,,,,,,,,,,,,4,0,0.866384881374,,,,,,PLC_L_D2S1,P26,60.0222334287,02,A,2015_Jul_28_1705,Y,
stim/posf.jpg,stim/negf.jpg,stim/1.jpg,stim/3.jpg,stim/latef.jpg,EF,2,4,0,35,35,53,,,,,,,,,,,,,,,,,,2,0,0.649829988384,,,,,,PLC_L_D2S1,P26,60.0222334287,02,A,2015_Jul_28_1705,Y,
stim/posf.jpg,stim/negf.jpg,stim/6.jpg,stim/4.jpg,stim/latef.jpg,AB,2,4,0,36,36,13,,,,,,,,,,,,,,,,,,4,1,0.799709043883,,,,,,PLC_L_D2S1,P26,60.0222334287,02,A,2015_Jul_28_1705,Y,
stim/posf.jpg,stim/negf.jpg,stim/4.jpg,stim/6.jpg,stim/latef.jpg,AB,1,2,0,37,37,1,,,,,,,,,,,,,,,,,,2,1,0.766372135653,,,,,,PLC_L_D2S1,P26,60.0222334287,02,A,2015_Jul_28_1705,Y,
stim/posf.jpg,stim/negf.jpg,stim/6.jpg,stim/4.jpg,stim/latef.jpg,AB,2,4,0,38,38,17,,,,,,,,,,,,,,,,,,4,1,0.699668587196,,,,,,PLC_L_D2S1,P26,60.0222334287,02,A,2015_Jul_28_1705,Y,
stim/posf.jpg,stim/negf.jpg,stim/5.jpg,stim/2.jpg,stim/latef.jpg,CD,2,4,0,39,39,32,,,,,,,,,,,,,,,,,,4,1,0.766407981865,,,,,,PLC_L_D2S1,P26,60.0222334287,02,A,2015_Jul_28_1705,Y,
stim/posf.jpg,stim/negf.jpg,stim/4.jpg,stim/6.jpg,stim/latef.jpg,AB,1,2,0,40,40,0,,,,,,,,,,,,,,,,,,2,1,0.716401733815,,,,,,PLC_L_D2S1,P26,60.0222334287,02,A,2015_Jul_28_1705,Y,
stim/posf.jpg,stim/negf.jpg,stim/1.jpg,stim/3.jpg,stim/latef.jpg,EF,2,4,0,41,41,51,,,,,,,,,,,,,,,,,,2,0,0.649784599422,,,,,,PLC_L_D2S1,P26,60.0222334287,02,A,2015_Jul_28_1705,Y,
stim/negf.jpg,stim/posf.jpg,stim/3.jpg,stim/1.jpg,stim/latef.jpg,EF,1,2,0,42,42,46,,,,,,,,,,,,,,,,,,4,0,0.816462021857,,,,,,PLC_L_D2S1,P26,60.0222334287,02,A,2015_Jul_28_1705,Y,
stim/posf.jpg,stim/negf.jpg,stim/4.jpg,stim/6.jpg,stim/latef.jpg,AB,1,2,0,43,43,3,,,,,,,,,,,,,,,,,,2,1,0.483172505573,,,,,,PLC_L_D2S1,P26,60.0222334287,02,A,2015_Jul_28_1705,Y,
stim/posf.jpg,stim/negf.jpg,stim/3.jpg,stim/1.jpg,stim/latef.jpg,EF,1,2,0,44,44,45,,,,,,,,,,,,,,,,,,4,0,0.799753524584,,,,,,PLC_L_D2S1,P26,60.0222334287,02,A,2015_Jul_28_1705,Y,
stim/posf.jpg,stim/negf.jpg,stim/3.jpg,stim/1.jpg,stim/latef.jpg,EF,1,2,0,45,45,40,,,,,,,,,,,,,,,,,,2,1,0.766395160957,,,,,,PLC_L_D2S1,P26,60.0222334287,02,A,2015_Jul_28_1705,Y,
stim/negf.jpg,stim/posf.jpg,stim/5.jpg,stim/2.jpg,stim/latef.jpg,CD,2,4,0,46,46,37,,,,,,,,,,,,,,,,,,4,1,0.716411369797,,,,,,PLC_L_D2S1,P26,60.0222334287,02,A,2015_Jul_28_1705,Y,
stim/posf.jpg,stim/negf.jpg,stim/6.jpg,stim/4.jpg,stim/latef.jpg,AB,2,4,0,47,47,15,,,,,,,,,,,,,,,,,,4,1,0.716432710909,,,,,,PLC_L_D2S1,P26,60.0222334287,02,A,2015_Jul_28_1705,Y,
stim/posf.jpg,stim/negf.jpg,stim/6.jpg,stim/4.jpg,stim/latef.jpg,AB,2,4,0,48,48,14,,,,,,,,,,,,,,,,,,4,1,0.833110877697,,,,,,PLC_L_D2S1,P26,60.0222334287,02,A,2015_Jul_28_1705,Y,
stim/negf.jpg,stim/posf.jpg,stim/3.jpg,stim/1.jpg,stim/latef.jpg,EF,1,2,0,49,49,49,,,,,,,,,,,,,,,,,,2,1,0.799736941313,,,,,,PLC_L_D2S1,P26,60.0222334287,02,A,2015_Jul_28_1705,Y,
stim/posf.jpg,stim/negf.jpg,stim/5.jpg,stim/2.jpg,stim/latef.jpg,CD,2,4,0,50,50,35,,,,,,,,,,,,,,,,,,4,1,0.916384524987,,,,,,PLC_L_D2S1,P26,60.0222334287,02,A,2015_Jul_28_1705,Y,
stim/negf.jpg,stim/posf.jpg,stim/2.jpg,stim/5.jpg,stim/latef.jpg,CD,1,2,0,51,51,27,,,,,,,,,,,,,,,,,,2,1,0.849727721868,,,,,,PLC_L_D2S1,P26,60.0222334287,02,A,2015_Jul_28_1705,Y,
stim/posf.jpg,stim/negf.jpg,stim/4.jpg,stim/6.jpg,stim/latef.jpg,AB,1,2,0,52,52,2,,,,,,,,,,,,,,,,,,2,1,0.933010268305,,,,,,PLC_L_D2S1,P26,60.0222334287,02,A,2015_Jul_28_1705,Y,
stim/posf.jpg,stim/negf.jpg,stim/6.jpg,stim/4.jpg,stim/latef.jpg,AB,2,4,0,53,53,16,,,,,,,,,,,,,,,,,,4,1,0.883045141596,,,,,,PLC_L_D2S1,P26,60.0222334287,02,A,2015_Jul_28_1705,Y,
stim/posf.jpg,stim/negf.jpg,stim/1.jpg,stim/3.jpg,stim/latef.jpg,EF,2,4,0,54,54,50,,,,,,,,,,,,,,,,,,2,0,1.03298676481,,,,,,PLC_L_D2S1,P26,60.0222334287,02,A,2015_Jul_28_1705,Y,
stim/posf.jpg,stim/negf.jpg,stim/5.jpg,stim/2.jpg,stim/latef.jpg,CD,2,4,0,55,55,30,,,,,,,,,,,,,,,,,,4,1,0.83311771371,,,,,,PLC_L_D2S1,P26,60.0222334287,02,A,2015_Jul_28_1705,Y,
stim/posf.jpg,stim/negf.jpg,stim/3.jpg,stim/1.jpg,stim/latef.jpg,EF,1,2,0,56,56,44,,,,,,,,,,,,,,,,,,4,0,0.916380040827,,,,,,PLC_L_D2S1,P26,60.0222334287,02,A,2015_Jul_28_1705,Y,
stim/posf.jpg,stim/negf.jpg,stim/3.jpg,stim/1.jpg,stim/latef.jpg,EF,1,2,0,57,57,41,,,,,,,,,,,,,,,,,,2,1,0.64977992579,,,,,,PLC_L_D2S1,P26,60.0222334287,02,A,2015_Jul_28_1705,Y,
stim/posf.jpg,stim/negf.jpg,stim/2.jpg,stim/5.jpg,stim/latef.jpg,CD,1,2,0,58,58,25,,,,,,,,,,,,,,,,,,2,1,0.683096647782,,,,,,PLC_L_D2S1,P26,60.0222334287,02,A,2015_Jul_28_1705,Y,
stim/negf.jpg,stim/posf.jpg,stim/5.jpg,stim/2.jpg,stim/latef.jpg,CD,2,4,0,59,59,39,,,,,,,,,,,,,,,,,,4,1,0.716432596625,,,,,,PLC_L_D2S1,P26,60.0222334287,02,A,2015_Jul_28_1705,Y,
,,,,,,,,,,,,,,,,,,,,,,,,,,,,,,,,0.984375,1.0,1,0,0,PLC_L_D2S1,P26,60.0222334287,02,A,2015_Jul_28_1705,Y,
stim/posf.jpg,stim/negf.jpg,stim/6.jpg,stim/4.jpg,stim/latef.jpg,AB,2,4,,,,,0,0,0,16,,,,,,,,,,,,,,4,1,0.783067799987,,,,,,PLC_L_D2S1,P26,60.0222334287,02,A,2015_Jul_28_1705,Y,
stim/posf.jpg,stim/negf.jpg,stim/6.jpg,stim/4.jpg,stim/latef.jpg,AB,2,4,,,,,0,1,1,12,,,,,,,,,,,,,,4,1,0.749748157727,,,,,,PLC_L_D2S1,P26,60.0222334287,02,A,2015_Jul_28_1705,Y,
stim/posf.jpg,stim/negf.jpg,stim/2.jpg,stim/5.jpg,stim/latef.jpg,CD,1,2,,,,,0,2,2,22,,,,,,,,,,,,,,2,1,0.733132955643,,,,,,PLC_L_D2S1,P26,60.0222334287,02,A,2015_Jul_28_1705,Y,
stim/posf.jpg,stim/negf.jpg,stim/3.jpg,stim/1.jpg,stim/latef.jpg,EF,1,2,,,,,0,3,3,42,,,,,,,,,,,,,,2,1,0.883041950655,,,,,,PLC_L_D2S1,P26,60.0222334287,02,A,2015_Jul_28_1705,Y,
stim/negf.jpg,stim/posf.jpg,stim/1.jpg,stim/3.jpg,stim/latef.jpg,EF,2,4,,,,,0,4,4,59,,,,,,,,,,,,,,4,1,0.916336212749,,,,,,PLC_L_D2S1,P26,60.0222334287,02,A,2015_Jul_28_1705,Y,
stim/negf.jpg,stim/posf.jpg,stim/3.jpg,stim/1.jpg,stim/latef.jpg,EF,1,2,,,,,0,5,5,46,,,,,,,,,,,,,,2,1,0.949676754022,,,,,,PLC_L_D2S1,P26,60.0222334287,02,A,2015_Jul_28_1705,Y,
stim/posf.jpg,stim/negf.jpg,stim/5.jpg,stim/2.jpg,stim/latef.jpg,CD,2,4,,,,,0,6,6,34,,,,,,,,,,,,,,4,1,0.699749118619,,,,,,PLC_L_D2S1,P26,60.0222334287,02,A,2015_Jul_28_1705,Y,
stim/posf.jpg,stim/negf.jpg,stim/3.jpg,stim/1.jpg,stim/latef.jpg,EF,1,2,,,,,0,7,7,43,,,,,,,,,,,,,,2,1,0.683063189513,,,,,,PLC_L_D2S1,P26,60.0222334287,02,A,2015_Jul_28_1705,Y,
stim/posf.jpg,stim/negf.jpg,stim/5.jpg,stim/2.jpg,stim/latef.jpg,CD,2,4,,,,,0,8,8,33,,,,,,,,,,,,,,4,1,0.76640442401,,,,,,PLC_L_D2S1,P26,60.0222334287,02,A,2015_Jul_28_1705,Y,
stim/posf.jpg,stim/negf.jpg,stim/5.jpg,stim/2.jpg,stim/latef.jpg,CD,2,4,,,,,0,9,9,32,,,,,,,,,,,,,,4,1,0.849750383266,,,,,,PLC_L_D2S1,P26,60.0222334287,02,A,2015_Jul_28_1705,Y,
stim/posf.jpg,stim/negf.jpg,stim/4.jpg,stim/6.jpg,stim/latef.jpg,AB,1,2,,,,,0,10,10,0,,,,,,,,,,,,,,2,1,0.666453614433,,,,,,PLC_L_D2S1,P26,60.0222334287,02,A,2015_Jul_28_1705,Y,
stim/negf.jpg,stim/posf.jpg,stim/6.jpg,stim/4.jpg,stim/latef.jpg,AB,2,4,,,,,0,11,11,18,,,,,,,,,,,,,,4,1,0.483165901137,,,,,,PLC_L_D2S1,P26,60.0222334287,02,A,2015_Jul_28_1705,Y,
stim/posf.jpg,stim/negf.jpg,stim/5.jpg,stim/2.jpg,stim/latef.jpg,CD,2,4,,,,,0,12,12,36,,,,,,,,,,,,,,4,1,0.69977769574,,,,,,PLC_L_D2S1,P26,60.0222334287,02,A,2015_Jul_28_1705,Y,
stim/posf.jpg,stim/negf.jpg,stim/2.jpg,stim/5.jpg,stim/latef.jpg,CD,1,2,,,,,0,13,13,24,,,,,,,,,,,,,,2,1,0.483145149491,,,,,,PLC_L_D2S1,P26,60.0222334287,02,A,2015_Jul_28_1705,Y,
stim/negf.jpg,stim/posf.jpg,stim/1.jpg,stim/3.jpg,stim/latef.jpg,EF,2,4,,,,,0,14,14,58,,,,,,,,,,,,,,4,1,0.999659838423,,,,,,PLC_L_D2S1,P26,60.0222334287,02,A,2015_Jul_28_1705,Y,
stim/negf.jpg,stim/posf.jpg,stim/6.jpg,stim/4.jpg,stim/latef.jpg,AB,2,4,,,,,0,15,15,19,,,,,,,,,,,,,,4,1,0.899711624305,,,,,,PLC_L_D2S1,P26,60.0222334287,02,A,2015_Jul_28_1705,Y,
stim/posf.jpg,stim/negf.jpg,stim/3.jpg,stim/1.jpg,stim/latef.jpg,EF,1,2,,,,,0,16,16,40,,,,,,,,,,,,,,4,0,1.01633103988,,,,,,PLC_L_D2S1,P26,60.0222334287,02,A,2015_Jul_28_1705,Y,
stim/negf.jpg,stim/posf.jpg,stim/1.jpg,stim/3.jpg,stim/latef.jpg,EF,2,4,,,,,0,17,17,57,,,,,,,,,,,,,,2,0,0.616440927358,,,,,,PLC_L_D2S1,P26,60.0222334287,02,A,2015_Jul_28_1705,Y,
stim/posf.jpg,stim/negf.jpg,stim/6.jpg,stim/4.jpg,stim/latef.jpg,AB,2,4,,,,,0,18,18,17,,,,,,,,,,,,,,4,1,0.649782924253,,,,,,PLC_L_D2S1,P26,60.0222334287,02,A,2015_Jul_28_1705,Y,
stim/posf.jpg,stim/negf.jpg,stim/6.jpg,stim/4.jpg,stim/latef.jpg,AB,2,4,,,,,0,19,19,15,,,,,,,,,,,,,,4,1,0.649795642906,,,,,,PLC_L_D2S1,P26,60.0222334287,02,A,2015_Jul_28_1705,Y,
stim/negf.jpg,stim/posf.jpg,stim/4.jpg,stim/6.jpg,stim/latef.jpg,AB,1,2,,,,,0,20,20,8,,,,,,,,,,,,,,2,1,0.549757210257,,,,,,PLC_L_D2S1,P26,60.0222334287,02,A,2015_Jul_28_1705,Y,
stim/negf.jpg,stim/posf.jpg,stim/3.jpg,stim/1.jpg,stim/latef.jpg,EF,1,2,,,,,0,21,21,48,,,,,,,,,,,,,,4,0,0.949674336004,,,,,,PLC_L_D2S1,P26,60.0222334287,02,A,2015_Jul_28_1705,Y,
stim/posf.jpg,stim/negf.jpg,stim/4.jpg,stim/6.jpg,stim/latef.jpg,AB,1,2,,,,,0,22,22,5,,,,,,,,,,,,,,2,1,0.78306429326,,,,,,PLC_L_D2S1,P26,60.0222334287,02,A,2015_Jul_28_1705,Y,
stim/posf.jpg,stim/negf.jpg,stim/2.jpg,stim/5.jpg,stim/latef.jpg,CD,1,2,,,,,0,23,23,26,,,,,,,,,,,,,,2,1,0.483152559933,,,,,,PLC_L_D2S1,P26,60.0222334287,02,A,2015_Jul_28_1705,Y,
stim/negf.jpg,stim/posf.jpg,stim/4.jpg,stim/6.jpg,stim/latef.jpg,AB,1,2,,,,,0,24,24,9,,,,,,,,,,,,,,2,1,0.666452516701,,,,,,PLC_L_D2S1,P26,60.0222334287,02,A,2015_Jul_28_1705,Y,
stim/posf.jpg,stim/negf.jpg,stim/5.jpg,stim/2.jpg,stim/latef.jpg,CD,2,4,,,,,0,25,25,30,,,,,,,,,,,,,,4,1,0.666447139318,,,,,,PLC_L_D2S1,P26,60.0222334287,02,A,2015_Jul_28_1705,Y,
stim/posf.jpg,stim/negf.jpg,stim/1.jpg,stim/3.jpg,stim/latef.jpg,EF,2,4,,,,,0,26,26,53,,,,,,,,,,,,,,2,0,0.849720801645,,,,,,PLC_L_D2S1,P26,60.0222334287,02,A,2015_Jul_28_1705,Y,
stim/posf.jpg,stim/negf.jpg,stim/1.jpg,stim/3.jpg,stim/latef.jpg,EF,2,4,,,,,0,27,27,50,,,,,,,,,,,,,,2,0,0.499835728168,,,,,,PLC_L_D2S1,P26,60.0222334287,02,A,2015_Jul_28_1705,Y,
stim/posf.jpg,stim/negf.jpg,stim/4.jpg,stim/6.jpg,stim/latef.jpg,AB,1,2,,,,,0,28,28,3,,,,,,,,,,,,,,2,1,0.683101378556,,,,,,PLC_L_D2S1,P26,60.0222334287,02,A,2015_Jul_28_1705,Y,
stim/negf.jpg,stim/posf.jpg,stim/1.jpg,stim/3.jpg,stim/latef.jpg,EF,2,4,,,,,0,29,29,56,,,,,,,,,,,,,,2,0,1.03300160374,,,,,,PLC_L_D2S1,P26,60.0222334287,02,A,2015_Jul_28_1705,Y,
stim/posf.jpg,stim/negf.jpg,stim/5.jpg,stim/2.jpg,stim/latef.jpg,CD,2,4,,,,,0,30,30,35,,,,,,,,,,,,,,4,1,0.666444958892,,,,,,PLC_L_D2S1,P26,60.0222334287,02,A,2015_Jul_28_1705,Y,
stim/posf.jpg,stim/negf.jpg,stim/2.jpg,stim/5.jpg,stim/latef.jpg,CD,1,2,,,,,0,31,31,20,,,,,,,,,,,,,,2,1,0.616453594884,,,,,,PLC_L_D2S1,P26,60.0222334287,02,A,2015_Jul_28_1705,Y,
stim/posf.jpg,stim/negf.jpg,stim/1.jpg,stim/3.jpg,stim/latef.jpg,EF,2,4,,,,,0,32,32,52,,,,,,,,,,,,,,2,0,0.849702206366,,,,,,PLC_L_D2S1,P26,60.0222334287,02,A,2015_Jul_28_1705,Y,
stim/negf.jpg,stim/posf.jpg,stim/2.jpg,stim/5.jpg,stim/latef.jpg,CD,1,2,,,,,0,33,33,27,,,,,,,,,,,,,,2,1,0.633138363101,,,,,,PLC_L_D2S1,P26,60.0222334287,02,A,2015_Jul_28_1705,Y,
stim/posf.jpg,stim/negf.jpg,stim/4.jpg,stim/6.jpg,stim/latef.jpg,AB,1,2,,,,,0,34,34,2,,,,,,,,,,,,,,2,1,0.783086810299,,,,,,PLC_L_D2S1,P26,60.0222334287,02,A,2015_Jul_28_1705,Y,
stim/posf.jpg,stim/negf.jpg,stim/6.jpg,stim/4.jpg,stim/latef.jpg,AB,2,4,,,,,0,35,35,13,,,,,,,,,,,,,,4,1,0.683107697282,,,,,,PLC_L_D2S1,P26,60.0222334287,02,A,2015_Jul_28_1705,Y,
stim/posf.jpg,stim/negf.jpg,stim/1.jpg,stim/3.jpg,stim/latef.jpg,EF,2,4,,,,,0,36,36,55,,,,,,,,,,,,,,2,0,0.649790500107,,,,,,PLC_L_D2S1,P26,60.0222334287,02,A,2015_Jul_28_1705,Y,
stim/posf.jpg,stim/negf.jpg,stim/1.jpg,stim/3.jpg,stim/latef.jpg,EF,2,4,,,,,0,37,37,54,,,,,,,,,,,,,,4,1,0.733145857754,,,,,,PLC_L_D2S1,P26,60.0222334287,02,A,2015_Jul_28_1705,Y,
stim/posf.jpg,stim/negf.jpg,stim/6.jpg,stim/4.jpg,stim/latef.jpg,AB,2,4,,,,,0,38,38,14,,,,,,,,,,,,,,4,1,0.816433712402,,,,,,PLC_L_D2S1,P26,60.0222334287,02,A,2015_Jul_28_1705,Y,
stim/posf.jpg,stim/negf.jpg,stim/4.jpg,stim/6.jpg,stim/latef.jpg,AB,1,2,,,,,0,39,39,7,,,,,,,,,,,,,,2,1,0.633149178017,,,,,,PLC_L_D2S1,P26,60.0222334287,02,A,2015_Jul_28_1705,Y,
stim/posf.jpg,stim/negf.jpg,stim/6.jpg,stim/4.jpg,stim/latef.jpg,AB,2,4,,,,,0,40,40,10,,,,,,,,,,,,,,4,1,0.716418753172,,,,,,PLC_L_D2S1,P26,60.0222334287,02,A,2015_Jul_28_1705,Y,
stim/negf.jpg,stim/posf.jpg,stim/5.jpg,stim/2.jpg,stim/latef.jpg,CD,2,4,,,,,0,41,41,37,,,,,,,,,,,,,,4,1,0.633053413683,,,,,,PLC_L_D2S1,P26,60.0222334287,02,A,2015_Jul_28_1705,Y,
stim/posf.jpg,stim/negf.jpg,stim/2.jpg,stim/5.jpg,stim/latef.jpg,CD,1,2,,,,,0,42,42,25,,,,,,,,,,,,,,2,1,0.583128575242,,,,,,PLC_L_D2S1,P26,60.0222334287,02,A,2015_Jul_28_1705,Y,
stim/posf.jpg,stim/negf.jpg,stim/5.jpg,stim/2.jpg,stim/latef.jpg,CD,2,4,,,,,0,43,43,31,,,,,,,,,,,,,,4,1,0.533139551058,,,,,,PLC_L_D2S1,P26,60.0222334287,02,A,2015_Jul_28_1705,Y,
stim/posf.jpg,stim/negf.jpg,stim/6.jpg,stim/4.jpg,stim/latef.jpg,AB,2,4,,,,,0,44,44,11,,,,,,,,,,,,,,4,1,0.666439761957,,,,,,PLC_L_D2S1,P26,60.0222334287,02,A,2015_Jul_28_1705,Y,
stim/posf.jpg,stim/negf.jpg,stim/4.jpg,stim/6.jpg,stim/latef.jpg,AB,1,2,,,,,0,45,45,1,,,,,,,,,,,,,,2,1,0.649772948425,,,,,,PLC_L_D2S1,P26,60.0222334287,02,A,2015_Jul_28_1705,Y,
stim/posf.jpg,stim/negf.jpg,stim/3.jpg,stim/1.jpg,stim/latef.jpg,EF,1,2,,,,,0,46,46,44,,,,,,,,,,,,,,2,1,0.983010354018,,,,,,PLC_L_D2S1,P26,60.0222334287,02,A,2015_Jul_28_1705,Y,
stim/posf.jpg,stim/negf.jpg,stim/4.jpg,stim/6.jpg,stim/latef.jpg,AB,1,2,,,,,0,47,47,4,,,,,,,,,,,,,,2,1,0.69975238174,,,,,,PLC_L_D2S1,P26,60.0222334287,02,A,2015_Jul_28_1705,Y,
stim/posf.jpg,stim/negf.jpg,stim/2.jpg,stim/5.jpg,stim/latef.jpg,CD,1,2,,,,,0,48,48,23,,,,,,,,,,,,,,2,1,0.6330947666,,,,,,PLC_L_D2S1,P26,60.0222334287,02,A,2015_Jul_28_1705,Y,
stim/negf.jpg,stim/posf.jpg,stim/2.jpg,stim/5.jpg,stim/latef.jpg,CD,1,2,,,,,0,49,49,29,,,,,,,,,,,,,,2,1,0.616439751432,,,,,,PLC_L_D2S1,P26,60.0222334287,02,A,2015_Jul_28_1705,Y,
stim/negf.jpg,stim/posf.jpg,stim/5.jpg,stim/2.jpg,stim/latef.jpg,CD,2,4,,,,,0,50,50,39,,,,,,,,,,,,,,4,1,0.616488391484,,,,,,PLC_L_D2S1,P26,60.0222334287,02,A,2015_Jul_28_1705,Y,
stim/negf.jpg,stim/posf.jpg,stim/3.jpg,stim/1.jpg,stim/latef.jpg,EF,1,2,,,,,0,51,51,47,,,,,,,,,,,,,,2,1,0.749752542641,,,,,,PLC_L_D2S1,P26,60.0222334287,02,A,2015_Jul_28_1705,Y,
stim/negf.jpg,stim/posf.jpg,stim/5.jpg,stim/2.jpg,stim/latef.jpg,CD,2,4,,,,,0,52,52,38,,,,,,,,,,,,,,4,1,0.599784056571,,,,,,PLC_L_D2S1,P26,60.0222334287,02,A,2015_Jul_28_1705,Y,
stim/posf.jpg,stim/negf.jpg,stim/1.jpg,stim/3.jpg,stim/latef.jpg,EF,2,4,,,,,0,53,53,51,,,,,,,,,,,,,,2,0,1.09962115315,,,,,,PLC_L_D2S1,P26,60.0222334287,02,A,2015_Jul_28_1705,Y,
stim/posf.jpg,stim/negf.jpg,stim/4.jpg,stim/6.jpg,stim/latef.jpg,AB,1,2,,,,,0,54,54,6,,,,,,,,,,,,,,2,1,0.699749696056,,,,,,PLC_L_D2S1,P26,60.0222334287,02,A,2015_Jul_28_1705,Y,
stim/negf.jpg,stim/posf.jpg,stim/2.jpg,stim/5.jpg,stim/latef.jpg,CD,1,2,,,,,0,55,55,28,,,,,,,,,,,,,,2,1,0.583094374124,,,,,,PLC_L_D2S1,P26,60.0222334287,02,A,2015_Jul_28_1705,Y,
stim/posf.jpg,stim/negf.jpg,stim/3.jpg,stim/1.jpg,stim/latef.jpg,EF,1,2,,,,,0,56,56,45,,,,,,,,,,,,,,2,1,0.683051715958,,,,,,PLC_L_D2S1,P26,60.0222334287,02,A,2015_Jul_28_1705,Y,
stim/posf.jpg,stim/negf.jpg,stim/3.jpg,stim/1.jpg,stim/latef.jpg,EF,1,2,,,,,0,57,57,41,,,,,,,,,,,,,,2,1,0.549816981011,,,,,,PLC_L_D2S1,P26,60.0222334287,02,A,2015_Jul_28_1705,Y,
stim/posf.jpg,stim/negf.jpg,stim/2.jpg,stim/5.jpg,stim/latef.jpg,CD,1,2,,,,,0,58,58,21,,,,,,,,,,,,,,2,1,0.616466412785,,,,,,PLC_L_D2S1,P26,60.0222334287,02,A,2015_Jul_28_1705,Y,
stim/negf.jpg,stim/posf.jpg,stim/3.jpg,stim/1.jpg,stim/latef.jpg,EF,1,2,,,,,0,59,59,49,,,,,,,,,,,,,,2,1,0.699833487592,,,,,,PLC_L_D2S1,P26,60.0222334287,02,A,2015_Jul_28_1705,Y,
,,,,,,,,,,,,,,,,,,,,,,,,,,,,,,,,0.984375,1.0,1,0,0,PLC_L_D2S1,P26,60.0222334287,02,A,2015_Jul_28_1705,Y,
stim/posf.jpg,stim/negf.jpg,stim/2.jpg,stim/5.jpg,stim/latef.jpg,CD,1,2,,,,,,,,,0,0,0,20,,,,,,,,,,2,1,0.716417856941,,,,,,PLC_L_D2S1,P26,60.0222334287,02,A,2015_Jul_28_1705,Y,
stim/posf.jpg,stim/negf.jpg,stim/2.jpg,stim/5.jpg,stim/latef.jpg,CD,1,2,,,,,,,,,0,1,1,24,,,,,,,,,,2,1,0.466517388149,,,,,,PLC_L_D2S1,P26,60.0222334287,02,A,2015_Jul_28_1705,Y,
stim/negf.jpg,stim/posf.jpg,stim/2.jpg,stim/5.jpg,stim/latef.jpg,CD,1,2,,,,,,,,,0,2,2,29,,,,,,,,,,2,1,0.449825642568,,,,,,PLC_L_D2S1,P26,60.0222334287,02,A,2015_Jul_28_1705,Y,
stim/negf.jpg,stim/posf.jpg,stim/3.jpg,stim/1.jpg,stim/latef.jpg,EF,1,2,,,,,,,,,0,3,3,46,,,,,,,,,,2,1,0.766420799765,,,,,,PLC_L_D2S1,P26,60.0222334287,02,A,2015_Jul_28_1705,Y,
stim/posf.jpg,stim/negf.jpg,stim/1.jpg,stim/3.jpg,stim/latef.jpg,EF,2,4,,,,,,,,,0,4,4,55,,,,,,,,,,2,0,0.699768565016,,,,,,PLC_L_D2S1,P26,60.0222334287,02,A,2015_Jul_28_1705,Y,
stim/posf.jpg,stim/negf.jpg,stim/6.jpg,stim/4.jpg,stim/latef.jpg,AB,2,4,,,,,,,,,0,5,5,13,,,,,,,,,,4,1,0.733103864242,,,,,,PLC_L_D2S1,P26,60.0222334287,02,A,2015_Jul_28_1705,Y,
stim/posf.jpg,stim/negf.jpg,stim/2.jpg,stim/5.jpg,stim/latef.jpg,CD,1,2,,,,,,,,,0,6,6,22,,,,,,,,,,2,1,0.51649818987,,,,,,PLC_L_D2S1,P26,60.0222334287,02,A,2015_Jul_28_1705,Y,
stim/negf.jpg,stim/posf.jpg,stim/5.jpg,stim/2.jpg,stim/latef.jpg,CD,2,4,,,,,,,,,0,7,7,37,,,,,,,,,,4,1,0.599762823728,,,,,,PLC_L_D2S1,P26,60.0222334287,02,A,2015_Jul_28_1705,Y,
stim/posf.jpg,stim/negf.jpg,stim/4.jpg,stim/6.jpg,stim/latef.jpg,AB,1,2,,,,,,,,,0,8,8,7,,,,,,,,,,2,1,0.449848887419,,,,,,PLC_L_D2S1,P26,60.0222334287,02,A,2015_Jul_28_1705,Y,
stim/posf.jpg,stim/negf.jpg,stim/5.jpg,stim/2.jpg,stim/latef.jpg,CD,2,4,,,,,,,,,0,9,9,35,,,,,,,,,,4,1,0.666430273342,,,,,,PLC_L_D2S1,P26,60.0222334287,02,A,2015_Jul_28_1705,Y,
stim/negf.jpg,stim/posf.jpg,stim/3.jpg,stim/1.jpg,stim/latef.jpg,EF,1,2,,,,,,,,,0,10,10,48,,,,,,,,,,2,1,0.866412180314,,,,,,PLC_L_D2S1,P26,60.0222334287,02,A,2015_Jul_28_1705,Y,
stim/posf.jpg,stim/negf.jpg,stim/4.jpg,stim/6.jpg,stim/latef.jpg,AB,1,2,,,,,,,,,0,11,11,3,,,,,,,,,,2,1,0.533130257929,,,,,,PLC_L_D2S1,P26,60.0222334287,02,A,2015_Jul_28_1705,Y,
stim/posf.jpg,stim/negf.jpg,stim/3.jpg,stim/1.jpg,stim/latef.jpg,EF,1,2,,,,,,,,,0,12,12,44,,,,,,,,,,2,1,0.533132567678,,,,,,PLC_L_D2S1,P26,60.0222334287,02,A,2015_Jul_28_1705,Y,
stim/posf.jpg,stim/negf.jpg,stim/6.jpg,stim/4.jpg,stim/latef.jpg,AB,2,4,,,,,,,,,0,13,13,15,,,,,,,,,,4,1,0.716399400007,,,,,,PLC_L_D2S1,P26,60.0222334287,02,A,2015_Jul_28_1705,Y,
stim/negf.jpg,stim/posf.jpg,stim/3.jpg,stim/1.jpg,stim/latef.jpg,EF,1,2,,,,,,,,,0,14,14,49,,,,,,,,,,2,1,0.733079966767,,,,,,PLC_L_D2S1,P26,60.0222334287,02,A,2015_Jul_28_1705,Y,
stim/negf.jpg,stim/posf.jpg,stim/5.jpg,stim/2.jpg,stim/latef.jpg,CD,2,4,,,,,,,,,0,15,15,39,,,,,,,,,,4,1,0.666418859938,,,,,,PLC_L_D2S1,P26,60.0222334287,02,A,2015_Jul_28_1705,Y,
stim/negf.jpg,stim/posf.jpg,stim/4.jpg,stim/6.jpg,stim/latef.jpg,AB,1,2,,,,,,,,,0,16,16,8,,,,,,,,,,2,1,0.599802402229,,,,,,PLC_L_D2S1,P26,60.0222334287,02,A,2015_Jul_28_1705,Y,
stim/negf.jpg,stim/posf.jpg,stim/1.jpg,stim/3.jpg,stim/latef.jpg,EF,2,4,,,,,,,,,0,17,17,59,,,,,,,,,,4,1,0.88305864821,,,,,,PLC_L_D2S1,P26,60.0222334287,02,A,2015_Jul_28_1705,Y,
stim/posf.jpg,stim/negf.jpg,stim/1.jpg,stim/3.jpg,stim/latef.jpg,EF,2,4,,,,,,,,,0,18,18,53,,,,,,,,,,4,1,0.783069408992,,,,,,PLC_L_D2S1,P26,60.0222334287,02,A,2015_Jul_28_1705,Y,
stim/posf.jpg,stim/negf.jpg,stim/3.jpg,stim/1.jpg,stim/latef.jpg,EF,1,2,,,,,,,,,0,19,19,41,,,,,,,,,,2,1,0.616457432435,,,,,,PLC_L_D2S1,P26,60.0222334287,02,A,2015_Jul_28_1705,Y,
stim/posf.jpg,stim/negf.jpg,stim/4.jpg,stim/6.jpg,stim/latef.jpg,AB,1,2,,,,,,,,,0,20,20,1,,,,,,,,,,2,1,0.5997902159,,,,,,PLC_L_D2S1,P26,60.0222334287,02,A,2015_Jul_28_1705,Y,
stim/negf.jpg,stim/posf.jpg,stim/3.jpg,stim/1.jpg,stim/latef.jpg,EF,1,2,,,,,,,,,0,21,21,47,,,,,,,,,,2,1,0.799682671248,,,,,,PLC_L_D2S1,P26,60.0222334287,02,A,2015_Jul_28_1705,Y,
stim/negf.jpg,stim/posf.jpg,stim/6.jpg,stim/4.jpg,stim/latef.jpg,AB,2,4,,,,,,,,,0,22,22,19,,,,,,,,,,4,1,0.633121136228,,,,,,PLC_L_D2S1,P26,60.0222334287,02,A,2015_Jul_28_1705,Y,
stim/posf.jpg,stim/negf.jpg,stim/1.jpg,stim/3.jpg,stim/latef.jpg,EF,2,4,,,,,,,,,0,23,23,51,,,,,,,,,,4,1,0.866394153449,,,,,,PLC_L_D2S1,P26,60.0222334287,02,A,2015_Jul_28_1705,Y,
stim/posf.jpg,stim/negf.jpg,stim/3.jpg,stim/1.jpg,stim/latef.jpg,EF,1,2,,,,,,,,,0,24,24,40,,,,,,,,,,2,1,0.766431166566,,,,,,PLC_L_D2S1,P26,60.0222334287,02,A,2015_Jul_28_1705,Y,
stim/negf.jpg,stim/posf.jpg,stim/2.jpg,stim/5.jpg,stim/latef.jpg,CD,1,2,,,,,,,,,0,25,25,28,,,,,,,,,,2,1,0.616457805363,,,,,,PLC_L_D2S1,P26,60.0222334287,02,A,2015_Jul_28_1705,Y,
stim/negf.jpg,stim/posf.jpg,stim/2.jpg,stim/5.jpg,stim/latef.jpg,CD,1,2,,,,,,,,,0,26,26,27,,,,,,,,,,2,1,0.433187926452,,,,,,PLC_L_D2S1,P26,60.0222334287,02,A,2015_Jul_28_1705,Y,
stim/posf.jpg,stim/negf.jpg,stim/4.jpg,stim/6.jpg,stim/latef.jpg,AB,1,2,,,,,,,,,0,27,27,5,,,,,,,,,,2,1,0.583154421567,,,,,,PLC_L_D2S1,P26,60.0222334287,02,A,2015_Jul_28_1705,Y,
stim/negf.jpg,stim/posf.jpg,stim/4.jpg,stim/6.jpg,stim/latef.jpg,AB,1,2,,,,,,,,,0,28,28,9,,,,,,,,,,2,1,0.516446837066,,,,,,PLC_L_D2S1,P26,60.0222334287,02,A,2015_Jul_28_1705,Y,
stim/posf.jpg,stim/negf.jpg,stim/1.jpg,stim/3.jpg,stim/latef.jpg,EF,2,4,,,,,,,,,0,29,29,52,,,,,,,,,,4,1,0.766409777333,,,,,,PLC_L_D2S1,P26,60.0222334287,02,A,2015_Jul_28_1705,Y,
stim/posf.jpg,stim/negf.jpg,stim/5.jpg,stim/2.jpg,stim/latef.jpg,CD,2,4,,,,,,,,,0,30,30,30,,,,,,,,,,4,1,0.716435318398,,,,,,PLC_L_D2S1,P26,60.0222334287,02,A,2015_Jul_28_1705,Y,
stim/posf.jpg,stim/negf.jpg,stim/2.jpg,stim/5.jpg,stim/latef.jpg,CD,1,2,,,,,,,,,0,31,31,25,,,,,,,,,,2,1,0.566460724127,,,,,,PLC_L_D2S1,P26,60.0222334287,02,A,2015_Jul_28_1705,Y,
stim/posf.jpg,stim/negf.jpg,stim/6.jpg,stim/4.jpg,stim/latef.jpg,AB,2,4,,,,,,,,,0,32,32,14,,,,,,,,,,4,1,0.63312524746,,,,,,PLC_L_D2S1,P26,60.0222334287,02,A,2015_Jul_28_1705,Y,
stim/posf.jpg,stim/negf.jpg,stim/2.jpg,stim/5.jpg,stim/latef.jpg,CD,1,2,,,,,,,,,0,33,33,26,,,,,,,,,,2,1,0.649723430187,,,,,,PLC_L_D2S1,P26,60.0222334287,02,A,2015_Jul_28_1705,Y,
stim/posf.jpg,stim/negf.jpg,stim/3.jpg,stim/1.jpg,stim/latef.jpg,EF,1,2,,,,,,,,,0,34,34,45,,,,,,,,,,2,1,0.866383185152,,,,,,PLC_L_D2S1,P26,60.0222334287,02,A,2015_Jul_28_1705,Y,
stim/posf.jpg,stim/negf.jpg,stim/3.jpg,stim/1.jpg,stim/latef.jpg,EF,1,2,,,,,,,,,0,35,35,42,,,,,,,,,,2,1,0.616465429337,,,,,,PLC_L_D2S1,P26,60.0222334287,02,A,2015_Jul_28_1705,Y,
stim/posf.jpg,stim/negf.jpg,stim/1.jpg,stim/3.jpg,stim/latef.jpg,EF,2,4,,,,,,,,,0,36,36,50,,,,,,,,,,4,1,0.616471621749,,,,,,PLC_L_D2S1,P26,60.0222334287,02,A,2015_Jul_28_1705,Y,
stim/negf.jpg,stim/posf.jpg,stim/5.jpg,stim/2.jpg,stim/latef.jpg,CD,2,4,,,,,,,,,0,37,37,38,,,,,,,,,,4,1,0.683107658184,,,,,,PLC_L_D2S1,P26,60.0222334287,02,A,2015_Jul_28_1705,Y,
stim/posf.jpg,stim/negf.jpg,stim/2.jpg,stim/5.jpg,stim/latef.jpg,CD,1,2,,,,,,,,,0,38,38,23,,,,,,,,,,2,1,0.449845182197,,,,,,PLC_L_D2S1,P26,60.0222334287,02,A,2015_Jul_28_1705,Y,
stim/posf.jpg,stim/negf.jpg,stim/2.jpg,stim/5.jpg,stim/latef.jpg,CD,1,2,,,,,,,,,0,39,39,21,,,,,,,,,,2,1,0.516491717763,,,,,,PLC_L_D2S1,P26,60.0222334287,02,A,2015_Jul_28_1705,Y,
stim/negf.jpg,stim/posf.jpg,stim/6.jpg,stim/4.jpg,stim/latef.jpg,AB,2,4,,,,,,,,,0,40,40,18,,,,,,,,,,4,1,0.633120014436,,,,,,PLC_L_D2S1,P26,60.0222334287,02,A,2015_Jul_28_1705,Y,
stim/negf.jpg,stim/posf.jpg,stim/1.jpg,stim/3.jpg,stim/latef.jpg,EF,2,4,,,,,,,,,0,41,41,58,,,,,,,,,,4,1,0.94967663673,,,,,,PLC_L_D2S1,P26,60.0222334287,02,A,2015_Jul_28_1705,Y,
stim/posf.jpg,stim/negf.jpg,stim/5.jpg,stim/2.jpg,stim/latef.jpg,CD,2,4,,,,,,,,,0,42,42,36,,,,,,,,,,4,1,0.666421253896,,,,,,PLC_L_D2S1,P26,60.0222334287,02,A,2015_Jul_28_1705,Y,
stim/negf.jpg,stim/posf.jpg,stim/1.jpg,stim/3.jpg,stim/latef.jpg,EF,2,4,,,,,,,,,0,43,43,56,,,,,,,,,,4,1,0.599797800777,,,,,,PLC_L_D2S1,P26,60.0222334287,02,A,2015_Jul_28_1705,Y,
stim/posf.jpg,stim/negf.jpg,stim/4.jpg,stim/6.jpg,stim/latef.jpg,AB,1,2,,,,,,,,,0,44,44,4,,,,,,,,,,2,1,0.749750990778,,,,,,PLC_L_D2S1,P26,60.0222334287,02,A,2015_Jul_28_1705,Y,
stim/posf.jpg,stim/negf.jpg,stim/6.jpg,stim/4.jpg,stim/latef.jpg,AB,2,4,,,,,,,,,0,45,45,11,,,,,,,,,,4,1,0.616462677488,,,,,,PLC_L_D2S1,P26,60.0222334287,02,A,2015_Jul_28_1705,Y,
stim/posf.jpg,stim/negf.jpg,stim/6.jpg,stim/4.jpg,stim/latef.jpg,AB,2,4,,,,,,,,,0,46,46,12,,,,,,,,,,4,1,0.63311122055,,,,,,PLC_L_D2S1,P26,60.0222334287,02,A,2015_Jul_28_1705,Y,
stim/posf.jpg,stim/negf.jpg,stim/4.jpg,stim/6.jpg,stim/latef.jpg,AB,1,2,,,,,,,,,0,47,47,0,,,,,,,,,,2,1,0.766397795514,,,,,,PLC_L_D2S1,P26,60.0222334287,02,A,2015_Jul_28_1705,Y,
stim/posf.jpg,stim/negf.jpg,stim/6.jpg,stim/4.jpg,stim/latef.jpg,AB,2,4,,,,,,,,,0,48,48,17,,,,,,,,,,4,1,0.533158185434,,,,,,PLC_L_D2S1,P26,60.0222334287,02,A,2015_Jul_28_1705,Y,
stim/posf.jpg,stim/negf.jpg,stim/4.jpg,stim/6.jpg,stim/latef.jpg,AB,1,2,,,,,,,,,0,49,49,2,,,,,,,,,,2,1,0.483153817062,,,,,,PLC_L_D2S1,P26,60.0222334287,02,A,2015_Jul_28_1705,Y,
stim/posf.jpg,stim/negf.jpg,stim/6.jpg,stim/4.jpg,stim/latef.jpg,AB,2,4,,,,,,,,,0,50,50,10,,,,,,,,,,4,1,0.833061145927,,,,,,PLC_L_D2S1,P26,60.0222334287,02,A,2015_Jul_28_1705,Y,
stim/posf.jpg,stim/negf.jpg,stim/5.jpg,stim/2.jpg,stim/latef.jpg,CD,2,4,,,,,,,,,0,51,51,31,,,,,,,,,,4,1,0.633115133288,,,,,,PLC_L_D2S1,P26,60.0222334287,02,A,2015_Jul_28_1705,Y,
stim/posf.jpg,stim/negf.jpg,stim/5.jpg,stim/2.jpg,stim/latef.jpg,CD,2,4,,,,,,,,,0,52,52,32,,,,,,,,,,4,1,0.533161842536,,,,,,PLC_L_D2S1,P26,60.0222334287,02,A,2015_Jul_28_1705,Y,
stim/posf.jpg,stim/negf.jpg,stim/3.jpg,stim/1.jpg,stim/latef.jpg,EF,1,2,,,,,,,,,0,53,53,43,,,,,,,,,,2,1,0.966362968839,,,,,,PLC_L_D2S1,P26,60.0222334287,02,A,2015_Jul_28_1705,Y,
stim/negf.jpg,stim/posf.jpg,stim/1.jpg,stim/3.jpg,stim/latef.jpg,EF,2,4,,,,,,,,,0,54,54,57,,,,,,,,,,4,1,0.64978502047,,,,,,PLC_L_D2S1,P26,60.0222334287,02,A,2015_Jul_28_1705,Y,
stim/posf.jpg,stim/negf.jpg,stim/5.jpg,stim/2.jpg,stim/latef.jpg,CD,2,4,,,,,,,,,0,55,55,33,,,,,,,,,,4,1,0.566516025759,,,,,,PLC_L_D2S1,P26,60.0222334287,02,A,2015_Jul_28_1705,Y,
stim/posf.jpg,stim/negf.jpg,stim/5.jpg,stim/2.jpg,stim/latef.jpg,CD,2,4,,,,,,,,,0,56,56,34,,,,,,,,,,4,1,0.54983457179,,,,,,PLC_L_D2S1,P26,60.0222334287,02,A,2015_Jul_28_1705,Y,
stim/posf.jpg,stim/negf.jpg,stim/1.jpg,stim/3.jpg,stim/latef.jpg,EF,2,4,,,,,,,,,0,57,57,54,,,,,,,,,,4,1,0.866403130792,,,,,,PLC_L_D2S1,P26,60.0222334287,02,A,2015_Jul_28_1705,Y,
stim/posf.jpg,stim/negf.jpg,stim/4.jpg,stim/6.jpg,stim/latef.jpg,AB,1,2,,,,,,,,,0,58,58,6,,,,,,,,,,2,1,0.599793945181,,,,,,PLC_L_D2S1,P26,60.0222334287,02,A,2015_Jul_28_1705,Y,
stim/posf.jpg,stim/negf.jpg,stim/6.jpg,stim/4.jpg,stim/latef.jpg,AB,2,4,,,,,,,,,0,59,59,16,,,,,,,,,,4,1,0.616481636673,,,,,,PLC_L_D2S1,P26,60.0222334287,02,A,2015_Jul_28_1705,Y,
,,,,,,,,,,,,,,,,,,,,,,,,,,,,,,,,0.984375,1.0,1,0,0,PLC_L_D2S1,P26,60.0222334287,02,A,2015_Jul_28_1705,Y,
stim/posf.jpg,stim/negf.jpg,stim/3.jpg,stim/1.jpg,stim/latef.jpg,EF,1,2,,,,,,,,,,,,,0,0,0,40,,,,,,2,1,0.983002426288,,,,,,PLC_L_D2S1,P26,60.0222334287,02,A,2015_Jul_28_1705,Y,
stim/negf.jpg,stim/posf.jpg,stim/1.jpg,stim/3.jpg,stim/latef.jpg,EF,2,4,,,,,,,,,,,,,0,1,1,59,,,,,,4,1,0.616541972835,,,,,,PLC_L_D2S1,P26,60.0222334287,02,A,2015_Jul_28_1705,Y,
stim/posf.jpg,stim/negf.jpg,stim/1.jpg,stim/3.jpg,stim/latef.jpg,EF,2,4,,,,,,,,,,,,,0,2,2,54,,,,,,4,1,0.683096154555,,,,,,PLC_L_D2S1,P26,60.0222334287,02,A,2015_Jul_28_1705,Y,
stim/posf.jpg,stim/negf.jpg,stim/5.jpg,stim/2.jpg,stim/latef.jpg,CD,2,4,,,,,,,,,,,,,0,3,3,35,,,,,,4,1,0.616453730221,,,,,,PLC_L_D2S1,P26,60.0222334287,02,A,2015_Jul_28_1705,Y,
stim/posf.jpg,stim/negf.jpg,stim/5.jpg,stim/2.jpg,stim/latef.jpg,CD,2,4,,,,,,,,,,,,,0,4,4,31,,,,,,4,1,0.649781955843,,,,,,PLC_L_D2S1,P26,60.0222334287,02,A,2015_Jul_28_1705,Y,
stim/posf.jpg,stim/negf.jpg,stim/4.jpg,stim/6.jpg,stim/latef.jpg,AB,1,2,,,,,,,,,,,,,0,5,5,3,,,,,,2,1,0.549804481905,,,,,,PLC_L_D2S1,P26,60.0222334287,02,A,2015_Jul_28_1705,Y,
stim/posf.jpg,stim/negf.jpg,stim/2.jpg,stim/5.jpg,stim/latef.jpg,CD,1,2,,,,,,,,,,,,,0,6,6,20,,,,,,2,1,0.833076026962,,,,,,PLC_L_D2S1,P26,60.0222334287,02,A,2015_Jul_28_1705,Y,
stim/posf.jpg,stim/negf.jpg,stim/5.jpg,stim/2.jpg,stim/latef.jpg,CD,2,4,,,,,,,,,,,,,0,7,7,32,,,,,,4,1,0.516483555449,,,,,,PLC_L_D2S1,P26,60.0222334287,02,A,2015_Jul_28_1705,Y,
stim/posf.jpg,stim/negf.jpg,stim/4.jpg,stim/6.jpg,stim/latef.jpg,AB,1,2,,,,,,,,,,,,,0,8,8,5,,,,,,2,1,0.583132593242,,,,,,PLC_L_D2S1,P26,60.0222334287,02,A,2015_Jul_28_1705,Y,
stim/posf.jpg,stim/negf.jpg,stim/4.jpg,stim/6.jpg,stim/latef.jpg,AB,1,2,,,,,,,,,,,,,0,9,9,6,,,,,,2,1,0.499823466652,,,,,,PLC_L_D2S1,P26,60.0222334287,02,A,2015_Jul_28_1705,Y,
stim/posf.jpg,stim/negf.jpg,stim/1.jpg,stim/3.jpg,stim/latef.jpg,EF,2,4,,,,,,,,,,,,,0,10,10,50,,,,,,4,1,0.666424754608,,,,,,PLC_L_D2S1,P26,60.0222334287,02,A,2015_Jul_28_1705,Y,
stim/posf.jpg,stim/negf.jpg,stim/2.jpg,stim/5.jpg,stim/latef.jpg,CD,1,2,,,,,,,,,,,,,0,11,11,24,,,,,,2,1,0.549802740571,,,,,,PLC_L_D2S1,P26,60.0222334287,02,A,2015_Jul_28_1705,Y,
stim/posf.jpg,stim/negf.jpg,stim/4.jpg,stim/6.jpg,stim/latef.jpg,AB,1,2,,,,,,,,,,,,,0,12,12,2,,,,,,2,1,0.616457636944,,,,,,PLC_L_D2S1,P26,60.0222334287,02,A,2015_Jul_28_1705,Y,
stim/posf.jpg,stim/negf.jpg,stim/3.jpg,stim/1.jpg,stim/latef.jpg,EF,1,2,,,,,,,,,,,,,0,13,13,42,,,,,,2,1,0.616396988004,,,,,,PLC_L_D2S1,P26,60.0222334287,02,A,2015_Jul_28_1705,Y,
stim/negf.jpg,stim/posf.jpg,stim/6.jpg,stim/4.jpg,stim/latef.jpg,AB,2,4,,,,,,,,,,,,,0,14,14,19,,,,,,4,1,0.64980188043,,,,,,PLC_L_D2S1,P26,60.0222334287,02,A,2015_Jul_28_1705,Y,
stim/negf.jpg,stim/posf.jpg,stim/2.jpg,stim/5.jpg,stim/latef.jpg,CD,1,2,,,,,,,,,,,,,0,15,15,27,,,,,,2,1,0.46647052552,,,,,,PLC_L_D2S1,P26,60.0222334287,02,A,2015_Jul_28_1705,Y,
stim/negf.jpg,stim/posf.jpg,stim/1.jpg,stim/3.jpg,stim/latef.jpg,EF,2,4,,,,,,,,,,,,,0,16,16,56,,,,,,4,1,0.61650762435,,,,,,PLC_L_D2S1,P26,60.0222334287,02,A,2015_Jul_28_1705,Y,
stim/posf.jpg,stim/negf.jpg,stim/6.jpg,stim/4.jpg,stim/latef.jpg,AB,2,4,,,,,,,,,,,,,0,17,17,10,,,,,,4,1,0.599808104419,,,,,,PLC_L_D2S1,P26,60.0222334287,02,A,2015_Jul_28_1705,Y,
stim/posf.jpg,stim/negf.jpg,stim/2.jpg,stim/5.jpg,stim/latef.jpg,CD,1,2,,,,,,,,,,,,,0,18,18,21,,,,,,2,1,0.566474844269,,,,,,PLC_L_D2S1,P26,60.0222334287,02,A,2015_Jul_28_1705,Y,
stim/posf.jpg,stim/negf.jpg,stim/5.jpg,stim/2.jpg,stim/latef.jpg,CD,2,4,,,,,,,,,,,,,0,19,19,36,,,,,,4,1,0.683112358883,,,,,,PLC_L_D2S1,P26,60.0222334287,02,A,2015_Jul_28_1705,Y,
stim/negf.jpg,stim/posf.jpg,stim/2.jpg,stim/5.jpg,stim/latef.jpg,CD,1,2,,,,,,,,,,,,,0,20,20,29,,,,,,2,1,0.583111375435,,,,,,PLC_L_D2S1,P26,60.0222334287,02,A,2015_Jul_28_1705,Y,
stim/posf.jpg,stim/negf.jpg,stim/6.jpg,stim/4.jpg,stim/latef.jpg,AB,2,4,,,,,,,,,,,,,0,21,21,16,,,,,,4,1,0.549806187149,,,,,,PLC_L_D2S1,P26,60.0222334287,02,A,2015_Jul_28_1705,Y,
stim/posf.jpg,stim/negf.jpg,stim/1.jpg,stim/3.jpg,stim/latef.jpg,EF,2,4,,,,,,,,,,,,,0,22,22,51,,,,,,4,1,0.833039046928,,,,,,PLC_L_D2S1,P26,60.0222334287,02,A,2015_Jul_28_1705,Y,
stim/posf.jpg,stim/negf.jpg,stim/2.jpg,stim/5.jpg,stim/latef.jpg,CD,1,2,,,,,,,,,,,,,0,23,23,23,,,,,,2,1,0.733074670587,,,,,,PLC_L_D2S1,P26,60.0222334287,02,A,2015_Jul_28_1705,Y,
stim/posf.jpg,stim/negf.jpg,stim/6.jpg,stim/4.jpg,stim/latef.jpg,AB,2,4,,,,,,,,,,,,,0,24,24,14,,,,,,4,1,0.466501265023,,,,,,PLC_L_D2S1,P26,60.0222334287,02,A,2015_Jul_28_1705,Y,
stim/posf.jpg,stim/negf.jpg,stim/5.jpg,stim/2.jpg,stim/latef.jpg,CD,2,4,,,,,,,,,,,,,0,25,25,33,,,,,,4,1,0.716414220892,,,,,,PLC_L_D2S1,P26,60.0222334287,02,A,2015_Jul_28_1705,Y,
stim/posf.jpg,stim/negf.jpg,stim/6.jpg,stim/4.jpg,stim/latef.jpg,AB,2,4,,,,,,,,,,,,,0,26,26,15,,,,,,4,1,0.749739932256,,,,,,PLC_L_D2S1,P26,60.0222334287,02,A,2015_Jul_28_1705,Y,
stim/posf.jpg,stim/negf.jpg,stim/6.jpg,stim/4.jpg,stim/latef.jpg,AB,2,4,,,,,,,,,,,,,0,27,27,17,,,,,,4,1,0.716371743176,,,,,,PLC_L_D2S1,P26,60.0222334287,02,A,2015_Jul_28_1705,Y,
stim/negf.jpg,stim/posf.jpg,stim/5.jpg,stim/2.jpg,stim/latef.jpg,CD,2,4,,,,,,,,,,,,,0,28,28,39,,,,,,4,1,0.53315552381,,,,,,PLC_L_D2S1,P26,60.0222334287,02,A,2015_Jul_28_1705,Y,
stim/posf.jpg,stim/negf.jpg,stim/6.jpg,stim/4.jpg,stim/latef.jpg,AB,2,4,,,,,,,,,,,,,0,29,29,13,,,,,,4,1,0.566478179569,,,,,,PLC_L_D2S1,P26,60.0222334287,02,A,2015_Jul_28_1705,Y,
stim/negf.jpg,stim/posf.jpg,stim/1.jpg,stim/3.jpg,stim/latef.jpg,EF,2,4,,,,,,,,,,,,,0,30,30,57,,,,,,4,1,0.69977174092,,,,,,PLC_L_D2S1,P26,60.0222334287,02,A,2015_Jul_28_1705,Y,
stim/posf.jpg,stim/negf.jpg,stim/5.jpg,stim/2.jpg,stim/latef.jpg,CD,2,4,,,,,,,,,,,,,0,31,31,34,,,,,,4,1,0.633124883554,,,,,,PLC_L_D2S1,P26,60.0222334287,02,A,2015_Jul_28_1705,Y,
stim/negf.jpg,stim/posf.jpg,stim/3.jpg,stim/1.jpg,stim/latef.jpg,EF,1,2,,,,,,,,,,,,,0,32,32,46,,,,,,2,1,0.86642187043,,,,,,PLC_L_D2S1,P26,60.0222334287,02,A,2015_Jul_28_1705,Y,
stim/negf.jpg,stim/posf.jpg,stim/3.jpg,stim/1.jpg,stim/latef.jpg,EF,1,2,,,,,,,,,,,,,0,33,33,48,,,,,,2,1,0.41651311301,,,,,,PLC_L_D2S1,P26,60.0222334287,02,A,2015_Jul_28_1705,Y,
stim/negf.jpg,stim/posf.jpg,stim/1.jpg,stim/3.jpg,stim/latef.jpg,EF,2,4,,,,,,,,,,,,,0,34,34,58,,,,,,4,1,0.56647756905,,,,,,PLC_L_D2S1,P26,60.0222334287,02,A,2015_Jul_28_1705,Y,
stim/posf.jpg,stim/negf.jpg,stim/4.jpg,stim/6.jpg,stim/latef.jpg,AB,1,2,,,,,,,,,,,,,0,35,35,4,,,,,,2,1,0.599803899956,,,,,,PLC_L_D2S1,P26,60.0222334287,02,A,2015_Jul_28_1705,Y,
stim/posf.jpg,stim/negf.jpg,stim/6.jpg,stim/4.jpg,stim/latef.jpg,AB,2,4,,,,,,,,,,,,,0,36,36,12,,,,,,4,1,0.633180230298,,,,,,PLC_L_D2S1,P26,60.0222334287,02,A,2015_Jul_28_1705,Y,
stim/posf.jpg,stim/negf.jpg,stim/3.jpg,stim/1.jpg,stim/latef.jpg,EF,1,2,,,,,,,,,,,,,0,37,37,41,,,,,,2,1,0.683097823709,,,,,,PLC_L_D2S1,P26,60.0222334287,02,A,2015_Jul_28_1705,Y,
stim/posf.jpg,stim/negf.jpg,stim/2.jpg,stim/5.jpg,stim/latef.jpg,CD,1,2,,,,,,,,,,,,,0,38,38,26,,,,,,2,1,0.683106004068,,,,,,PLC_L_D2S1,P26,60.0222334287,02,A,2015_Jul_28_1705,Y,
stim/posf.jpg,stim/negf.jpg,stim/3.jpg,stim/1.jpg,stim/latef.jpg,EF,1,2,,,,,,,,,,,,,0,39,39,44,,,,,,2,1,0.849700681571,,,,,,PLC_L_D2S1,P26,60.0222334287,02,A,2015_Jul_28_1705,Y,
stim/posf.jpg,stim/negf.jpg,stim/2.jpg,stim/5.jpg,stim/latef.jpg,CD,1,2,,,,,,,,,,,,,0,40,40,25,,,,,,2,1,0.549816406582,,,,,,PLC_L_D2S1,P26,60.0222334287,02,A,2015_Jul_28_1705,Y,
stim/posf.jpg,stim/negf.jpg,stim/4.jpg,stim/6.jpg,stim/latef.jpg,AB,1,2,,,,,,,,,,,,,0,41,41,1,,,,,,2,1,0.533095840272,,,,,,PLC_L_D2S1,P26,60.0222334287,02,A,2015_Jul_28_1705,Y,
stim/posf.jpg,stim/negf.jpg,stim/4.jpg,stim/6.jpg,stim/latef.jpg,AB,1,2,,,,,,,,,,,,,0,42,42,7,,,,,,2,1,0.499839003319,,,,,,PLC_L_D2S1,P26,60.0222334287,02,A,2015_Jul_28_1705,Y,
stim/posf.jpg,stim/negf.jpg,stim/1.jpg,stim/3.jpg,stim/latef.jpg,EF,2,4,,,,,,,,,,,,,0,43,43,53,,,,,,4,1,0.849722615158,,,,,,PLC_L_D2S1,P26,60.0222334287,02,A,2015_Jul_28_1705,Y,
stim/negf.jpg,stim/posf.jpg,stim/2.jpg,stim/5.jpg,stim/latef.jpg,CD,1,2,,,,,,,,,,,,,0,44,44,28,,,,,,2,1,0.633111397992,,,,,,PLC_L_D2S1,P26,60.0222334287,02,A,2015_Jul_28_1705,Y,
stim/posf.jpg,stim/negf.jpg,stim/4.jpg,stim/6.jpg,stim/latef.jpg,AB,1,2,,,,,,,,,,,,,0,45,45,0,,,,,,2,1,0.649792027909,,,,,,PLC_L_D2S1,P26,60.0222334287,02,A,2015_Jul_28_1705,Y,
stim/posf.jpg,stim/negf.jpg,stim/6.jpg,stim/4.jpg,stim/latef.jpg,AB,2,4,,,,,,,,,,,,,0,46,46,11,,,,,,4,1,0.699762992147,,,,,,PLC_L_D2S1,P26,60.0222334287,02,A,2015_Jul_28_1705,Y,
stim/negf.jpg,stim/posf.jpg,stim/3.jpg,stim/1.jpg,stim/latef.jpg,EF,1,2,,,,,,,,,,,,,0,47,47,47,,,,,,2,1,0.666442074713,,,,,,PLC_L_D2S1,P26,60.0222334287,02,A,2015_Jul_28_1705,Y,
stim/posf.jpg,stim/negf.jpg,stim/1.jpg,stim/3.jpg,stim/latef.jpg,EF,2,4,,,,,,,,,,,,,0,48,48,52,,,,,,4,1,0.849690380935,,,,,,PLC_L_D2S1,P26,60.0222334287,02,A,2015_Jul_28_1705,Y,
stim/posf.jpg,stim/negf.jpg,stim/3.jpg,stim/1.jpg,stim/latef.jpg,EF,1,2,,,,,,,,,,,,,0,49,49,45,,,,,,2,1,1.13294596828,,,,,,PLC_L_D2S1,P26,60.0222334287,02,A,2015_Jul_28_1705,Y,
stim/negf.jpg,stim/posf.jpg,stim/3.jpg,stim/1.jpg,stim/latef.jpg,EF,1,2,,,,,,,,,,,,,0,50,50,49,,,,,,2,1,0.716428810201,,,,,,PLC_L_D2S1,P26,60.0222334287,02,A,2015_Jul_28_1705,Y,
stim/posf.jpg,stim/negf.jpg,stim/3.jpg,stim/1.jpg,stim/latef.jpg,EF,1,2,,,,,,,,,,,,,0,51,51,43,,,,,,2,1,0.683072885644,,,,,,PLC_L_D2S1,P26,60.0222334287,02,A,2015_Jul_28_1705,Y,
stim/posf.jpg,stim/negf.jpg,stim/1.jpg,stim/3.jpg,stim/latef.jpg,EF,2,4,,,,,,,,,,,,,0,52,52,55,,,,,,4,1,0.766417921602,,,,,,PLC_L_D2S1,P26,60.0222334287,02,A,2015_Jul_28_1705,Y,
stim/negf.jpg,stim/posf.jpg,stim/5.jpg,stim/2.jpg,stim/latef.jpg,CD,2,4,,,,,,,,,,,,,0,53,53,38,,,,,,4,1,0.716418632872,,,,,,PLC_L_D2S1,P26,60.0222334287,02,A,2015_Jul_28_1705,Y,
stim/posf.jpg,stim/negf.jpg,stim/5.jpg,stim/2.jpg,stim/latef.jpg,CD,2,4,,,,,,,,,,,,,0,54,54,30,,,,,,4,1,0.616432804141,,,,,,PLC_L_D2S1,P26,60.0222334287,02,A,2015_Jul_28_1705,Y,
stim/negf.jpg,stim/posf.jpg,stim/6.jpg,stim/4.jpg,stim/latef.jpg,AB,2,4,,,,,,,,,,,,,0,55,55,18,,,,,,4,1,0.699763434247,,,,,,PLC_L_D2S1,P26,60.0222334287,02,A,2015_Jul_28_1705,Y,
stim/negf.jpg,stim/posf.jpg,stim/4.jpg,stim/6.jpg,stim/latef.jpg,AB,1,2,,,,,,,,,,,,,0,56,56,8,,,,,,2,1,0.499815605087,,,,,,PLC_L_D2S1,P26,60.0222334287,02,A,2015_Jul_28_1705,Y,
stim/negf.jpg,stim/posf.jpg,stim/4.jpg,stim/6.jpg,stim/latef.jpg,AB,1,2,,,,,,,,,,,,,0,57,57,9,,,,,,2,1,0.53316591467,,,,,,PLC_L_D2S1,P26,60.0222334287,02,A,2015_Jul_28_1705,Y,
stim/negf.jpg,stim/posf.jpg,stim/5.jpg,stim/2.jpg,stim/latef.jpg,CD,2,4,,,,,,,,,,,,,0,58,58,37,,,,,,4,1,0.54980091202,,,,,,PLC_L_D2S1,P26,60.0222334287,02,A,2015_Jul_28_1705,Y,
stim/posf.jpg,stim/negf.jpg,stim/2.jpg,stim/5.jpg,stim/latef.jpg,CD,1,2,,,,,,,,,,,,,0,59,59,22,,,,,,2,1,0.599805683395,,,,,,PLC_L_D2S1,P26,60.0222334287,02,A,2015_Jul_28_1705,Y,
