fb_corr,fb_incorr,symbol2,symbol1,fb_late,pair,position,correct,block_01.thisRepN,block_01.thisTrialN,block_01.thisN,block_01.thisIndex,block_02.thisRepN,block_02.thisTrialN,block_02.thisN,block_02.thisIndex,block_03.thisRepN,block_03.thisTrialN,block_03.thisN,block_03.thisIndex,block_04.thisRepN,block_04.thisTrialN,block_04.thisN,block_04.thisIndex,mouse.x,mouse.y,mouse.leftButton,mouse.midButton,mouse.rightButton,buttonBox_2.keys,buttonBox_2.corr,buttonBox_2.rt,mouse_2.x,mouse_2.y,mouse_2.leftButton,mouse_2.midButton,mouse_2.rightButton,expName,Participant,frameRate,SessionNumber,Version,date,Group,
,,,,,,,,,,,,,,,,,,,,,,,,0.9984375,1.0,1,0,0,,,,,,,,,PLC_L_D2S1,P28,60.0244297577,02,B,2015_Aug_04_1423,Y,
stim/posf.jpg,stim/negf.jpg,stim/4.jpg,stim/6.jpg,stim/latef.jpg,EF,2,4,0,0,0,51,,,,,,,,,,,,,,,,,,4,1,0.549867395481,,,,,,PLC_L_D2S1,P28,60.0244297577,02,B,2015_Aug_04_1423,Y,
stim/negf.jpg,stim/posf.jpg,stim/3.jpg,stim/5.jpg,stim/latef.jpg,CD,2,4,0,1,1,37,,,,,,,,,,,,,,,,,,2,0,0.783072260087,,,,,,PLC_L_D2S1,P28,60.0244297577,02,B,2015_Aug_04_1423,Y,
stim/posf.jpg,stim/negf.jpg,stim/6.jpg,stim/4.jpg,stim/latef.jpg,EF,1,2,0,2,2,45,,,,,,,,,,,,,,,,,,2,1,0.76641682387,,,,,,PLC_L_D2S1,P28,60.0244297577,02,B,2015_Aug_04_1423,Y,
stim/posf.jpg,stim/negf.jpg,stim/3.jpg,stim/5.jpg,stim/latef.jpg,CD,2,4,0,3,3,36,,,,,,,,,,,,,,,,,,2,0,0.599796161697,,,,,,PLC_L_D2S1,P28,60.0244297577,02,B,2015_Aug_04_1423,Y,
stim/posf.jpg,stim/negf.jpg,stim/6.jpg,stim/4.jpg,stim/latef.jpg,EF,1,2,0,4,4,43,,,,,,,,,,,,,,,,,,2,1,0.516452124224,,,,,,PLC_L_D2S1,P28,60.0244297577,02,B,2015_Aug_04_1423,Y,
stim/posf.jpg,stim/negf.jpg,stim/5.jpg,stim/3.jpg,stim/latef.jpg,CD,1,2,0,5,5,25,,,,,,,,,,,,,,,,,,2,1,0.533168654489,,,,,,PLC_L_D2S1,P28,60.0244297577,02,B,2015_Aug_04_1423,Y,
stim/negf.jpg,stim/posf.jpg,stim/6.jpg,stim/4.jpg,stim/latef.jpg,EF,1,2,0,6,6,48,,,,,,,,,,,,,,,,,,2,1,0.683106172487,,,,,,PLC_L_D2S1,P28,60.0244297577,02,B,2015_Aug_04_1423,Y,
stim/negf.jpg,stim/posf.jpg,stim/4.jpg,stim/6.jpg,stim/latef.jpg,EF,2,4,0,7,7,58,,,,,,,,,,,,,,,,,,4,1,0.982996011323,,,,,,PLC_L_D2S1,P28,60.0244297577,02,B,2015_Aug_04_1423,Y,
stim/posf.jpg,stim/negf.jpg,stim/5.jpg,stim/3.jpg,stim/latef.jpg,CD,1,2,0,8,8,24,,,,,,,,,,,,,,,,,,4,0,1.08297151837,,,,,,PLC_L_D2S1,P28,60.0244297577,02,B,2015_Aug_04_1423,Y,
stim/posf.jpg,stim/negf.jpg,stim/3.jpg,stim/5.jpg,stim/latef.jpg,CD,2,4,0,9,9,30,,,,,,,,,,,,,,,,,,4,1,0.966355537344,,,,,,PLC_L_D2S1,P28,60.0244297577,02,B,2015_Aug_04_1423,Y,
stim/negf.jpg,stim/posf.jpg,stim/5.jpg,stim/3.jpg,stim/latef.jpg,CD,1,2,0,10,10,27,,,,,,,,,,,,,,,,,,4,0,0.932003130792,,,,,,PLC_L_D2S1,P28,60.0244297577,02,B,2015_Aug_04_1423,Y,
stim/posf.jpg,stim/negf.jpg,stim/1.jpg,stim/2.jpg,stim/latef.jpg,AB,2,4,0,11,11,14,,,,,,,,,,,,,,,,,,4,1,0.96633528494,,,,,,PLC_L_D2S1,P28,60.0244297577,02,B,2015_Aug_04_1423,Y,
stim/posf.jpg,stim/negf.jpg,stim/3.jpg,stim/5.jpg,stim/latef.jpg,CD,2,4,0,12,12,35,,,,,,,,,,,,,,,,,,4,1,1.16621933437,,,,,,PLC_L_D2S1,P28,60.0244297577,02,B,2015_Aug_04_1423,Y,
stim/posf.jpg,stim/negf.jpg,stim/2.jpg,stim/1.jpg,stim/latef.jpg,AB,1,2,0,13,13,4,,,,,,,,,,,,,,,,,,2,1,0.816377574689,,,,,,PLC_L_D2S1,P28,60.0244297577,02,B,2015_Aug_04_1423,Y,
stim/negf.jpg,stim/posf.jpg,stim/4.jpg,stim/6.jpg,stim/latef.jpg,EF,2,4,0,14,14,59,,,,,,,,,,,,,,,,,,2,0,0.716419877971,,,,,,PLC_L_D2S1,P28,60.0244297577,02,B,2015_Aug_04_1423,Y,
stim/posf.jpg,stim/negf.jpg,stim/6.jpg,stim/4.jpg,stim/latef.jpg,EF,1,2,0,15,15,44,,,,,,,,,,,,,,,,,,2,1,0.649815014116,,,,,,PLC_L_D2S1,P28,60.0244297577,02,B,2015_Aug_04_1423,Y,
stim/posf.jpg,stim/negf.jpg,stim/4.jpg,stim/6.jpg,stim/latef.jpg,EF,2,4,0,16,16,53,,,,,,,,,,,,,,,,,,4,1,0.849689283204,,,,,,PLC_L_D2S1,P28,60.0244297577,02,B,2015_Aug_04_1423,Y,
stim/negf.jpg,stim/posf.jpg,stim/2.jpg,stim/1.jpg,stim/latef.jpg,AB,1,2,0,17,17,9,,,,,,,,,,,,,,,,,,2,1,0.58315122461,,,,,,PLC_L_D2S1,P28,60.0244297577,02,B,2015_Aug_04_1423,Y,
stim/posf.jpg,stim/negf.jpg,stim/1.jpg,stim/2.jpg,stim/latef.jpg,AB,2,4,0,18,18,16,,,,,,,,,,,,,,,,,,4,1,0.716421505021,,,,,,PLC_L_D2S1,P28,60.0244297577,02,B,2015_Aug_04_1423,Y,
stim/posf.jpg,stim/negf.jpg,stim/2.jpg,stim/1.jpg,stim/latef.jpg,AB,1,2,0,19,19,1,,,,,,,,,,,,,,,,,,2,1,0.816313737815,,,,,,PLC_L_D2S1,P28,60.0244297577,02,B,2015_Aug_04_1423,Y,
stim/posf.jpg,stim/negf.jpg,stim/2.jpg,stim/1.jpg,stim/latef.jpg,AB,1,2,0,20,20,6,,,,,,,,,,,,,,,,,,2,1,0.766402568392,,,,,,PLC_L_D2S1,P28,60.0244297577,02,B,2015_Aug_04_1423,Y,
stim/posf.jpg,stim/negf.jpg,stim/6.jpg,stim/4.jpg,stim/latef.jpg,EF,1,2,0,21,21,41,,,,,,,,,,,,,,,,,,2,1,1.19959342113,,,,,,PLC_L_D2S1,P28,60.0244297577,02,B,2015_Aug_04_1423,Y,
stim/posf.jpg,stim/negf.jpg,stim/2.jpg,stim/1.jpg,stim/latef.jpg,AB,1,2,0,22,22,0,,,,,,,,,,,,,,,,,,2,1,0.783088939598,,,,,,PLC_L_D2S1,P28,60.0244297577,02,B,2015_Aug_04_1423,Y,
stim/negf.jpg,stim/posf.jpg,stim/1.jpg,stim/2.jpg,stim/latef.jpg,AB,2,4,0,23,23,19,,,,,,,,,,,,,,,,,,4,1,0.933008454792,,,,,,PLC_L_D2S1,P28,60.0244297577,02,B,2015_Aug_04_1423,Y,
stim/posf.jpg,stim/negf.jpg,stim/4.jpg,stim/6.jpg,stim/latef.jpg,EF,2,4,0,24,24,54,,,,,,,,,,,,,,,,,,4,1,0.683107868708,,,,,,PLC_L_D2S1,P28,60.0244297577,02,B,2015_Aug_04_1423,Y,
stim/posf.jpg,stim/negf.jpg,stim/5.jpg,stim/3.jpg,stim/latef.jpg,CD,1,2,0,25,25,26,,,,,,,,,,,,,,,,,,4,0,0.833015961474,,,,,,PLC_L_D2S1,P28,60.0244297577,02,B,2015_Aug_04_1423,Y,
stim/negf.jpg,stim/posf.jpg,stim/6.jpg,stim/4.jpg,stim/latef.jpg,EF,1,2,0,26,26,49,,,,,,,,,,,,,,,,,,2,1,0.91629040274,,,,,,PLC_L_D2S1,P28,60.0244297577,02,B,2015_Aug_04_1423,Y,
stim/posf.jpg,stim/negf.jpg,stim/3.jpg,stim/5.jpg,stim/latef.jpg,CD,2,4,0,27,27,32,,,,,,,,,,,,,,,,,,2,0,0.883036332673,,,,,,PLC_L_D2S1,P28,60.0244297577,02,B,2015_Aug_04_1423,Y,
stim/posf.jpg,stim/negf.jpg,stim/1.jpg,stim/2.jpg,stim/latef.jpg,AB,2,4,0,28,28,12,,,,,,,,,,,,,,,,,,2,0,0.899704433409,,,,,,PLC_L_D2S1,P28,60.0244297577,02,B,2015_Aug_04_1423,Y,
stim/posf.jpg,stim/negf.jpg,stim/1.jpg,stim/2.jpg,stim/latef.jpg,AB,2,4,0,29,29,11,,,,,,,,,,,,,,,,,,4,1,0.76641540133,,,,,,PLC_L_D2S1,P28,60.0244297577,02,B,2015_Aug_04_1423,Y,
stim/negf.jpg,stim/posf.jpg,stim/4.jpg,stim/6.jpg,stim/latef.jpg,EF,2,4,0,30,30,57,,,,,,,,,,,,,,,,,,4,1,0.849718464829,,,,,,PLC_L_D2S1,P28,60.0244297577,02,B,2015_Aug_04_1423,Y,
stim/posf.jpg,stim/negf.jpg,stim/1.jpg,stim/2.jpg,stim/latef.jpg,AB,2,4,0,31,31,13,,,,,,,,,,,,,,,,,,4,1,0.76642237268,,,,,,PLC_L_D2S1,P28,60.0244297577,02,B,2015_Aug_04_1423,Y,
stim/posf.jpg,stim/negf.jpg,stim/6.jpg,stim/4.jpg,stim/latef.jpg,EF,1,2,0,32,32,42,,,,,,,,,,,,,,,,,,2,1,0.616409514178,,,,,,PLC_L_D2S1,P28,60.0244297577,02,B,2015_Aug_04_1423,Y,
stim/posf.jpg,stim/negf.jpg,stim/4.jpg,stim/6.jpg,stim/latef.jpg,EF,2,4,0,33,33,50,,,,,,,,,,,,,,,,,,4,1,0.89964637692,,,,,,PLC_L_D2S1,P28,60.0244297577,02,B,2015_Aug_04_1423,Y,
stim/posf.jpg,stim/negf.jpg,stim/1.jpg,stim/2.jpg,stim/latef.jpg,AB,2,4,0,34,34,15,,,,,,,,,,,,,,,,,,4,1,0.749774680737,,,,,,PLC_L_D2S1,P28,60.0244297577,02,B,2015_Aug_04_1423,Y,
stim/posf.jpg,stim/negf.jpg,stim/5.jpg,stim/3.jpg,stim/latef.jpg,CD,1,2,0,35,35,23,,,,,,,,,,,,,,,,,,4,0,1.24956939583,,,,,,PLC_L_D2S1,P28,60.0244297577,02,B,2015_Aug_04_1423,Y,
stim/negf.jpg,stim/posf.jpg,stim/4.jpg,stim/6.jpg,stim/latef.jpg,EF,2,4,0,36,36,56,,,,,,,,,,,,,,,,,,4,1,0.649789077567,,,,,,PLC_L_D2S1,P28,60.0244297577,02,B,2015_Aug_04_1423,Y,
stim/negf.jpg,stim/posf.jpg,stim/2.jpg,stim/1.jpg,stim/latef.jpg,AB,1,2,0,37,37,8,,,,,,,,,,,,,,,,,,2,1,0.549789648989,,,,,,PLC_L_D2S1,P28,60.0244297577,02,B,2015_Aug_04_1423,Y,
stim/negf.jpg,stim/posf.jpg,stim/3.jpg,stim/5.jpg,stim/latef.jpg,CD,2,4,0,38,38,38,,,,,,,,,,,,,,,,,,4,1,0.749751965203,,,,,,PLC_L_D2S1,P28,60.0244297577,02,B,2015_Aug_04_1423,Y,
stim/posf.jpg,stim/negf.jpg,stim/2.jpg,stim/1.jpg,stim/latef.jpg,AB,1,2,0,39,39,5,,,,,,,,,,,,,,,,,,2,1,0.649787706154,,,,,,PLC_L_D2S1,P28,60.0244297577,02,B,2015_Aug_04_1423,Y,
stim/posf.jpg,stim/negf.jpg,stim/1.jpg,stim/2.jpg,stim/latef.jpg,AB,2,4,0,40,40,10,,,,,,,,,,,,,,,,,,4,1,0.633136949583,,,,,,PLC_L_D2S1,P28,60.0244297577,02,B,2015_Aug_04_1423,Y,
stim/negf.jpg,stim/posf.jpg,stim/5.jpg,stim/3.jpg,stim/latef.jpg,CD,1,2,0,41,41,28,,,,,,,,,,,,,,,,,,4,0,1.04963623719,,,,,,PLC_L_D2S1,P28,60.0244297577,02,B,2015_Aug_04_1423,Y,
stim/posf.jpg,stim/negf.jpg,stim/1.jpg,stim/2.jpg,stim/latef.jpg,AB,2,4,0,42,42,17,,,,,,,,,,,,,,,,,,4,1,0.666441629606,,,,,,PLC_L_D2S1,P28,60.0244297577,02,B,2015_Aug_04_1423,Y,
stim/posf.jpg,stim/negf.jpg,stim/3.jpg,stim/5.jpg,stim/latef.jpg,CD,2,4,0,43,43,34,,,,,,,,,,,,,,,,,,4,1,0.783076539738,,,,,,PLC_L_D2S1,P28,60.0244297577,02,B,2015_Aug_04_1423,Y,
stim/posf.jpg,stim/negf.jpg,stim/6.jpg,stim/4.jpg,stim/latef.jpg,EF,1,2,0,44,44,40,,,,,,,,,,,,,,,,,,2,1,0.566475036748,,,,,,PLC_L_D2S1,P28,60.0244297577,02,B,2015_Aug_04_1423,Y,
stim/negf.jpg,stim/posf.jpg,stim/6.jpg,stim/4.jpg,stim/latef.jpg,EF,1,2,0,45,45,46,,,,,,,,,,,,,,,,,,2,1,0.566469376661,,,,,,PLC_L_D2S1,P28,60.0244297577,02,B,2015_Aug_04_1423,Y,
stim/posf.jpg,stim/negf.jpg,stim/2.jpg,stim/1.jpg,stim/latef.jpg,AB,1,2,0,46,46,2,,,,,,,,,,,,,,,,,,2,1,0.683112307756,,,,,,PLC_L_D2S1,P28,60.0244297577,02,B,2015_Aug_04_1423,Y,
stim/posf.jpg,stim/negf.jpg,stim/5.jpg,stim/3.jpg,stim/latef.jpg,CD,1,2,0,47,47,21,,,,,,,,,,,,,,,,,,2,1,0.899626987665,,,,,,PLC_L_D2S1,P28,60.0244297577,02,B,2015_Aug_04_1423,Y,
stim/posf.jpg,stim/negf.jpg,stim/5.jpg,stim/3.jpg,stim/latef.jpg,CD,1,2,0,48,48,20,,,,,,,,,,,,,,,,,,2,1,0.749791080552,,,,,,PLC_L_D2S1,P28,60.0244297577,02,B,2015_Aug_04_1423,Y,
stim/posf.jpg,stim/negf.jpg,stim/2.jpg,stim/1.jpg,stim/latef.jpg,AB,1,2,0,49,49,3,,,,,,,,,,,,,,,,,,2,1,0.566448877644,,,,,,PLC_L_D2S1,P28,60.0244297577,02,B,2015_Aug_04_1423,Y,
stim/posf.jpg,stim/negf.jpg,stim/4.jpg,stim/6.jpg,stim/latef.jpg,EF,2,4,0,50,50,55,,,,,,,,,,,,,,,,,,4,1,0.583115886663,,,,,,PLC_L_D2S1,P28,60.0244297577,02,B,2015_Aug_04_1423,Y,
stim/posf.jpg,stim/negf.jpg,stim/4.jpg,stim/6.jpg,stim/latef.jpg,EF,2,4,0,51,51,52,,,,,,,,,,,,,,,,,,4,1,0.633128029383,,,,,,PLC_L_D2S1,P28,60.0244297577,02,B,2015_Aug_04_1423,Y,
stim/posf.jpg,stim/negf.jpg,stim/3.jpg,stim/5.jpg,stim/latef.jpg,CD,2,4,0,52,52,33,,,,,,,,,,,,,,,,,,4,1,0.816374985245,,,,,,PLC_L_D2S1,P28,60.0244297577,02,B,2015_Aug_04_1423,Y,
stim/posf.jpg,stim/negf.jpg,stim/3.jpg,stim/5.jpg,stim/latef.jpg,CD,2,4,0,53,53,31,,,,,,,,,,,,,,,,,,4,1,0.766409969812,,,,,,PLC_L_D2S1,P28,60.0244297577,02,B,2015_Aug_04_1423,Y,
stim/negf.jpg,stim/posf.jpg,stim/6.jpg,stim/4.jpg,stim/latef.jpg,EF,1,2,0,54,54,47,,,,,,,,,,,,,,,,,,2,1,0.516432900381,,,,,,PLC_L_D2S1,P28,60.0244297577,02,B,2015_Aug_04_1423,Y,
stim/negf.jpg,stim/posf.jpg,stim/3.jpg,stim/5.jpg,stim/latef.jpg,CD,2,4,0,55,55,39,,,,,,,,,,,,,,,,,,4,1,0.666434104878,,,,,,PLC_L_D2S1,P28,60.0244297577,02,B,2015_Aug_04_1423,Y,
stim/negf.jpg,stim/posf.jpg,stim/5.jpg,stim/3.jpg,stim/latef.jpg,CD,1,2,0,56,56,29,,,,,,,,,,,,,,,,,,2,1,0.966332000767,,,,,,PLC_L_D2S1,P28,60.0244297577,02,B,2015_Aug_04_1423,Y,
stim/negf.jpg,stim/posf.jpg,stim/1.jpg,stim/2.jpg,stim/latef.jpg,AB,2,4,0,57,57,18,,,,,,,,,,,,,,,,,,4,1,0.966324406867,,,,,,PLC_L_D2S1,P28,60.0244297577,02,B,2015_Aug_04_1423,Y,
stim/posf.jpg,stim/negf.jpg,stim/2.jpg,stim/1.jpg,stim/latef.jpg,AB,1,2,0,58,58,7,,,,,,,,,,,,,,,,,,2,1,0.533158922268,,,,,,PLC_L_D2S1,P28,60.0244297577,02,B,2015_Aug_04_1423,Y,
stim/posf.jpg,stim/negf.jpg,stim/5.jpg,stim/3.jpg,stim/latef.jpg,CD,1,2,0,59,59,22,,,,,,,,,,,,,,,,,,2,1,0.666463851911,,,,,,PLC_L_D2S1,P28,60.0244297577,02,B,2015_Aug_04_1423,Y,
,,,,,,,,,,,,,,,,,,,,,,,,,,,,,,,,0.9984375,1.0,1,0,0,PLC_L_D2S1,P28,60.0244297577,02,B,2015_Aug_04_1423,Y,
stim/negf.jpg,stim/posf.jpg,stim/4.jpg,stim/6.jpg,stim/latef.jpg,EF,2,4,,,,,0,0,0,59,,,,,,,,,,,,,,4,1,0.699761274873,,,,,,PLC_L_D2S1,P28,60.0244297577,02,B,2015_Aug_04_1423,Y,
stim/posf.jpg,stim/negf.jpg,stim/2.jpg,stim/1.jpg,stim/latef.jpg,AB,1,2,,,,,0,1,1,5,,,,,,,,,,,,,,2,1,0.549828352312,,,,,,PLC_L_D2S1,P28,60.0244297577,02,B,2015_Aug_04_1423,Y,
stim/posf.jpg,stim/negf.jpg,stim/2.jpg,stim/1.jpg,stim/latef.jpg,AB,1,2,,,,,0,2,2,7,,,,,,,,,,,,,,2,1,0.749733493231,,,,,,PLC_L_D2S1,P28,60.0244297577,02,B,2015_Aug_04_1423,Y,
stim/posf.jpg,stim/negf.jpg,stim/4.jpg,stim/6.jpg,stim/latef.jpg,EF,2,4,,,,,0,3,3,54,,,,,,,,,,,,,,4,1,0.799679305872,,,,,,PLC_L_D2S1,P28,60.0244297577,02,B,2015_Aug_04_1423,Y,
stim/posf.jpg,stim/negf.jpg,stim/6.jpg,stim/4.jpg,stim/latef.jpg,EF,1,2,,,,,0,4,4,41,,,,,,,,,,,,,,2,1,0.566486414063,,,,,,PLC_L_D2S1,P28,60.0244297577,02,B,2015_Aug_04_1423,Y,
stim/posf.jpg,stim/negf.jpg,stim/4.jpg,stim/6.jpg,stim/latef.jpg,EF,2,4,,,,,0,5,5,52,,,,,,,,,,,,,,4,1,0.499812567527,,,,,,PLC_L_D2S1,P28,60.0244297577,02,B,2015_Aug_04_1423,Y,
stim/negf.jpg,stim/posf.jpg,stim/6.jpg,stim/4.jpg,stim/latef.jpg,EF,1,2,,,,,0,6,6,49,,,,,,,,,,,,,,2,1,0.383195476743,,,,,,PLC_L_D2S1,P28,60.0244297577,02,B,2015_Aug_04_1423,Y,
stim/posf.jpg,stim/negf.jpg,stim/5.jpg,stim/3.jpg,stim/latef.jpg,CD,1,2,,,,,0,7,7,26,,,,,,,,,,,,,,2,1,0.833036695075,,,,,,PLC_L_D2S1,P28,60.0244297577,02,B,2015_Aug_04_1423,Y,
stim/negf.jpg,stim/posf.jpg,stim/4.jpg,stim/6.jpg,stim/latef.jpg,EF,2,4,,,,,0,8,8,56,,,,,,,,,,,,,,4,1,0.516504920621,,,,,,PLC_L_D2S1,P28,60.0244297577,02,B,2015_Aug_04_1423,Y,
stim/posf.jpg,stim/negf.jpg,stim/4.jpg,stim/6.jpg,stim/latef.jpg,EF,2,4,,,,,0,9,9,50,,,,,,,,,,,,,,4,1,0.533207836002,,,,,,PLC_L_D2S1,P28,60.0244297577,02,B,2015_Aug_04_1423,Y,
stim/posf.jpg,stim/negf.jpg,stim/5.jpg,stim/3.jpg,stim/latef.jpg,CD,1,2,,,,,0,10,10,25,,,,,,,,,,,,,,2,1,0.599791400849,,,,,,PLC_L_D2S1,P28,60.0244297577,02,B,2015_Aug_04_1423,Y,
stim/posf.jpg,stim/negf.jpg,stim/1.jpg,stim/2.jpg,stim/latef.jpg,AB,2,4,,,,,0,11,11,10,,,,,,,,,,,,,,2,0,0.616414828404,,,,,,PLC_L_D2S1,P28,60.0244297577,02,B,2015_Aug_04_1423,Y,
stim/negf.jpg,stim/posf.jpg,stim/6.jpg,stim/4.jpg,stim/latef.jpg,EF,1,2,,,,,0,12,12,48,,,,,,,,,,,,,,2,1,0.533155015545,,,,,,PLC_L_D2S1,P28,60.0244297577,02,B,2015_Aug_04_1423,Y,
stim/posf.jpg,stim/negf.jpg,stim/1.jpg,stim/2.jpg,stim/latef.jpg,AB,2,4,,,,,0,13,13,15,,,,,,,,,,,,,,4,1,0.649789450495,,,,,,PLC_L_D2S1,P28,60.0244297577,02,B,2015_Aug_04_1423,Y,
stim/posf.jpg,stim/negf.jpg,stim/1.jpg,stim/2.jpg,stim/latef.jpg,AB,2,4,,,,,0,14,14,12,,,,,,,,,,,,,,4,1,0.749776361921,,,,,,PLC_L_D2S1,P28,60.0244297577,02,B,2015_Aug_04_1423,Y,
stim/posf.jpg,stim/negf.jpg,stim/5.jpg,stim/3.jpg,stim/latef.jpg,CD,1,2,,,,,0,15,15,21,,,,,,,,,,,,,,2,1,0.699765783093,,,,,,PLC_L_D2S1,P28,60.0244297577,02,B,2015_Aug_04_1423,Y,
stim/negf.jpg,stim/posf.jpg,stim/3.jpg,stim/5.jpg,stim/latef.jpg,CD,2,4,,,,,0,16,16,39,,,,,,,,,,,,,,4,1,0.599783692665,,,,,,PLC_L_D2S1,P28,60.0244297577,02,B,2015_Aug_04_1423,Y,
stim/posf.jpg,stim/negf.jpg,stim/2.jpg,stim/1.jpg,stim/latef.jpg,AB,1,2,,,,,0,17,17,4,,,,,,,,,,,,,,2,1,0.666411169799,,,,,,PLC_L_D2S1,P28,60.0244297577,02,B,2015_Aug_04_1423,Y,
stim/posf.jpg,stim/negf.jpg,stim/3.jpg,stim/5.jpg,stim/latef.jpg,CD,2,4,,,,,0,18,18,30,,,,,,,,,,,,,,4,1,0.89963347481,,,,,,PLC_L_D2S1,P28,60.0244297577,02,B,2015_Aug_04_1423,Y,
stim/posf.jpg,stim/negf.jpg,stim/6.jpg,stim/4.jpg,stim/latef.jpg,EF,1,2,,,,,0,19,19,45,,,,,,,,,,,,,,2,1,0.51648764262,,,,,,PLC_L_D2S1,P28,60.0244297577,02,B,2015_Aug_04_1423,Y,
stim/posf.jpg,stim/negf.jpg,stim/5.jpg,stim/3.jpg,stim/latef.jpg,CD,1,2,,,,,0,20,20,23,,,,,,,,,,,,,,2,1,0.899665630839,,,,,,PLC_L_D2S1,P28,60.0244297577,02,B,2015_Aug_04_1423,Y,
stim/posf.jpg,stim/negf.jpg,stim/3.jpg,stim/5.jpg,stim/latef.jpg,CD,2,4,,,,,0,21,21,31,,,,,,,,,,,,,,4,1,0.66649242001,,,,,,PLC_L_D2S1,P28,60.0244297577,02,B,2015_Aug_04_1423,Y,
stim/negf.jpg,stim/posf.jpg,stim/2.jpg,stim/1.jpg,stim/latef.jpg,AB,1,2,,,,,0,22,22,8,,,,,,,,,,,,,,2,1,0.583238619113,,,,,,PLC_L_D2S1,P28,60.0244297577,02,B,2015_Aug_04_1423,Y,
stim/posf.jpg,stim/negf.jpg,stim/3.jpg,stim/5.jpg,stim/latef.jpg,CD,2,4,,,,,0,23,23,35,,,,,,,,,,,,,,4,1,0.649802295463,,,,,,PLC_L_D2S1,P28,60.0244297577,02,B,2015_Aug_04_1423,Y,
stim/posf.jpg,stim/negf.jpg,stim/5.jpg,stim/3.jpg,stim/latef.jpg,CD,1,2,,,,,0,24,24,20,,,,,,,,,,,,,,2,1,0.533162597414,,,,,,PLC_L_D2S1,P28,60.0244297577,02,B,2015_Aug_04_1423,Y,
stim/negf.jpg,stim/posf.jpg,stim/1.jpg,stim/2.jpg,stim/latef.jpg,AB,2,4,,,,,0,25,25,19,,,,,,,,,,,,,,4,1,0.699741750281,,,,,,PLC_L_D2S1,P28,60.0244297577,02,B,2015_Aug_04_1423,Y,
stim/posf.jpg,stim/negf.jpg,stim/4.jpg,stim/6.jpg,stim/latef.jpg,EF,2,4,,,,,0,26,26,55,,,,,,,,,,,,,,4,1,0.74980980816,,,,,,PLC_L_D2S1,P28,60.0244297577,02,B,2015_Aug_04_1423,Y,
stim/posf.jpg,stim/negf.jpg,stim/6.jpg,stim/4.jpg,stim/latef.jpg,EF,1,2,,,,,0,27,27,40,,,,,,,,,,,,,,2,1,0.46650095826,,,,,,PLC_L_D2S1,P28,60.0244297577,02,B,2015_Aug_04_1423,Y,
stim/negf.jpg,stim/posf.jpg,stim/4.jpg,stim/6.jpg,stim/latef.jpg,EF,2,4,,,,,0,28,28,57,,,,,,,,,,,,,,4,1,0.533123566275,,,,,,PLC_L_D2S1,P28,60.0244297577,02,B,2015_Aug_04_1423,Y,
stim/posf.jpg,stim/negf.jpg,stim/2.jpg,stim/1.jpg,stim/latef.jpg,AB,1,2,,,,,0,29,29,6,,,,,,,,,,,,,,2,1,0.616452094149,,,,,,PLC_L_D2S1,P28,60.0244297577,02,B,2015_Aug_04_1423,Y,
stim/negf.jpg,stim/posf.jpg,stim/3.jpg,stim/5.jpg,stim/latef.jpg,CD,2,4,,,,,0,30,30,38,,,,,,,,,,,,,,4,1,0.666456916651,,,,,,PLC_L_D2S1,P28,60.0244297577,02,B,2015_Aug_04_1423,Y,
stim/posf.jpg,stim/negf.jpg,stim/6.jpg,stim/4.jpg,stim/latef.jpg,EF,1,2,,,,,0,31,31,44,,,,,,,,,,,,,,2,1,0.466506070984,,,,,,PLC_L_D2S1,P28,60.0244297577,02,B,2015_Aug_04_1423,Y,
stim/posf.jpg,stim/negf.jpg,stim/6.jpg,stim/4.jpg,stim/latef.jpg,EF,1,2,,,,,0,32,32,43,,,,,,,,,,,,,,2,1,0.516495317722,,,,,,PLC_L_D2S1,P28,60.0244297577,02,B,2015_Aug_04_1423,Y,
stim/posf.jpg,stim/negf.jpg,stim/3.jpg,stim/5.jpg,stim/latef.jpg,CD,2,4,,,,,0,33,33,32,,,,,,,,,,,,,,4,1,0.599793334662,,,,,,PLC_L_D2S1,P28,60.0244297577,02,B,2015_Aug_04_1423,Y,
stim/posf.jpg,stim/negf.jpg,stim/6.jpg,stim/4.jpg,stim/latef.jpg,EF,1,2,,,,,0,34,34,42,,,,,,,,,,,,,,2,1,0.51654399988,,,,,,PLC_L_D2S1,P28,60.0244297577,02,B,2015_Aug_04_1423,Y,
stim/negf.jpg,stim/posf.jpg,stim/6.jpg,stim/4.jpg,stim/latef.jpg,EF,1,2,,,,,0,35,35,46,,,,,,,,,,,,,,2,1,0.433185105431,,,,,,PLC_L_D2S1,P28,60.0244297577,02,B,2015_Aug_04_1423,Y,
stim/negf.jpg,stim/posf.jpg,stim/3.jpg,stim/5.jpg,stim/latef.jpg,CD,2,4,,,,,0,36,36,37,,,,,,,,,,,,,,4,1,0.583189350496,,,,,,PLC_L_D2S1,P28,60.0244297577,02,B,2015_Aug_04_1423,Y,
stim/negf.jpg,stim/posf.jpg,stim/5.jpg,stim/3.jpg,stim/latef.jpg,CD,1,2,,,,,0,37,37,28,,,,,,,,,,,,,,2,1,0.699768125923,,,,,,PLC_L_D2S1,P28,60.0244297577,02,B,2015_Aug_04_1423,Y,
stim/posf.jpg,stim/negf.jpg,stim/4.jpg,stim/6.jpg,stim/latef.jpg,EF,2,4,,,,,0,38,38,51,,,,,,,,,,,,,,4,1,0.516504301079,,,,,,PLC_L_D2S1,P28,60.0244297577,02,B,2015_Aug_04_1423,Y,
stim/posf.jpg,stim/negf.jpg,stim/1.jpg,stim/2.jpg,stim/latef.jpg,AB,2,4,,,,,0,39,39,13,,,,,,,,,,,,,,4,1,0.866385425728,,,,,,PLC_L_D2S1,P28,60.0244297577,02,B,2015_Aug_04_1423,Y,
stim/posf.jpg,stim/negf.jpg,stim/2.jpg,stim/1.jpg,stim/latef.jpg,AB,1,2,,,,,0,40,40,2,,,,,,,,,,,,,,2,1,0.483158433551,,,,,,PLC_L_D2S1,P28,60.0244297577,02,B,2015_Aug_04_1423,Y,
stim/posf.jpg,stim/negf.jpg,stim/5.jpg,stim/3.jpg,stim/latef.jpg,CD,1,2,,,,,0,41,41,24,,,,,,,,,,,,,,2,1,0.716429682372,,,,,,PLC_L_D2S1,P28,60.0244297577,02,B,2015_Aug_04_1423,Y,
stim/posf.jpg,stim/negf.jpg,stim/1.jpg,stim/2.jpg,stim/latef.jpg,AB,2,4,,,,,0,42,42,11,,,,,,,,,,,,,,4,1,0.599807208189,,,,,,PLC_L_D2S1,P28,60.0244297577,02,B,2015_Aug_04_1423,Y,
stim/negf.jpg,stim/posf.jpg,stim/4.jpg,stim/6.jpg,stim/latef.jpg,EF,2,4,,,,,0,43,43,58,,,,,,,,,,,,,,4,1,0.716430969575,,,,,,PLC_L_D2S1,P28,60.0244297577,02,B,2015_Aug_04_1423,Y,
stim/posf.jpg,stim/negf.jpg,stim/3.jpg,stim/5.jpg,stim/latef.jpg,CD,2,4,,,,,0,44,44,34,,,,,,,,,,,,,,4,1,0.566558368139,,,,,,PLC_L_D2S1,P28,60.0244297577,02,B,2015_Aug_04_1423,Y,
stim/posf.jpg,stim/negf.jpg,stim/1.jpg,stim/2.jpg,stim/latef.jpg,AB,2,4,,,,,0,45,45,17,,,,,,,,,,,,,,4,1,0.666489087717,,,,,,PLC_L_D2S1,P28,60.0244297577,02,B,2015_Aug_04_1423,Y,
stim/negf.jpg,stim/posf.jpg,stim/5.jpg,stim/3.jpg,stim/latef.jpg,CD,1,2,,,,,0,46,46,27,,,,,,,,,,,,,,2,1,0.866335242835,,,,,,PLC_L_D2S1,P28,60.0244297577,02,B,2015_Aug_04_1423,Y,
stim/negf.jpg,stim/posf.jpg,stim/6.jpg,stim/4.jpg,stim/latef.jpg,EF,1,2,,,,,0,47,47,47,,,,,,,,,,,,,,2,1,0.566473569095,,,,,,PLC_L_D2S1,P28,60.0244297577,02,B,2015_Aug_04_1423,Y,
stim/posf.jpg,stim/negf.jpg,stim/1.jpg,stim/2.jpg,stim/latef.jpg,AB,2,4,,,,,0,48,48,16,,,,,,,,,,,,,,4,1,0.783075180355,,,,,,PLC_L_D2S1,P28,60.0244297577,02,B,2015_Aug_04_1423,Y,
stim/posf.jpg,stim/negf.jpg,stim/1.jpg,stim/2.jpg,stim/latef.jpg,AB,2,4,,,,,0,49,49,14,,,,,,,,,,,,,,4,1,0.699759563614,,,,,,PLC_L_D2S1,P28,60.0244297577,02,B,2015_Aug_04_1423,Y,
stim/negf.jpg,stim/posf.jpg,stim/1.jpg,stim/2.jpg,stim/latef.jpg,AB,2,4,,,,,0,50,50,18,,,,,,,,,,,,,,4,1,0.583190779051,,,,,,PLC_L_D2S1,P28,60.0244297577,02,B,2015_Aug_04_1423,Y,
stim/posf.jpg,stim/negf.jpg,stim/3.jpg,stim/5.jpg,stim/latef.jpg,CD,2,4,,,,,0,51,51,36,,,,,,,,,,,,,,4,1,0.616451742274,,,,,,PLC_L_D2S1,P28,60.0244297577,02,B,2015_Aug_04_1423,Y,
stim/posf.jpg,stim/negf.jpg,stim/5.jpg,stim/3.jpg,stim/latef.jpg,CD,1,2,,,,,0,52,52,22,,,,,,,,,,,,,,2,1,0.549809212678,,,,,,PLC_L_D2S1,P28,60.0244297577,02,B,2015_Aug_04_1423,Y,
stim/posf.jpg,stim/negf.jpg,stim/2.jpg,stim/1.jpg,stim/latef.jpg,AB,1,2,,,,,0,53,53,1,,,,,,,,,,,,,,2,1,0.583149781017,,,,,,PLC_L_D2S1,P28,60.0244297577,02,B,2015_Aug_04_1423,Y,
stim/posf.jpg,stim/negf.jpg,stim/2.jpg,stim/1.jpg,stim/latef.jpg,AB,1,2,,,,,0,54,54,3,,,,,,,,,,,,,,2,1,0.54980726082,,,,,,PLC_L_D2S1,P28,60.0244297577,02,B,2015_Aug_04_1423,Y,
stim/posf.jpg,stim/negf.jpg,stim/2.jpg,stim/1.jpg,stim/latef.jpg,AB,1,2,,,,,0,55,55,0,,,,,,,,,,,,,,2,1,0.433194275253,,,,,,PLC_L_D2S1,P28,60.0244297577,02,B,2015_Aug_04_1423,Y,
stim/posf.jpg,stim/negf.jpg,stim/4.jpg,stim/6.jpg,stim/latef.jpg,EF,2,4,,,,,0,56,56,53,,,,,,,,,,,,,,4,1,0.533166588347,,,,,,PLC_L_D2S1,P28,60.0244297577,02,B,2015_Aug_04_1423,Y,
stim/negf.jpg,stim/posf.jpg,stim/2.jpg,stim/1.jpg,stim/latef.jpg,AB,1,2,,,,,0,57,57,9,,,,,,,,,,,,,,2,1,0.549790836945,,,,,,PLC_L_D2S1,P28,60.0244297577,02,B,2015_Aug_04_1423,Y,
stim/posf.jpg,stim/negf.jpg,stim/3.jpg,stim/5.jpg,stim/latef.jpg,CD,2,4,,,,,0,58,58,33,,,,,,,,,,,,,,4,1,0.633148976515,,,,,,PLC_L_D2S1,P28,60.0244297577,02,B,2015_Aug_04_1423,Y,
stim/negf.jpg,stim/posf.jpg,stim/5.jpg,stim/3.jpg,stim/latef.jpg,CD,1,2,,,,,0,59,59,29,,,,,,,,,,,,,,2,1,0.483143567554,,,,,,PLC_L_D2S1,P28,60.0244297577,02,B,2015_Aug_04_1423,Y,
,,,,,,,,,,,,,,,,,,,,,,,,,,,,,,,,0.9984375,1.0,1,0,0,PLC_L_D2S1,P28,60.0244297577,02,B,2015_Aug_04_1423,Y,
stim/posf.jpg,stim/negf.jpg,stim/2.jpg,stim/1.jpg,stim/latef.jpg,AB,1,2,,,,,,,,,0,0,0,3,,,,,,,,,,2,1,0.81639617899,,,,,,PLC_L_D2S1,P28,60.0244297577,02,B,2015_Aug_04_1423,Y,
stim/posf.jpg,stim/negf.jpg,stim/2.jpg,stim/1.jpg,stim/latef.jpg,AB,1,2,,,,,,,,,0,1,1,5,,,,,,,,,,2,1,0.549826421506,,,,,,PLC_L_D2S1,P28,60.0244297577,02,B,2015_Aug_04_1423,Y,
stim/posf.jpg,stim/negf.jpg,stim/1.jpg,stim/2.jpg,stim/latef.jpg,AB,2,4,,,,,,,,,0,2,2,14,,,,,,,,,,4,1,0.649787525705,,,,,,PLC_L_D2S1,P28,60.0244297577,02,B,2015_Aug_04_1423,Y,
stim/negf.jpg,stim/posf.jpg,stim/1.jpg,stim/2.jpg,stim/latef.jpg,AB,2,4,,,,,,,,,0,3,3,18,,,,,,,,,,4,1,0.516474166081,,,,,,PLC_L_D2S1,P28,60.0244297577,02,B,2015_Aug_04_1423,Y,
stim/posf.jpg,stim/negf.jpg,stim/6.jpg,stim/4.jpg,stim/latef.jpg,EF,1,2,,,,,,,,,0,4,4,40,,,,,,,,,,2,1,0.599797683485,,,,,,PLC_L_D2S1,P28,60.0244297577,02,B,2015_Aug_04_1423,Y,
stim/posf.jpg,stim/negf.jpg,stim/3.jpg,stim/5.jpg,stim/latef.jpg,CD,2,4,,,,,,,,,0,5,5,33,,,,,,,,,,4,1,0.533146741954,,,,,,PLC_L_D2S1,P28,60.0244297577,02,B,2015_Aug_04_1423,Y,
stim/posf.jpg,stim/negf.jpg,stim/6.jpg,stim/4.jpg,stim/latef.jpg,EF,1,2,,,,,,,,,0,6,6,42,,,,,,,,,,2,1,0.616524321906,,,,,,PLC_L_D2S1,P28,60.0244297577,02,B,2015_Aug_04_1423,Y,
stim/posf.jpg,stim/negf.jpg,stim/5.jpg,stim/3.jpg,stim/latef.jpg,CD,1,2,,,,,,,,,0,7,7,22,,,,,,,,,,2,1,0.833054264802,,,,,,PLC_L_D2S1,P28,60.0244297577,02,B,2015_Aug_04_1423,Y,
stim/posf.jpg,stim/negf.jpg,stim/6.jpg,stim/4.jpg,stim/latef.jpg,EF,1,2,,,,,,,,,0,8,8,45,,,,,,,,,,2,1,0.516469471397,,,,,,PLC_L_D2S1,P28,60.0244297577,02,B,2015_Aug_04_1423,Y,
stim/posf.jpg,stim/negf.jpg,stim/5.jpg,stim/3.jpg,stim/latef.jpg,CD,1,2,,,,,,,,,0,9,9,26,,,,,,,,,,2,1,0.566482254711,,,,,,PLC_L_D2S1,P28,60.0244297577,02,B,2015_Aug_04_1423,Y,
stim/posf.jpg,stim/negf.jpg,stim/6.jpg,stim/4.jpg,stim/latef.jpg,EF,1,2,,,,,,,,,0,10,10,43,,,,,,,,,,2,1,0.649799071439,,,,,,PLC_L_D2S1,P28,60.0244297577,02,B,2015_Aug_04_1423,Y,
stim/posf.jpg,stim/negf.jpg,stim/3.jpg,stim/5.jpg,stim/latef.jpg,CD,2,4,,,,,,,,,0,11,11,35,,,,,,,,,,4,1,0.516480147968,,,,,,PLC_L_D2S1,P28,60.0244297577,02,B,2015_Aug_04_1423,Y,
stim/posf.jpg,stim/negf.jpg,stim/3.jpg,stim/5.jpg,stim/latef.jpg,CD,2,4,,,,,,,,,0,12,12,34,,,,,,,,,,4,1,0.599796579738,,,,,,PLC_L_D2S1,P28,60.0244297577,02,B,2015_Aug_04_1423,Y,
stim/posf.jpg,stim/negf.jpg,stim/5.jpg,stim/3.jpg,stim/latef.jpg,CD,1,2,,,,,,,,,0,13,13,25,,,,,,,,,,2,1,0.633139581133,,,,,,PLC_L_D2S1,P28,60.0244297577,02,B,2015_Aug_04_1423,Y,
stim/negf.jpg,stim/posf.jpg,stim/3.jpg,stim/5.jpg,stim/latef.jpg,CD,2,4,,,,,,,,,0,14,14,39,,,,,,,,,,4,1,0.549763357556,,,,,,PLC_L_D2S1,P28,60.0244297577,02,B,2015_Aug_04_1423,Y,
stim/posf.jpg,stim/negf.jpg,stim/4.jpg,stim/6.jpg,stim/latef.jpg,EF,2,4,,,,,,,,,0,15,15,55,,,,,,,,,,4,1,0.433169604854,,,,,,PLC_L_D2S1,P28,60.0244297577,02,B,2015_Aug_04_1423,Y,
stim/posf.jpg,stim/negf.jpg,stim/1.jpg,stim/2.jpg,stim/latef.jpg,AB,2,4,,,,,,,,,0,16,16,16,,,,,,,,,,4,1,0.549833314662,,,,,,PLC_L_D2S1,P28,60.0244297577,02,B,2015_Aug_04_1423,Y,
stim/negf.jpg,stim/posf.jpg,stim/3.jpg,stim/5.jpg,stim/latef.jpg,CD,2,4,,,,,,,,,0,17,17,38,,,,,,,,,,4,1,0.566525977526,,,,,,PLC_L_D2S1,P28,60.0244297577,02,B,2015_Aug_04_1423,Y,
stim/posf.jpg,stim/negf.jpg,stim/2.jpg,stim/1.jpg,stim/latef.jpg,AB,1,2,,,,,,,,,0,18,18,4,,,,,,,,,,2,1,0.483167789837,,,,,,PLC_L_D2S1,P28,60.0244297577,02,B,2015_Aug_04_1423,Y,
stim/posf.jpg,stim/negf.jpg,stim/5.jpg,stim/3.jpg,stim/latef.jpg,CD,1,2,,,,,,,,,0,19,19,24,,,,,,,,,,2,1,0.483142812675,,,,,,PLC_L_D2S1,P28,60.0244297577,02,B,2015_Aug_04_1423,Y,
stim/negf.jpg,stim/posf.jpg,stim/5.jpg,stim/3.jpg,stim/latef.jpg,CD,1,2,,,,,,,,,0,20,20,29,,,,,,,,,,2,1,0.499815229152,,,,,,PLC_L_D2S1,P28,60.0244297577,02,B,2015_Aug_04_1423,Y,
stim/negf.jpg,stim/posf.jpg,stim/4.jpg,stim/6.jpg,stim/latef.jpg,EF,2,4,,,,,,,,,0,21,21,59,,,,,,,,,,4,1,0.599824720774,,,,,,PLC_L_D2S1,P28,60.0244297577,02,B,2015_Aug_04_1423,Y,
stim/negf.jpg,stim/posf.jpg,stim/4.jpg,stim/6.jpg,stim/latef.jpg,EF,2,4,,,,,,,,,0,22,22,57,,,,,,,,,,4,1,0.583118238516,,,,,,PLC_L_D2S1,P28,60.0244297577,02,B,2015_Aug_04_1423,Y,
stim/posf.jpg,stim/negf.jpg,stim/2.jpg,stim/1.jpg,stim/latef.jpg,AB,1,2,,,,,,,,,0,23,23,6,,,,,,,,,,2,1,0.599798528588,,,,,,PLC_L_D2S1,P28,60.0244297577,02,B,2015_Aug_04_1423,Y,
stim/posf.jpg,stim/negf.jpg,stim/1.jpg,stim/2.jpg,stim/latef.jpg,AB,2,4,,,,,,,,,0,24,24,13,,,,,,,,,,4,1,0.849732329335,,,,,,PLC_L_D2S1,P28,60.0244297577,02,B,2015_Aug_04_1423,Y,
stim/negf.jpg,stim/posf.jpg,stim/5.jpg,stim/3.jpg,stim/latef.jpg,CD,1,2,,,,,,,,,0,25,25,27,,,,,,,,,,2,1,0.633116492671,,,,,,PLC_L_D2S1,P28,60.0244297577,02,B,2015_Aug_04_1423,Y,
stim/posf.jpg,stim/negf.jpg,stim/3.jpg,stim/5.jpg,stim/latef.jpg,CD,2,4,,,,,,,,,0,26,26,32,,,,,,,,,,4,1,0.583040236388,,,,,,PLC_L_D2S1,P28,60.0244297577,02,B,2015_Aug_04_1423,Y,
stim/posf.jpg,stim/negf.jpg,stim/6.jpg,stim/4.jpg,stim/latef.jpg,EF,1,2,,,,,,,,,0,27,27,41,,,,,,,,,,2,1,0.816356230569,,,,,,PLC_L_D2S1,P28,60.0244297577,02,B,2015_Aug_04_1423,Y,
stim/posf.jpg,stim/negf.jpg,stim/3.jpg,stim/5.jpg,stim/latef.jpg,CD,2,4,,,,,,,,,0,28,28,36,,,,,,,,,,4,1,0.649781793438,,,,,,PLC_L_D2S1,P28,60.0244297577,02,B,2015_Aug_04_1423,Y,
stim/posf.jpg,stim/negf.jpg,stim/4.jpg,stim/6.jpg,stim/latef.jpg,EF,2,4,,,,,,,,,0,29,29,54,,,,,,,,,,4,1,0.599834543219,,,,,,PLC_L_D2S1,P28,60.0244297577,02,B,2015_Aug_04_1423,Y,
stim/negf.jpg,stim/posf.jpg,stim/4.jpg,stim/6.jpg,stim/latef.jpg,EF,2,4,,,,,,,,,0,30,30,58,,,,,,,,,,4,1,0.683121146754,,,,,,PLC_L_D2S1,P28,60.0244297577,02,B,2015_Aug_04_1423,Y,
stim/negf.jpg,stim/posf.jpg,stim/2.jpg,stim/1.jpg,stim/latef.jpg,AB,1,2,,,,,,,,,0,31,31,9,,,,,,,,,,2,1,0.783074004428,,,,,,PLC_L_D2S1,P28,60.0244297577,02,B,2015_Aug_04_1423,Y,
stim/negf.jpg,stim/posf.jpg,stim/6.jpg,stim/4.jpg,stim/latef.jpg,EF,1,2,,,,,,,,,0,32,32,49,,,,,,,,,,2,1,0.533160254584,,,,,,PLC_L_D2S1,P28,60.0244297577,02,B,2015_Aug_04_1423,Y,
stim/negf.jpg,stim/posf.jpg,stim/2.jpg,stim/1.jpg,stim/latef.jpg,AB,1,2,,,,,,,,,0,33,33,8,,,,,,,,,,2,1,0.583129041402,,,,,,PLC_L_D2S1,P28,60.0244297577,02,B,2015_Aug_04_1423,Y,
stim/posf.jpg,stim/negf.jpg,stim/1.jpg,stim/2.jpg,stim/latef.jpg,AB,2,4,,,,,,,,,0,34,34,11,,,,,,,,,,4,1,0.649791543704,,,,,,PLC_L_D2S1,P28,60.0244297577,02,B,2015_Aug_04_1423,Y,
stim/negf.jpg,stim/posf.jpg,stim/3.jpg,stim/5.jpg,stim/latef.jpg,CD,2,4,,,,,,,,,0,35,35,37,,,,,,,,,,4,1,0.849723336955,,,,,,PLC_L_D2S1,P28,60.0244297577,02,B,2015_Aug_04_1423,Y,
stim/negf.jpg,stim/posf.jpg,stim/6.jpg,stim/4.jpg,stim/latef.jpg,EF,1,2,,,,,,,,,0,36,36,48,,,,,,,,,,2,1,0.516523488833,,,,,,PLC_L_D2S1,P28,60.0244297577,02,B,2015_Aug_04_1423,Y,
stim/posf.jpg,stim/negf.jpg,stim/5.jpg,stim/3.jpg,stim/latef.jpg,CD,1,2,,,,,,,,,0,37,37,23,,,,,,,,,,2,1,0.68308806442,,,,,,PLC_L_D2S1,P28,60.0244297577,02,B,2015_Aug_04_1423,Y,
stim/posf.jpg,stim/negf.jpg,stim/4.jpg,stim/6.jpg,stim/latef.jpg,EF,2,4,,,,,,,,,0,38,38,53,,,,,,,,,,4,1,0.599786122713,,,,,,PLC_L_D2S1,P28,60.0244297577,02,B,2015_Aug_04_1423,Y,
stim/posf.jpg,stim/negf.jpg,stim/5.jpg,stim/3.jpg,stim/latef.jpg,CD,1,2,,,,,,,,,0,39,39,21,,,,,,,,,,2,1,0.516499907144,,,,,,PLC_L_D2S1,P28,60.0244297577,02,B,2015_Aug_04_1423,Y,
stim/posf.jpg,stim/negf.jpg,stim/4.jpg,stim/6.jpg,stim/latef.jpg,EF,2,4,,,,,,,,,0,40,40,50,,,,,,,,,,4,1,0.516483038161,,,,,,PLC_L_D2S1,P28,60.0244297577,02,B,2015_Aug_04_1423,Y,
stim/posf.jpg,stim/negf.jpg,stim/3.jpg,stim/5.jpg,stim/latef.jpg,CD,2,4,,,,,,,,,0,41,41,31,,,,,,,,,,4,1,0.84971940918,,,,,,PLC_L_D2S1,P28,60.0244297577,02,B,2015_Aug_04_1423,Y,
stim/posf.jpg,stim/negf.jpg,stim/3.jpg,stim/5.jpg,stim/latef.jpg,CD,2,4,,,,,,,,,0,42,42,30,,,,,,,,,,4,1,0.716433724432,,,,,,PLC_L_D2S1,P28,60.0244297577,02,B,2015_Aug_04_1423,Y,
stim/posf.jpg,stim/negf.jpg,stim/6.jpg,stim/4.jpg,stim/latef.jpg,EF,1,2,,,,,,,,,0,43,43,44,,,,,,,,,,2,1,0.533192533919,,,,,,PLC_L_D2S1,P28,60.0244297577,02,B,2015_Aug_04_1423,Y,
stim/negf.jpg,stim/posf.jpg,stim/4.jpg,stim/6.jpg,stim/latef.jpg,EF,2,4,,,,,,,,,0,44,44,56,,,,,,,,,,4,1,0.499827541795,,,,,,PLC_L_D2S1,P28,60.0244297577,02,B,2015_Aug_04_1423,Y,
stim/posf.jpg,stim/negf.jpg,stim/4.jpg,stim/6.jpg,stim/latef.jpg,EF,2,4,,,,,,,,,0,45,45,52,,,,,,,,,,4,1,0.516524980545,,,,,,PLC_L_D2S1,P28,60.0244297577,02,B,2015_Aug_04_1423,Y,
stim/posf.jpg,stim/negf.jpg,stim/1.jpg,stim/2.jpg,stim/latef.jpg,AB,2,4,,,,,,,,,0,46,46,15,,,,,,,,,,4,1,0.76636070721,,,,,,PLC_L_D2S1,P28,60.0244297577,02,B,2015_Aug_04_1423,Y,
stim/negf.jpg,stim/posf.jpg,stim/6.jpg,stim/4.jpg,stim/latef.jpg,EF,1,2,,,,,,,,,0,47,47,47,,,,,,,,,,2,1,0.533129488013,,,,,,PLC_L_D2S1,P28,60.0244297577,02,B,2015_Aug_04_1423,Y,
stim/posf.jpg,stim/negf.jpg,stim/1.jpg,stim/2.jpg,stim/latef.jpg,AB,2,4,,,,,,,,,0,48,48,10,,,,,,,,,,4,1,0.716414142697,,,,,,PLC_L_D2S1,P28,60.0244297577,02,B,2015_Aug_04_1423,Y,
stim/posf.jpg,stim/negf.jpg,stim/4.jpg,stim/6.jpg,stim/latef.jpg,EF,2,4,,,,,,,,,0,49,49,51,,,,,,,,,,4,1,0.566463894017,,,,,,PLC_L_D2S1,P28,60.0244297577,02,B,2015_Aug_04_1423,Y,
stim/posf.jpg,stim/negf.jpg,stim/2.jpg,stim/1.jpg,stim/latef.jpg,AB,1,2,,,,,,,,,0,50,50,7,,,,,,,,,,2,1,0.683128951177,,,,,,PLC_L_D2S1,P28,60.0244297577,02,B,2015_Aug_04_1423,Y,
stim/negf.jpg,stim/posf.jpg,stim/1.jpg,stim/2.jpg,stim/latef.jpg,AB,2,4,,,,,,,,,0,51,51,19,,,,,,,,,,4,1,0.616469877407,,,,,,PLC_L_D2S1,P28,60.0244297577,02,B,2015_Aug_04_1423,Y,
stim/negf.jpg,stim/posf.jpg,stim/5.jpg,stim/3.jpg,stim/latef.jpg,CD,1,2,,,,,,,,,0,52,52,28,,,,,,,,,,2,1,0.43318642271,,,,,,PLC_L_D2S1,P28,60.0244297577,02,B,2015_Aug_04_1423,Y,
stim/posf.jpg,stim/negf.jpg,stim/1.jpg,stim/2.jpg,stim/latef.jpg,AB,2,4,,,,,,,,,0,53,53,17,,,,,,,,,,4,1,0.499834049992,,,,,,PLC_L_D2S1,P28,60.0244297577,02,B,2015_Aug_04_1423,Y,
stim/posf.jpg,stim/negf.jpg,stim/2.jpg,stim/1.jpg,stim/latef.jpg,AB,1,2,,,,,,,,,0,54,54,0,,,,,,,,,,2,1,0.499806733007,,,,,,PLC_L_D2S1,P28,60.0244297577,02,B,2015_Aug_04_1423,Y,
stim/posf.jpg,stim/negf.jpg,stim/2.jpg,stim/1.jpg,stim/latef.jpg,AB,1,2,,,,,,,,,0,55,55,2,,,,,,,,,,2,1,0.516487534351,,,,,,PLC_L_D2S1,P28,60.0244297577,02,B,2015_Aug_04_1423,Y,
stim/negf.jpg,stim/posf.jpg,stim/6.jpg,stim/4.jpg,stim/latef.jpg,EF,1,2,,,,,,,,,0,56,56,46,,,,,,,,,,2,1,0.749719120461,,,,,,PLC_L_D2S1,P28,60.0244297577,02,B,2015_Aug_04_1423,Y,
stim/posf.jpg,stim/negf.jpg,stim/5.jpg,stim/3.jpg,stim/latef.jpg,CD,1,2,,,,,,,,,0,57,57,20,,,,,,,,,,2,1,0.5331531088,,,,,,PLC_L_D2S1,P28,60.0244297577,02,B,2015_Aug_04_1423,Y,
stim/posf.jpg,stim/negf.jpg,stim/2.jpg,stim/1.jpg,stim/latef.jpg,AB,1,2,,,,,,,,,0,58,58,1,,,,,,,,,,2,1,0.48320645707,,,,,,PLC_L_D2S1,P28,60.0244297577,02,B,2015_Aug_04_1423,Y,
stim/posf.jpg,stim/negf.jpg,stim/1.jpg,stim/2.jpg,stim/latef.jpg,AB,2,4,,,,,,,,,0,59,59,12,,,,,,,,,,4,1,0.899672596174,,,,,,PLC_L_D2S1,P28,60.0244297577,02,B,2015_Aug_04_1423,Y,
,,,,,,,,,,,,,,,,,,,,,,,,,,,,,,,,0.9984375,1.0,1,0,0,PLC_L_D2S1,P28,60.0244297577,02,B,2015_Aug_04_1423,Y,
stim/posf.jpg,stim/negf.jpg,stim/1.jpg,stim/2.jpg,stim/latef.jpg,AB,2,4,,,,,,,,,,,,,0,0,0,16,,,,,,4,1,0.549816159968,,,,,,PLC_L_D2S1,P28,60.0244297577,02,B,2015_Aug_04_1423,Y,
stim/negf.jpg,stim/posf.jpg,stim/6.jpg,stim/4.jpg,stim/latef.jpg,EF,1,2,,,,,,,,,,,,,0,1,1,46,,,,,,2,1,0.616453688117,,,,,,PLC_L_D2S1,P28,60.0244297577,02,B,2015_Aug_04_1423,Y,
stim/posf.jpg,stim/negf.jpg,stim/1.jpg,stim/2.jpg,stim/latef.jpg,AB,2,4,,,,,,,,,,,,,0,2,2,15,,,,,,4,1,0.549823657628,,,,,,PLC_L_D2S1,P28,60.0244297577,02,B,2015_Aug_04_1423,Y,
stim/posf.jpg,stim/negf.jpg,stim/6.jpg,stim/4.jpg,stim/latef.jpg,EF,1,2,,,,,,,,,,,,,0,3,3,41,,,,,,2,1,0.583127928633,,,,,,PLC_L_D2S1,P28,60.0244297577,02,B,2015_Aug_04_1423,Y,
stim/posf.jpg,stim/negf.jpg,stim/3.jpg,stim/5.jpg,stim/latef.jpg,CD,2,4,,,,,,,,,,,,,0,4,4,36,,,,,,4,1,0.699745966775,,,,,,PLC_L_D2S1,P28,60.0244297577,02,B,2015_Aug_04_1423,Y,
stim/posf.jpg,stim/negf.jpg,stim/4.jpg,stim/6.jpg,stim/latef.jpg,EF,2,4,,,,,,,,,,,,,0,5,5,50,,,,,,4,1,0.633191736935,,,,,,PLC_L_D2S1,P28,60.0244297577,02,B,2015_Aug_04_1423,Y,
stim/posf.jpg,stim/negf.jpg,stim/5.jpg,stim/3.jpg,stim/latef.jpg,CD,1,2,,,,,,,,,,,,,0,6,6,20,,,,,,2,1,0.799731139874,,,,,,PLC_L_D2S1,P28,60.0244297577,02,B,2015_Aug_04_1423,Y,
stim/posf.jpg,stim/negf.jpg,stim/4.jpg,stim/6.jpg,stim/latef.jpg,EF,2,4,,,,,,,,,,,,,0,7,7,54,,,,,,4,1,0.533155529825,,,,,,PLC_L_D2S1,P28,60.0244297577,02,B,2015_Aug_04_1423,Y,
stim/posf.jpg,stim/negf.jpg,stim/3.jpg,stim/5.jpg,stim/latef.jpg,CD,2,4,,,,,,,,,,,,,0,8,8,35,,,,,,4,1,0.566474474348,,,,,,PLC_L_D2S1,P28,60.0244297577,02,B,2015_Aug_04_1423,Y,
stim/posf.jpg,stim/negf.jpg,stim/3.jpg,stim/5.jpg,stim/latef.jpg,CD,2,4,,,,,,,,,,,,,0,9,9,32,,,,,,4,1,0.549818596031,,,,,,PLC_L_D2S1,P28,60.0244297577,02,B,2015_Aug_04_1423,Y,
stim/posf.jpg,stim/negf.jpg,stim/5.jpg,stim/3.jpg,stim/latef.jpg,CD,1,2,,,,,,,,,,,,,0,10,10,24,,,,,,2,1,0.766447617508,,,,,,PLC_L_D2S1,P28,60.0244297577,02,B,2015_Aug_04_1423,Y,
stim/posf.jpg,stim/negf.jpg,stim/4.jpg,stim/6.jpg,stim/latef.jpg,EF,2,4,,,,,,,,,,,,,0,11,11,55,,,,,,4,1,0.533090294471,,,,,,PLC_L_D2S1,P28,60.0244297577,02,B,2015_Aug_04_1423,Y,
stim/posf.jpg,stim/negf.jpg,stim/4.jpg,stim/6.jpg,stim/latef.jpg,EF,2,4,,,,,,,,,,,,,0,12,12,51,,,,,,4,1,0.666445879182,,,,,,PLC_L_D2S1,P28,60.0244297577,02,B,2015_Aug_04_1423,Y,
stim/negf.jpg,stim/posf.jpg,stim/5.jpg,stim/3.jpg,stim/latef.jpg,CD,1,2,,,,,,,,,,,,,0,13,13,29,,,,,,2,1,0.58313682778,,,,,,PLC_L_D2S1,P28,60.0244297577,02,B,2015_Aug_04_1423,Y,
stim/negf.jpg,stim/posf.jpg,stim/1.jpg,stim/2.jpg,stim/latef.jpg,AB,2,4,,,,,,,,,,,,,0,14,14,18,,,,,,4,1,0.816401210513,,,,,,PLC_L_D2S1,P28,60.0244297577,02,B,2015_Aug_04_1423,Y,
stim/posf.jpg,stim/negf.jpg,stim/2.jpg,stim/1.jpg,stim/latef.jpg,AB,1,2,,,,,,,,,,,,,0,15,15,1,,,,,,2,1,0.64977698447,,,,,,PLC_L_D2S1,P28,60.0244297577,02,B,2015_Aug_04_1423,Y,
stim/posf.jpg,stim/negf.jpg,stim/3.jpg,stim/5.jpg,stim/latef.jpg,CD,2,4,,,,,,,,,,,,,0,16,16,31,,,,,,4,1,0.899731347391,,,,,,PLC_L_D2S1,P28,60.0244297577,02,B,2015_Aug_04_1423,Y,
stim/posf.jpg,stim/negf.jpg,stim/6.jpg,stim/4.jpg,stim/latef.jpg,EF,1,2,,,,,,,,,,,,,0,17,17,40,,,,,,2,1,0.699764986109,,,,,,PLC_L_D2S1,P28,60.0244297577,02,B,2015_Aug_04_1423,Y,
stim/posf.jpg,stim/negf.jpg,stim/1.jpg,stim/2.jpg,stim/latef.jpg,AB,2,4,,,,,,,,,,,,,0,18,18,13,,,,,,4,1,0.583182349071,,,,,,PLC_L_D2S1,P28,60.0244297577,02,B,2015_Aug_04_1423,Y,
stim/posf.jpg,stim/negf.jpg,stim/2.jpg,stim/1.jpg,stim/latef.jpg,AB,1,2,,,,,,,,,,,,,0,19,19,0,,,,,,2,1,0.433247110747,,,,,,PLC_L_D2S1,P28,60.0244297577,02,B,2015_Aug_04_1423,Y,
stim/posf.jpg,stim/negf.jpg,stim/1.jpg,stim/2.jpg,stim/latef.jpg,AB,2,4,,,,,,,,,,,,,0,20,20,11,,,,,,4,1,0.499825493697,,,,,,PLC_L_D2S1,P28,60.0244297577,02,B,2015_Aug_04_1423,Y,
stim/posf.jpg,stim/negf.jpg,stim/2.jpg,stim/1.jpg,stim/latef.jpg,AB,1,2,,,,,,,,,,,,,0,21,21,4,,,,,,2,1,0.416520746006,,,,,,PLC_L_D2S1,P28,60.0244297577,02,B,2015_Aug_04_1423,Y,
stim/posf.jpg,stim/negf.jpg,stim/1.jpg,stim/2.jpg,stim/latef.jpg,AB,2,4,,,,,,,,,,,,,0,22,22,14,,,,,,4,1,0.483166487596,,,,,,PLC_L_D2S1,P28,60.0244297577,02,B,2015_Aug_04_1423,Y,
stim/posf.jpg,stim/negf.jpg,stim/2.jpg,stim/1.jpg,stim/latef.jpg,AB,1,2,,,,,,,,,,,,,0,23,23,2,,,,,,2,1,0.38319304068,,,,,,PLC_L_D2S1,P28,60.0244297577,02,B,2015_Aug_04_1423,Y,
stim/negf.jpg,stim/posf.jpg,stim/1.jpg,stim/2.jpg,stim/latef.jpg,AB,2,4,,,,,,,,,,,,,0,24,24,19,,,,,,4,1,0.416519936993,,,,,,PLC_L_D2S1,P28,60.0244297577,02,B,2015_Aug_04_1423,Y,
stim/posf.jpg,stim/negf.jpg,stim/5.jpg,stim/3.jpg,stim/latef.jpg,CD,1,2,,,,,,,,,,,,,0,25,25,25,,,,,,2,1,0.433196846652,,,,,,PLC_L_D2S1,P28,60.0244297577,02,B,2015_Aug_04_1423,Y,
stim/posf.jpg,stim/negf.jpg,stim/2.jpg,stim/1.jpg,stim/latef.jpg,AB,1,2,,,,,,,,,,,,,0,26,26,6,,,,,,2,1,0.549819083244,,,,,,PLC_L_D2S1,P28,60.0244297577,02,B,2015_Aug_04_1423,Y,
stim/posf.jpg,stim/negf.jpg,stim/2.jpg,stim/1.jpg,stim/latef.jpg,AB,1,2,,,,,,,,,,,,,0,27,27,3,,,,,,2,1,0.466478278816,,,,,,PLC_L_D2S1,P28,60.0244297577,02,B,2015_Aug_04_1423,Y,
stim/posf.jpg,stim/negf.jpg,stim/3.jpg,stim/5.jpg,stim/latef.jpg,CD,2,4,,,,,,,,,,,,,0,28,28,34,,,,,,2,0,0.416525542945,,,,,,PLC_L_D2S1,P28,60.0244297577,02,B,2015_Aug_04_1423,Y,
stim/negf.jpg,stim/posf.jpg,stim/4.jpg,stim/6.jpg,stim/latef.jpg,EF,2,4,,,,,,,,,,,,,0,29,29,58,,,,,,4,1,0.566459611357,,,,,,PLC_L_D2S1,P28,60.0244297577,02,B,2015_Aug_04_1423,Y,
stim/negf.jpg,stim/posf.jpg,stim/3.jpg,stim/5.jpg,stim/latef.jpg,CD,2,4,,,,,,,,,,,,,0,30,30,38,,,,,,4,1,0.583149329895,,,,,,PLC_L_D2S1,P28,60.0244297577,02,B,2015_Aug_04_1423,Y,
stim/negf.jpg,stim/posf.jpg,stim/2.jpg,stim/1.jpg,stim/latef.jpg,AB,1,2,,,,,,,,,,,,,0,31,31,8,,,,,,2,1,0.449785853543,,,,,,PLC_L_D2S1,P28,60.0244297577,02,B,2015_Aug_04_1423,Y,
stim/posf.jpg,stim/negf.jpg,stim/6.jpg,stim/4.jpg,stim/latef.jpg,EF,1,2,,,,,,,,,,,,,0,32,32,44,,,,,,2,1,0.599784982876,,,,,,PLC_L_D2S1,P28,60.0244297577,02,B,2015_Aug_04_1423,Y,
stim/negf.jpg,stim/posf.jpg,stim/4.jpg,stim/6.jpg,stim/latef.jpg,EF,2,4,,,,,,,,,,,,,0,33,33,59,,,,,,4,1,0.566487535855,,,,,,PLC_L_D2S1,P28,60.0244297577,02,B,2015_Aug_04_1423,Y,
stim/posf.jpg,stim/negf.jpg,stim/2.jpg,stim/1.jpg,stim/latef.jpg,AB,1,2,,,,,,,,,,,,,0,34,34,5,,,,,,2,1,0.433194810585,,,,,,PLC_L_D2S1,P28,60.0244297577,02,B,2015_Aug_04_1423,Y,
stim/posf.jpg,stim/negf.jpg,stim/6.jpg,stim/4.jpg,stim/latef.jpg,EF,1,2,,,,,,,,,,,,,0,35,35,45,,,,,,4,0,0.599829000425,,,,,,PLC_L_D2S1,P28,60.0244297577,02,B,2015_Aug_04_1423,Y,
stim/posf.jpg,stim/negf.jpg,stim/3.jpg,stim/5.jpg,stim/latef.jpg,CD,2,4,,,,,,,,,,,,,0,36,36,30,,,,,,4,1,0.566491758364,,,,,,PLC_L_D2S1,P28,60.0244297577,02,B,2015_Aug_04_1423,Y,
stim/posf.jpg,stim/negf.jpg,stim/1.jpg,stim/2.jpg,stim/latef.jpg,AB,2,4,,,,,,,,,,,,,0,37,37,12,,,,,,4,1,0.566484005068,,,,,,PLC_L_D2S1,P28,60.0244297577,02,B,2015_Aug_04_1423,Y,
stim/posf.jpg,stim/negf.jpg,stim/5.jpg,stim/3.jpg,stim/latef.jpg,CD,1,2,,,,,,,,,,,,,0,38,38,23,,,,,,2,1,0.533136480416,,,,,,PLC_L_D2S1,P28,60.0244297577,02,B,2015_Aug_04_1423,Y,
stim/posf.jpg,stim/negf.jpg,stim/4.jpg,stim/6.jpg,stim/latef.jpg,EF,2,4,,,,,,,,,,,,,0,39,39,53,,,,,,4,1,0.466511024312,,,,,,PLC_L_D2S1,P28,60.0244297577,02,B,2015_Aug_04_1423,Y,
stim/negf.jpg,stim/posf.jpg,stim/3.jpg,stim/5.jpg,stim/latef.jpg,CD,2,4,,,,,,,,,,,,,0,40,40,37,,,,,,4,1,0.549786427972,,,,,,PLC_L_D2S1,P28,60.0244297577,02,B,2015_Aug_04_1423,Y,
stim/posf.jpg,stim/negf.jpg,stim/4.jpg,stim/6.jpg,stim/latef.jpg,EF,2,4,,,,,,,,,,,,,0,41,41,52,,,,,,4,1,0.516498198892,,,,,,PLC_L_D2S1,P28,60.0244297577,02,B,2015_Aug_04_1423,Y,
stim/negf.jpg,stim/posf.jpg,stim/3.jpg,stim/5.jpg,stim/latef.jpg,CD,2,4,,,,,,,,,,,,,0,42,42,39,,,,,,4,1,0.499825376406,,,,,,PLC_L_D2S1,P28,60.0244297577,02,B,2015_Aug_04_1423,Y,
stim/negf.jpg,stim/posf.jpg,stim/6.jpg,stim/4.jpg,stim/latef.jpg,EF,1,2,,,,,,,,,,,,,0,43,43,47,,,,,,2,1,0.516411490096,,,,,,PLC_L_D2S1,P28,60.0244297577,02,B,2015_Aug_04_1423,Y,
stim/posf.jpg,stim/negf.jpg,stim/6.jpg,stim/4.jpg,stim/latef.jpg,EF,1,2,,,,,,,,,,,,,0,44,44,42,,,,,,2,1,0.516502806359,,,,,,PLC_L_D2S1,P28,60.0244297577,02,B,2015_Aug_04_1423,Y,
stim/posf.jpg,stim/negf.jpg,stim/2.jpg,stim/1.jpg,stim/latef.jpg,AB,1,2,,,,,,,,,,,,,0,45,45,7,,,,,,2,1,0.533147911865,,,,,,PLC_L_D2S1,P28,60.0244297577,02,B,2015_Aug_04_1423,Y,
stim/posf.jpg,stim/negf.jpg,stim/5.jpg,stim/3.jpg,stim/latef.jpg,CD,1,2,,,,,,,,,,,,,0,46,46,21,,,,,,4,0,0.533187430217,,,,,,PLC_L_D2S1,P28,60.0244297577,02,B,2015_Aug_04_1423,Y,
stim/posf.jpg,stim/negf.jpg,stim/3.jpg,stim/5.jpg,stim/latef.jpg,CD,2,4,,,,,,,,,,,,,0,47,47,33,,,,,,4,1,0.583130088007,,,,,,PLC_L_D2S1,P28,60.0244297577,02,B,2015_Aug_04_1423,Y,
stim/posf.jpg,stim/negf.jpg,stim/1.jpg,stim/2.jpg,stim/latef.jpg,AB,2,4,,,,,,,,,,,,,0,48,48,17,,,,,,4,1,0.599766417672,,,,,,PLC_L_D2S1,P28,60.0244297577,02,B,2015_Aug_04_1423,Y,
stim/negf.jpg,stim/posf.jpg,stim/5.jpg,stim/3.jpg,stim/latef.jpg,CD,1,2,,,,,,,,,,,,,0,49,49,27,,,,,,2,1,0.566472311967,,,,,,PLC_L_D2S1,P28,60.0244297577,02,B,2015_Aug_04_1423,Y,
stim/posf.jpg,stim/negf.jpg,stim/5.jpg,stim/3.jpg,stim/latef.jpg,CD,1,2,,,,,,,,,,,,,0,50,50,26,,,,,,2,1,0.583144466792,,,,,,PLC_L_D2S1,P28,60.0244297577,02,B,2015_Aug_04_1423,Y,
stim/negf.jpg,stim/posf.jpg,stim/2.jpg,stim/1.jpg,stim/latef.jpg,AB,1,2,,,,,,,,,,,,,0,51,51,9,,,,,,2,1,0.516448142314,,,,,,PLC_L_D2S1,P28,60.0244297577,02,B,2015_Aug_04_1423,Y,
stim/posf.jpg,stim/negf.jpg,stim/5.jpg,stim/3.jpg,stim/latef.jpg,CD,1,2,,,,,,,,,,,,,0,52,52,22,,,,,,2,1,0.516476310417,,,,,,PLC_L_D2S1,P28,60.0244297577,02,B,2015_Aug_04_1423,Y,
stim/posf.jpg,stim/negf.jpg,stim/6.jpg,stim/4.jpg,stim/latef.jpg,EF,1,2,,,,,,,,,,,,,0,53,53,43,,,,,,2,1,0.566474889381,,,,,,PLC_L_D2S1,P28,60.0244297577,02,B,2015_Aug_04_1423,Y,
stim/negf.jpg,stim/posf.jpg,stim/5.jpg,stim/3.jpg,stim/latef.jpg,CD,1,2,,,,,,,,,,,,,0,54,54,28,,,,,,2,1,0.549858367011,,,,,,PLC_L_D2S1,P28,60.0244297577,02,B,2015_Aug_04_1423,Y,
stim/negf.jpg,stim/posf.jpg,stim/4.jpg,stim/6.jpg,stim/latef.jpg,EF,2,4,,,,,,,,,,,,,0,55,55,57,,,,,,4,1,0.583138984147,,,,,,PLC_L_D2S1,P28,60.0244297577,02,B,2015_Aug_04_1423,Y,
stim/negf.jpg,stim/posf.jpg,stim/4.jpg,stim/6.jpg,stim/latef.jpg,EF,2,4,,,,,,,,,,,,,0,56,56,56,,,,,,4,1,0.533133776687,,,,,,PLC_L_D2S1,P28,60.0244297577,02,B,2015_Aug_04_1423,Y,
stim/negf.jpg,stim/posf.jpg,stim/6.jpg,stim/4.jpg,stim/latef.jpg,EF,1,2,,,,,,,,,,,,,0,57,57,48,,,,,,2,1,0.41652557302,,,,,,PLC_L_D2S1,P28,60.0244297577,02,B,2015_Aug_04_1423,Y,
stim/negf.jpg,stim/posf.jpg,stim/6.jpg,stim/4.jpg,stim/latef.jpg,EF,1,2,,,,,,,,,,,,,0,58,58,49,,,,,,2,1,0.449856685827,,,,,,PLC_L_D2S1,P28,60.0244297577,02,B,2015_Aug_04_1423,Y,
stim/posf.jpg,stim/negf.jpg,stim/1.jpg,stim/2.jpg,stim/latef.jpg,AB,2,4,,,,,,,,,,,,,0,59,59,10,,,,,,2,0,0.466484438145,,,,,,PLC_L_D2S1,P28,60.0244297577,02,B,2015_Aug_04_1423,Y,
