fb_corr,fb_incorr,symbol2,symbol1,fb_late,pair,position,correct,block_01.thisRepN,block_01.thisTrialN,block_01.thisN,block_01.thisIndex,block_02.thisRepN,block_02.thisTrialN,block_02.thisN,block_02.thisIndex,block_03.thisRepN,block_03.thisTrialN,block_03.thisN,block_03.thisIndex,block_04.thisRepN,block_04.thisTrialN,block_04.thisN,block_04.thisIndex,mouse.x,mouse.y,mouse.leftButton,mouse.midButton,mouse.rightButton,buttonBox_2.keys,buttonBox_2.corr,buttonBox_2.rt,mouse_2.x,mouse_2.y,mouse_2.leftButton,mouse_2.midButton,mouse_2.rightButton,expName,Participant,frameRate,SessionNumber,Version,date,Group,
,,,,,,,,,,,,,,,,,,,,,,,,-0.94375,1.0,1,0,0,,,,,,,,,PLC_L_D2S1,P30,60.0229612727,02,C,2015_Aug_14_1416,Y,
stim/posf.jpg,stim/negf.jpg,stim/3.jpg,stim/1.jpg,stim/latef.jpg,EF,1,2,0,0,0,41,,,,,,,,,,,,,,,,,,2,1,1.23295432365,,,,,,PLC_L_D2S1,P30,60.0229612727,02,C,2015_Aug_14_1416,Y,
stim/posf.jpg,stim/negf.jpg,stim/3.jpg,stim/1.jpg,stim/latef.jpg,EF,1,2,0,1,1,40,,,,,,,,,,,,,,,,,,2,1,1.04964618612,,,,,,PLC_L_D2S1,P30,60.0229612727,02,C,2015_Aug_14_1416,Y,
stim/negf.jpg,stim/posf.jpg,stim/3.jpg,stim/1.jpg,stim/latef.jpg,EF,1,2,0,2,2,46,,,,,,,,,,,,,,,,,,2,1,0.783083949745,,,,,,PLC_L_D2S1,P30,60.0229612727,02,C,2015_Aug_14_1416,Y,
stim/posf.jpg,stim/negf.jpg,stim/5.jpg,stim/2.jpg,stim/latef.jpg,AB,1,2,0,3,3,0,,,,,,,,,,,,,,,,,,2,1,1.03288695874,,,,,,PLC_L_D2S1,P30,60.0229612727,02,C,2015_Aug_14_1416,Y,
stim/posf.jpg,stim/negf.jpg,stim/6.jpg,stim/4.jpg,stim/latef.jpg,CD,2,4,0,4,4,35,,,,,,,,,,,,,,,,,,4,1,1.09963009902,,,,,,PLC_L_D2S1,P30,60.0229612727,02,C,2015_Aug_14_1416,Y,
stim/posf.jpg,stim/negf.jpg,stim/2.jpg,stim/5.jpg,stim/latef.jpg,AB,2,4,0,5,5,12,,,,,,,,,,,,,,,,,,4,1,1.13294903948,,,,,,PLC_L_D2S1,P30,60.0229612727,02,C,2015_Aug_14_1416,Y,
stim/negf.jpg,stim/posf.jpg,stim/6.jpg,stim/4.jpg,stim/latef.jpg,CD,2,4,0,6,6,39,,,,,,,,,,,,,,,,,,4,1,0.899696107548,,,,,,PLC_L_D2S1,P30,60.0229612727,02,C,2015_Aug_14_1416,Y,
stim/posf.jpg,stim/negf.jpg,stim/4.jpg,stim/6.jpg,stim/latef.jpg,CD,1,2,0,7,7,24,,,,,,,,,,,,,,,,,,2,1,0.766402631559,,,,,,PLC_L_D2S1,P30,60.0229612727,02,C,2015_Aug_14_1416,Y,
stim/negf.jpg,stim/posf.jpg,stim/1.jpg,stim/3.jpg,stim/latef.jpg,EF,2,4,0,8,8,56,,,,,,,,,,,,,,,,,,4,1,0.916324409591,,,,,,PLC_L_D2S1,P30,60.0229612727,02,C,2015_Aug_14_1416,Y,
stim/posf.jpg,stim/negf.jpg,stim/4.jpg,stim/6.jpg,stim/latef.jpg,CD,1,2,0,9,9,22,,,,,,,,,,,,,,,,,,2,1,1.11628614822,,,,,,PLC_L_D2S1,P30,60.0229612727,02,C,2015_Aug_14_1416,Y,
stim/negf.jpg,stim/posf.jpg,stim/4.jpg,stim/6.jpg,stim/latef.jpg,CD,1,2,0,10,10,27,,,,,,,,,,,,,,,,,,2,1,0.666396947391,,,,,,PLC_L_D2S1,P30,60.0229612727,02,C,2015_Aug_14_1416,Y,
stim/negf.jpg,stim/posf.jpg,stim/4.jpg,stim/6.jpg,stim/latef.jpg,CD,1,2,0,11,11,29,,,,,,,,,,,,,,,,,,2,1,0.733083125691,,,,,,PLC_L_D2S1,P30,60.0229612727,02,C,2015_Aug_14_1416,Y,
stim/negf.jpg,stim/posf.jpg,stim/1.jpg,stim/3.jpg,stim/latef.jpg,EF,2,4,0,12,12,58,,,,,,,,,,,,,,,,,,4,1,0.966338929783,,,,,,PLC_L_D2S1,P30,60.0229612727,02,C,2015_Aug_14_1416,Y,
stim/posf.jpg,stim/negf.jpg,stim/2.jpg,stim/5.jpg,stim/latef.jpg,AB,2,4,0,13,13,14,,,,,,,,,,,,,,,,,,4,1,0.966353913128,,,,,,PLC_L_D2S1,P30,60.0229612727,02,C,2015_Aug_14_1416,Y,
stim/posf.jpg,stim/negf.jpg,stim/2.jpg,stim/5.jpg,stim/latef.jpg,AB,2,4,0,14,14,15,,,,,,,,,,,,,,,,,,4,1,0.716441735025,,,,,,PLC_L_D2S1,P30,60.0229612727,02,C,2015_Aug_14_1416,Y,
stim/posf.jpg,stim/negf.jpg,stim/5.jpg,stim/2.jpg,stim/latef.jpg,AB,1,2,0,15,15,6,,,,,,,,,,,,,,,,,,2,1,1.18295704844,,,,,,PLC_L_D2S1,P30,60.0229612727,02,C,2015_Aug_14_1416,Y,
stim/negf.jpg,stim/posf.jpg,stim/1.jpg,stim/3.jpg,stim/latef.jpg,EF,2,4,0,16,16,59,,,,,,,,,,,,,,,,,,4,1,0.966349233464,,,,,,PLC_L_D2S1,P30,60.0229612727,02,C,2015_Aug_14_1416,Y,
stim/posf.jpg,stim/negf.jpg,stim/2.jpg,stim/5.jpg,stim/latef.jpg,AB,2,4,0,17,17,17,,,,,,,,,,,,,,,,,,4,1,0.683139901204,,,,,,PLC_L_D2S1,P30,60.0229612727,02,C,2015_Aug_14_1416,Y,
stim/negf.jpg,stim/posf.jpg,stim/3.jpg,stim/1.jpg,stim/latef.jpg,EF,1,2,0,18,18,48,,,,,,,,,,,,,,,,,,2,1,0.716432195247,,,,,,PLC_L_D2S1,P30,60.0229612727,02,C,2015_Aug_14_1416,Y,
stim/negf.jpg,stim/posf.jpg,stim/6.jpg,stim/4.jpg,stim/latef.jpg,CD,2,4,0,19,19,37,,,,,,,,,,,,,,,,,,4,1,0.966359464966,,,,,,PLC_L_D2S1,P30,60.0229612727,02,C,2015_Aug_14_1416,Y,
stim/negf.jpg,stim/posf.jpg,stim/3.jpg,stim/1.jpg,stim/latef.jpg,EF,1,2,0,20,20,47,,,,,,,,,,,,,,,,,,2,1,0.849688005354,,,,,,PLC_L_D2S1,P30,60.0229612727,02,C,2015_Aug_14_1416,Y,
stim/posf.jpg,stim/negf.jpg,stim/6.jpg,stim/4.jpg,stim/latef.jpg,CD,2,4,0,21,21,31,,,,,,,,,,,,,,,,,,2,0,1.03304319817,,,,,,PLC_L_D2S1,P30,60.0229612727,02,C,2015_Aug_14_1416,Y,
stim/posf.jpg,stim/negf.jpg,stim/2.jpg,stim/5.jpg,stim/latef.jpg,AB,2,4,0,22,22,16,,,,,,,,,,,,,,,,,,2,0,0.783101820287,,,,,,PLC_L_D2S1,P30,60.0229612727,02,C,2015_Aug_14_1416,Y,
stim/negf.jpg,stim/posf.jpg,stim/5.jpg,stim/2.jpg,stim/latef.jpg,AB,1,2,0,23,23,8,,,,,,,,,,,,,,,,,,2,1,0.933018151743,,,,,,PLC_L_D2S1,P30,60.0229612727,02,C,2015_Aug_14_1416,Y,
stim/posf.jpg,stim/negf.jpg,stim/4.jpg,stim/6.jpg,stim/latef.jpg,CD,1,2,0,24,24,20,,,,,,,,,,,,,,,,,,4,0,0.932993595537,,,,,,PLC_L_D2S1,P30,60.0229612727,02,C,2015_Aug_14_1416,Y,
stim/posf.jpg,stim/negf.jpg,stim/1.jpg,stim/3.jpg,stim/latef.jpg,EF,2,4,0,25,25,52,,,,,,,,,,,,,,,,,,2,0,0.999670537816,,,,,,PLC_L_D2S1,P30,60.0229612727,02,C,2015_Aug_14_1416,Y,
stim/posf.jpg,stim/negf.jpg,stim/2.jpg,stim/5.jpg,stim/latef.jpg,AB,2,4,0,26,26,11,,,,,,,,,,,,,,,,,,2,0,0.849781818182,,,,,,PLC_L_D2S1,P30,60.0229612727,02,C,2015_Aug_14_1416,Y,
stim/posf.jpg,stim/negf.jpg,stim/5.jpg,stim/2.jpg,stim/latef.jpg,AB,1,2,0,27,27,1,,,,,,,,,,,,,,,,,,4,0,0.899718071293,,,,,,PLC_L_D2S1,P30,60.0229612727,02,C,2015_Aug_14_1416,Y,
stim/posf.jpg,stim/negf.jpg,stim/6.jpg,stim/4.jpg,stim/latef.jpg,CD,2,4,0,28,28,32,,,,,,,,,,,,,,,,,,2,0,0.999658198059,,,,,,PLC_L_D2S1,P30,60.0229612727,02,C,2015_Aug_14_1416,Y,
stim/negf.jpg,stim/posf.jpg,stim/4.jpg,stim/6.jpg,stim/latef.jpg,CD,1,2,0,29,29,28,,,,,,,,,,,,,,,,,,2,1,0.733063213059,,,,,,PLC_L_D2S1,P30,60.0229612727,02,C,2015_Aug_14_1416,Y,
stim/posf.jpg,stim/negf.jpg,stim/3.jpg,stim/1.jpg,stim/latef.jpg,EF,1,2,0,30,30,43,,,,,,,,,,,,,,,,,,4,0,1.14962051413,,,,,,PLC_L_D2S1,P30,60.0229612727,02,C,2015_Aug_14_1416,Y,
stim/posf.jpg,stim/negf.jpg,stim/5.jpg,stim/2.jpg,stim/latef.jpg,AB,1,2,0,31,31,7,,,,,,,,,,,,,,,,,,2,1,0.699751905625,,,,,,PLC_L_D2S1,P30,60.0229612727,02,C,2015_Aug_14_1416,Y,
stim/posf.jpg,stim/negf.jpg,stim/2.jpg,stim/5.jpg,stim/latef.jpg,AB,2,4,0,32,32,13,,,,,,,,,,,,,,,,,,4,1,1.23292328629,,,,,,PLC_L_D2S1,P30,60.0229612727,02,C,2015_Aug_14_1416,Y,
stim/posf.jpg,stim/negf.jpg,stim/3.jpg,stim/1.jpg,stim/latef.jpg,EF,1,2,0,33,33,44,,,,,,,,,,,,,,,,,,2,1,0.883039381659,,,,,,PLC_L_D2S1,P30,60.0229612727,02,C,2015_Aug_14_1416,Y,
stim/posf.jpg,stim/negf.jpg,stim/6.jpg,stim/4.jpg,stim/latef.jpg,CD,2,4,0,34,34,33,,,,,,,,,,,,,,,,,,4,1,0.949672600958,,,,,,PLC_L_D2S1,P30,60.0229612727,02,C,2015_Aug_14_1416,Y,
stim/negf.jpg,stim/posf.jpg,stim/5.jpg,stim/2.jpg,stim/latef.jpg,AB,1,2,0,35,35,9,,,,,,,,,,,,,,,,,,2,1,0.899676570853,,,,,,PLC_L_D2S1,P30,60.0229612727,02,C,2015_Aug_14_1416,Y,
stim/posf.jpg,stim/negf.jpg,stim/4.jpg,stim/6.jpg,stim/latef.jpg,CD,1,2,0,36,36,25,,,,,,,,,,,,,,,,,,2,1,0.899705746573,,,,,,PLC_L_D2S1,P30,60.0229612727,02,C,2015_Aug_14_1416,Y,
stim/posf.jpg,stim/negf.jpg,stim/4.jpg,stim/6.jpg,stim/latef.jpg,CD,1,2,0,37,37,26,,,,,,,,,,,,,,,,,,2,1,0.666443765085,,,,,,PLC_L_D2S1,P30,60.0229612727,02,C,2015_Aug_14_1416,Y,
stim/posf.jpg,stim/negf.jpg,stim/1.jpg,stim/3.jpg,stim/latef.jpg,EF,2,4,0,38,38,55,,,,,,,,,,,,,,,,,,4,1,0.899652029684,,,,,,PLC_L_D2S1,P30,60.0229612727,02,C,2015_Aug_14_1416,Y,
stim/posf.jpg,stim/negf.jpg,stim/6.jpg,stim/4.jpg,stim/latef.jpg,CD,2,4,0,39,39,34,,,,,,,,,,,,,,,,,,4,1,1.08298985421,,,,,,PLC_L_D2S1,P30,60.0229612727,02,C,2015_Aug_14_1416,Y,
stim/posf.jpg,stim/negf.jpg,stim/5.jpg,stim/2.jpg,stim/latef.jpg,AB,1,2,0,40,40,3,,,,,,,,,,,,,,,,,,2,1,0.849760753679,,,,,,PLC_L_D2S1,P30,60.0229612727,02,C,2015_Aug_14_1416,Y,
stim/posf.jpg,stim/negf.jpg,stim/3.jpg,stim/1.jpg,stim/latef.jpg,EF,1,2,0,41,41,42,,,,,,,,,,,,,,,,,,2,1,0.749761601792,,,,,,PLC_L_D2S1,P30,60.0229612727,02,C,2015_Aug_14_1416,Y,
stim/posf.jpg,stim/negf.jpg,stim/6.jpg,stim/4.jpg,stim/latef.jpg,CD,2,4,0,42,42,30,,,,,,,,,,,,,,,,,,4,1,0.949662727348,,,,,,PLC_L_D2S1,P30,60.0229612727,02,C,2015_Aug_14_1416,Y,
stim/negf.jpg,stim/posf.jpg,stim/6.jpg,stim/4.jpg,stim/latef.jpg,CD,2,4,0,43,43,38,,,,,,,,,,,,,,,,,,4,1,0.68311336005,,,,,,PLC_L_D2S1,P30,60.0229612727,02,C,2015_Aug_14_1416,Y,
stim/posf.jpg,stim/negf.jpg,stim/4.jpg,stim/6.jpg,stim/latef.jpg,CD,1,2,0,44,44,21,,,,,,,,,,,,,,,,,,2,1,0.683122722385,,,,,,PLC_L_D2S1,P30,60.0229612727,02,C,2015_Aug_14_1416,Y,
stim/posf.jpg,stim/negf.jpg,stim/1.jpg,stim/3.jpg,stim/latef.jpg,EF,2,4,0,45,45,54,,,,,,,,,,,,,,,,,,4,1,0.932985559507,,,,,,PLC_L_D2S1,P30,60.0229612727,02,C,2015_Aug_14_1416,Y,
stim/posf.jpg,stim/negf.jpg,stim/1.jpg,stim/3.jpg,stim/latef.jpg,EF,2,4,0,46,46,53,,,,,,,,,,,,,,,,,,4,1,0.916363702529,,,,,,PLC_L_D2S1,P30,60.0229612727,02,C,2015_Aug_14_1416,Y,
stim/negf.jpg,stim/posf.jpg,stim/3.jpg,stim/1.jpg,stim/latef.jpg,EF,1,2,0,47,47,49,,,,,,,,,,,,,,,,,,4,0,1.06636043037,,,,,,PLC_L_D2S1,P30,60.0229612727,02,C,2015_Aug_14_1416,Y,
stim/posf.jpg,stim/negf.jpg,stim/1.jpg,stim/3.jpg,stim/latef.jpg,EF,2,4,0,48,48,51,,,,,,,,,,,,,,,,,,2,0,0.816378733994,,,,,,PLC_L_D2S1,P30,60.0229612727,02,C,2015_Aug_14_1416,Y,
stim/negf.jpg,stim/posf.jpg,stim/1.jpg,stim/3.jpg,stim/latef.jpg,EF,2,4,0,49,49,57,,,,,,,,,,,,,,,,,,4,1,0.933027808813,,,,,,PLC_L_D2S1,P30,60.0229612727,02,C,2015_Aug_14_1416,Y,
stim/posf.jpg,stim/negf.jpg,stim/3.jpg,stim/1.jpg,stim/latef.jpg,EF,1,2,0,50,50,45,,,,,,,,,,,,,,,,,,2,1,0.883063958918,,,,,,PLC_L_D2S1,P30,60.0229612727,02,C,2015_Aug_14_1416,Y,
stim/posf.jpg,stim/negf.jpg,stim/6.jpg,stim/4.jpg,stim/latef.jpg,CD,2,4,0,51,51,36,,,,,,,,,,,,,,,,,,4,1,0.916358779257,,,,,,PLC_L_D2S1,P30,60.0229612727,02,C,2015_Aug_14_1416,Y,
stim/posf.jpg,stim/negf.jpg,stim/5.jpg,stim/2.jpg,stim/latef.jpg,AB,1,2,0,52,52,4,,,,,,,,,,,,,,,,,,2,1,0.633080900144,,,,,,PLC_L_D2S1,P30,60.0229612727,02,C,2015_Aug_14_1416,Y,
stim/negf.jpg,stim/posf.jpg,stim/2.jpg,stim/5.jpg,stim/latef.jpg,AB,2,4,0,53,53,19,,,,,,,,,,,,,,,,,,4,1,0.899697181224,,,,,,PLC_L_D2S1,P30,60.0229612727,02,C,2015_Aug_14_1416,Y,
stim/posf.jpg,stim/negf.jpg,stim/4.jpg,stim/6.jpg,stim/latef.jpg,CD,1,2,0,54,54,23,,,,,,,,,,,,,,,,,,2,1,0.799761012323,,,,,,PLC_L_D2S1,P30,60.0229612727,02,C,2015_Aug_14_1416,Y,
stim/posf.jpg,stim/negf.jpg,stim/2.jpg,stim/5.jpg,stim/latef.jpg,AB,2,4,0,55,55,10,,,,,,,,,,,,,,,,,,4,1,0.88303243735,,,,,,PLC_L_D2S1,P30,60.0229612727,02,C,2015_Aug_14_1416,Y,
stim/posf.jpg,stim/negf.jpg,stim/1.jpg,stim/3.jpg,stim/latef.jpg,EF,2,4,0,56,56,50,,,,,,,,,,,,,,,,,,4,1,0.999672796445,,,,,,PLC_L_D2S1,P30,60.0229612727,02,C,2015_Aug_14_1416,Y,
stim/negf.jpg,stim/posf.jpg,stim/2.jpg,stim/5.jpg,stim/latef.jpg,AB,2,4,0,57,57,18,,,,,,,,,,,,,,,,,,4,1,0.932973866362,,,,,,PLC_L_D2S1,P30,60.0229612727,02,C,2015_Aug_14_1416,Y,
stim/posf.jpg,stim/negf.jpg,stim/5.jpg,stim/2.jpg,stim/latef.jpg,AB,1,2,0,58,58,5,,,,,,,,,,,,,,,,,,2,1,0.98300066616,,,,,,PLC_L_D2S1,P30,60.0229612727,02,C,2015_Aug_14_1416,Y,
stim/posf.jpg,stim/negf.jpg,stim/5.jpg,stim/2.jpg,stim/latef.jpg,AB,1,2,0,59,59,2,,,,,,,,,,,,,,,,,,2,1,0.916317510395,,,,,,PLC_L_D2S1,P30,60.0229612727,02,C,2015_Aug_14_1416,Y,
,,,,,,,,,,,,,,,,,,,,,,,,,,,,,,,,-0.9453125,0.98828125,1,0,0,PLC_L_D2S1,P30,60.0229612727,02,C,2015_Aug_14_1416,Y,
stim/negf.jpg,stim/posf.jpg,stim/1.jpg,stim/3.jpg,stim/latef.jpg,EF,2,4,,,,,0,0,0,59,,,,,,,,,,,,,,2,0,1.11629563688,,,,,,PLC_L_D2S1,P30,60.0229612727,02,C,2015_Aug_14_1416,Y,
stim/negf.jpg,stim/posf.jpg,stim/5.jpg,stim/2.jpg,stim/latef.jpg,AB,1,2,,,,,0,1,1,9,,,,,,,,,,,,,,2,1,0.949617163781,,,,,,PLC_L_D2S1,P30,60.0229612727,02,C,2015_Aug_14_1416,Y,
stim/posf.jpg,stim/negf.jpg,stim/2.jpg,stim/5.jpg,stim/latef.jpg,AB,2,4,,,,,0,2,2,14,,,,,,,,,,,,,,4,1,0.733091868482,,,,,,PLC_L_D2S1,P30,60.0229612727,02,C,2015_Aug_14_1416,Y,
stim/posf.jpg,stim/negf.jpg,stim/4.jpg,stim/6.jpg,stim/latef.jpg,CD,1,2,,,,,0,3,3,20,,,,,,,,,,,,,,2,1,0.716427708062,,,,,,PLC_L_D2S1,P30,60.0229612727,02,C,2015_Aug_14_1416,Y,
stim/posf.jpg,stim/negf.jpg,stim/1.jpg,stim/3.jpg,stim/latef.jpg,EF,2,4,,,,,0,4,4,53,,,,,,,,,,,,,,4,1,0.899714311922,,,,,,PLC_L_D2S1,P30,60.0229612727,02,C,2015_Aug_14_1416,Y,
stim/posf.jpg,stim/negf.jpg,stim/5.jpg,stim/2.jpg,stim/latef.jpg,AB,1,2,,,,,0,5,5,0,,,,,,,,,,,,,,2,1,0.899693918091,,,,,,PLC_L_D2S1,P30,60.0229612727,02,C,2015_Aug_14_1416,Y,
stim/negf.jpg,stim/posf.jpg,stim/1.jpg,stim/3.jpg,stim/latef.jpg,EF,2,4,,,,,0,6,6,57,,,,,,,,,,,,,,4,1,0.916395660183,,,,,,PLC_L_D2S1,P30,60.0229612727,02,C,2015_Aug_14_1416,Y,
stim/posf.jpg,stim/negf.jpg,stim/4.jpg,stim/6.jpg,stim/latef.jpg,CD,1,2,,,,,0,7,7,21,,,,,,,,,,,,,,2,1,0.549822145698,,,,,,PLC_L_D2S1,P30,60.0229612727,02,C,2015_Aug_14_1416,Y,
stim/negf.jpg,stim/posf.jpg,stim/1.jpg,stim/3.jpg,stim/latef.jpg,EF,2,4,,,,,0,8,8,58,,,,,,,,,,,,,,4,1,1.04965326877,,,,,,PLC_L_D2S1,P30,60.0229612727,02,C,2015_Aug_14_1416,Y,
stim/negf.jpg,stim/posf.jpg,stim/5.jpg,stim/2.jpg,stim/latef.jpg,AB,1,2,,,,,0,9,9,8,,,,,,,,,,,,,,2,1,0.99963697115,,,,,,PLC_L_D2S1,P30,60.0229612727,02,C,2015_Aug_14_1416,Y,
stim/posf.jpg,stim/negf.jpg,stim/5.jpg,stim/2.jpg,stim/latef.jpg,AB,1,2,,,,,0,10,10,1,,,,,,,,,,,,,,2,1,0.599814485605,,,,,,PLC_L_D2S1,P30,60.0229612727,02,C,2015_Aug_14_1416,Y,
stim/posf.jpg,stim/negf.jpg,stim/5.jpg,stim/2.jpg,stim/latef.jpg,AB,1,2,,,,,0,11,11,2,,,,,,,,,,,,,,2,1,0.833041856828,,,,,,PLC_L_D2S1,P30,60.0229612727,02,C,2015_Aug_14_1416,Y,
stim/posf.jpg,stim/negf.jpg,stim/1.jpg,stim/3.jpg,stim/latef.jpg,EF,2,4,,,,,0,12,12,55,,,,,,,,,,,,,,4,1,0.966331949384,,,,,,PLC_L_D2S1,P30,60.0229612727,02,C,2015_Aug_14_1416,Y,
stim/posf.jpg,stim/negf.jpg,stim/2.jpg,stim/5.jpg,stim/latef.jpg,AB,2,4,,,,,0,13,13,10,,,,,,,,,,,,,,4,1,1.14963161179,,,,,,PLC_L_D2S1,P30,60.0229612727,02,C,2015_Aug_14_1416,Y,
stim/posf.jpg,stim/negf.jpg,stim/5.jpg,stim/2.jpg,stim/latef.jpg,AB,1,2,,,,,0,14,14,4,,,,,,,,,,,,,,2,1,0.933004524778,,,,,,PLC_L_D2S1,P30,60.0229612727,02,C,2015_Aug_14_1416,Y,
stim/posf.jpg,stim/negf.jpg,stim/6.jpg,stim/4.jpg,stim/latef.jpg,CD,2,4,,,,,0,15,15,36,,,,,,,,,,,,,,4,1,0.849716302885,,,,,,PLC_L_D2S1,P30,60.0229612727,02,C,2015_Aug_14_1416,Y,
stim/posf.jpg,stim/negf.jpg,stim/4.jpg,stim/6.jpg,stim/latef.jpg,CD,1,2,,,,,0,16,16,26,,,,,,,,,,,,,,2,1,0.799749376321,,,,,,PLC_L_D2S1,P30,60.0229612727,02,C,2015_Aug_14_1416,Y,
stim/negf.jpg,stim/posf.jpg,stim/4.jpg,stim/6.jpg,stim/latef.jpg,CD,1,2,,,,,0,17,17,27,,,,,,,,,,,,,,2,1,0.883042413215,,,,,,PLC_L_D2S1,P30,60.0229612727,02,C,2015_Aug_14_1416,Y,
stim/posf.jpg,stim/negf.jpg,stim/2.jpg,stim/5.jpg,stim/latef.jpg,AB,2,4,,,,,0,18,18,13,,,,,,,,,,,,,,4,1,0.766413118698,,,,,,PLC_L_D2S1,P30,60.0229612727,02,C,2015_Aug_14_1416,Y,
stim/posf.jpg,stim/negf.jpg,stim/3.jpg,stim/1.jpg,stim/latef.jpg,EF,1,2,,,,,0,19,19,44,,,,,,,,,,,,,,2,1,0.766391470741,,,,,,PLC_L_D2S1,P30,60.0229612727,02,C,2015_Aug_14_1416,Y,
stim/posf.jpg,stim/negf.jpg,stim/3.jpg,stim/1.jpg,stim/latef.jpg,EF,1,2,,,,,0,20,20,41,,,,,,,,,,,,,,2,1,0.933013300652,,,,,,PLC_L_D2S1,P30,60.0229612727,02,C,2015_Aug_14_1416,Y,
stim/posf.jpg,stim/negf.jpg,stim/2.jpg,stim/5.jpg,stim/latef.jpg,AB,2,4,,,,,0,21,21,15,,,,,,,,,,,,,,4,1,0.716410445034,,,,,,PLC_L_D2S1,P30,60.0229612727,02,C,2015_Aug_14_1416,Y,
stim/negf.jpg,stim/posf.jpg,stim/2.jpg,stim/5.jpg,stim/latef.jpg,AB,2,4,,,,,0,22,22,19,,,,,,,,,,,,,,4,1,0.699774221246,,,,,,PLC_L_D2S1,P30,60.0229612727,02,C,2015_Aug_14_1416,Y,
stim/negf.jpg,stim/posf.jpg,stim/3.jpg,stim/1.jpg,stim/latef.jpg,EF,1,2,,,,,0,23,23,46,,,,,,,,,,,,,,2,1,0.949670182931,,,,,,PLC_L_D2S1,P30,60.0229612727,02,C,2015_Aug_14_1416,Y,
stim/posf.jpg,stim/negf.jpg,stim/2.jpg,stim/5.jpg,stim/latef.jpg,AB,2,4,,,,,0,24,24,17,,,,,,,,,,,,,,4,1,0.716423341178,,,,,,PLC_L_D2S1,P30,60.0229612727,02,C,2015_Aug_14_1416,Y,
stim/posf.jpg,stim/negf.jpg,stim/4.jpg,stim/6.jpg,stim/latef.jpg,CD,1,2,,,,,0,25,25,24,,,,,,,,,,,,,,2,1,0.71643315163,,,,,,PLC_L_D2S1,P30,60.0229612727,02,C,2015_Aug_14_1416,Y,
stim/negf.jpg,stim/posf.jpg,stim/3.jpg,stim/1.jpg,stim/latef.jpg,EF,1,2,,,,,0,26,26,48,,,,,,,,,,,,,,2,1,0.799737547838,,,,,,PLC_L_D2S1,P30,60.0229612727,02,C,2015_Aug_14_1416,Y,
stim/posf.jpg,stim/negf.jpg,stim/6.jpg,stim/4.jpg,stim/latef.jpg,CD,2,4,,,,,0,27,27,34,,,,,,,,,,,,,,4,1,0.783083745235,,,,,,PLC_L_D2S1,P30,60.0229612727,02,C,2015_Aug_14_1416,Y,
stim/negf.jpg,stim/posf.jpg,stim/6.jpg,stim/4.jpg,stim/latef.jpg,CD,2,4,,,,,0,28,28,39,,,,,,,,,,,,,,4,1,0.7831173119,,,,,,PLC_L_D2S1,P30,60.0229612727,02,C,2015_Aug_14_1416,Y,
stim/negf.jpg,stim/posf.jpg,stim/6.jpg,stim/4.jpg,stim/latef.jpg,CD,2,4,,,,,0,29,29,38,,,,,,,,,,,,,,4,1,0.766401999985,,,,,,PLC_L_D2S1,P30,60.0229612727,02,C,2015_Aug_14_1416,Y,
stim/posf.jpg,stim/negf.jpg,stim/5.jpg,stim/2.jpg,stim/latef.jpg,AB,1,2,,,,,0,30,30,3,,,,,,,,,,,,,,2,1,1.08298761964,,,,,,PLC_L_D2S1,P30,60.0229612727,02,C,2015_Aug_14_1416,Y,
stim/negf.jpg,stim/posf.jpg,stim/2.jpg,stim/5.jpg,stim/latef.jpg,AB,2,4,,,,,0,31,31,18,,,,,,,,,,,,,,4,1,0.73309977519,,,,,,PLC_L_D2S1,P30,60.0229612727,02,C,2015_Aug_14_1416,Y,
stim/posf.jpg,stim/negf.jpg,stim/6.jpg,stim/4.jpg,stim/latef.jpg,CD,2,4,,,,,0,32,32,33,,,,,,,,,,,,,,4,1,0.866404330794,,,,,,PLC_L_D2S1,P30,60.0229612727,02,C,2015_Aug_14_1416,Y,
stim/posf.jpg,stim/negf.jpg,stim/2.jpg,stim/5.jpg,stim/latef.jpg,AB,2,4,,,,,0,33,33,11,,,,,,,,,,,,,,4,1,0.883048698882,,,,,,PLC_L_D2S1,P30,60.0229612727,02,C,2015_Aug_14_1416,Y,
stim/posf.jpg,stim/negf.jpg,stim/6.jpg,stim/4.jpg,stim/latef.jpg,CD,2,4,,,,,0,34,34,31,,,,,,,,,,,,,,4,1,0.633140731273,,,,,,PLC_L_D2S1,P30,60.0229612727,02,C,2015_Aug_14_1416,Y,
stim/posf.jpg,stim/negf.jpg,stim/4.jpg,stim/6.jpg,stim/latef.jpg,CD,1,2,,,,,0,35,35,22,,,,,,,,,,,,,,2,1,0.766407118743,,,,,,PLC_L_D2S1,P30,60.0229612727,02,C,2015_Aug_14_1416,Y,
stim/posf.jpg,stim/negf.jpg,stim/1.jpg,stim/3.jpg,stim/latef.jpg,EF,2,4,,,,,0,36,36,52,,,,,,,,,,,,,,4,1,1.19960814731,,,,,,PLC_L_D2S1,P30,60.0229612727,02,C,2015_Aug_14_1416,Y,
stim/negf.jpg,stim/posf.jpg,stim/4.jpg,stim/6.jpg,stim/latef.jpg,CD,1,2,,,,,0,37,37,28,,,,,,,,,,,,,,2,1,0.649805781911,,,,,,PLC_L_D2S1,P30,60.0229612727,02,C,2015_Aug_14_1416,Y,
stim/posf.jpg,stim/negf.jpg,stim/1.jpg,stim/3.jpg,stim/latef.jpg,EF,2,4,,,,,0,38,38,51,,,,,,,,,,,,,,4,1,0.833072614492,,,,,,PLC_L_D2S1,P30,60.0229612727,02,C,2015_Aug_14_1416,Y,
stim/posf.jpg,stim/negf.jpg,stim/4.jpg,stim/6.jpg,stim/latef.jpg,CD,1,2,,,,,0,39,39,25,,,,,,,,,,,,,,2,1,0.716428080992,,,,,,PLC_L_D2S1,P30,60.0229612727,02,C,2015_Aug_14_1416,Y,
stim/posf.jpg,stim/negf.jpg,stim/3.jpg,stim/1.jpg,stim/latef.jpg,EF,1,2,,,,,0,40,40,45,,,,,,,,,,,,,,2,1,1.01632934188,,,,,,PLC_L_D2S1,P30,60.0229612727,02,C,2015_Aug_14_1416,Y,
stim/posf.jpg,stim/negf.jpg,stim/5.jpg,stim/2.jpg,stim/latef.jpg,AB,1,2,,,,,0,41,41,5,,,,,,,,,,,,,,2,1,0.833048419185,,,,,,PLC_L_D2S1,P30,60.0229612727,02,C,2015_Aug_14_1416,Y,
stim/negf.jpg,stim/posf.jpg,stim/3.jpg,stim/1.jpg,stim/latef.jpg,EF,1,2,,,,,0,42,42,49,,,,,,,,,,,,,,2,1,0.683158959707,,,,,,PLC_L_D2S1,P30,60.0229612727,02,C,2015_Aug_14_1416,Y,
stim/posf.jpg,stim/negf.jpg,stim/1.jpg,stim/3.jpg,stim/latef.jpg,EF,2,4,,,,,0,43,43,54,,,,,,,,,,,,,,4,1,1.01633504711,,,,,,PLC_L_D2S1,P30,60.0229612727,02,C,2015_Aug_14_1416,Y,
stim/posf.jpg,stim/negf.jpg,stim/5.jpg,stim/2.jpg,stim/latef.jpg,AB,1,2,,,,,0,44,44,7,,,,,,,,,,,,,,2,1,0.683116454763,,,,,,PLC_L_D2S1,P30,60.0229612727,02,C,2015_Aug_14_1416,Y,
stim/negf.jpg,stim/posf.jpg,stim/6.jpg,stim/4.jpg,stim/latef.jpg,CD,2,4,,,,,0,45,45,37,,,,,,,,,,,,,,4,1,0.583134042601,,,,,,PLC_L_D2S1,P30,60.0229612727,02,C,2015_Aug_14_1416,Y,
stim/posf.jpg,stim/negf.jpg,stim/6.jpg,stim/4.jpg,stim/latef.jpg,CD,2,4,,,,,0,46,46,32,,,,,,,,,,,,,,4,1,0.916359825866,,,,,,PLC_L_D2S1,P30,60.0229612727,02,C,2015_Aug_14_1416,Y,
stim/posf.jpg,stim/negf.jpg,stim/3.jpg,stim/1.jpg,stim/latef.jpg,EF,1,2,,,,,0,47,47,40,,,,,,,,,,,,,,2,1,1.23290317216,,,,,,PLC_L_D2S1,P30,60.0229612727,02,C,2015_Aug_14_1416,Y,
stim/negf.jpg,stim/posf.jpg,stim/4.jpg,stim/6.jpg,stim/latef.jpg,CD,1,2,,,,,0,48,48,29,,,,,,,,,,,,,,2,1,0.983009231509,,,,,,PLC_L_D2S1,P30,60.0229612727,02,C,2015_Aug_14_1416,Y,
stim/posf.jpg,stim/negf.jpg,stim/6.jpg,stim/4.jpg,stim/latef.jpg,CD,2,4,,,,,0,49,49,30,,,,,,,,,,,,,,4,1,0.783141859084,,,,,,PLC_L_D2S1,P30,60.0229612727,02,C,2015_Aug_14_1416,Y,
stim/posf.jpg,stim/negf.jpg,stim/3.jpg,stim/1.jpg,stim/latef.jpg,EF,1,2,,,,,0,50,50,42,,,,,,,,,,,,,,2,1,0.899671915249,,,,,,PLC_L_D2S1,P30,60.0229612727,02,C,2015_Aug_14_1416,Y,
stim/posf.jpg,stim/negf.jpg,stim/4.jpg,stim/6.jpg,stim/latef.jpg,CD,1,2,,,,,0,51,51,23,,,,,,,,,,,,,,2,1,0.683073029526,,,,,,PLC_L_D2S1,P30,60.0229612727,02,C,2015_Aug_14_1416,Y,
stim/posf.jpg,stim/negf.jpg,stim/3.jpg,stim/1.jpg,stim/latef.jpg,EF,1,2,,,,,0,52,52,43,,,,,,,,,,,,,,2,1,0.949688913617,,,,,,PLC_L_D2S1,P30,60.0229612727,02,C,2015_Aug_14_1416,Y,
stim/posf.jpg,stim/negf.jpg,stim/1.jpg,stim/3.jpg,stim/latef.jpg,EF,2,4,,,,,0,53,53,50,,,,,,,,,,,,,,4,1,0.966368279938,,,,,,PLC_L_D2S1,P30,60.0229612727,02,C,2015_Aug_14_1416,Y,
stim/posf.jpg,stim/negf.jpg,stim/2.jpg,stim/5.jpg,stim/latef.jpg,AB,2,4,,,,,0,54,54,16,,,,,,,,,,,,,,4,1,0.649770215261,,,,,,PLC_L_D2S1,P30,60.0229612727,02,C,2015_Aug_14_1416,Y,
stim/negf.jpg,stim/posf.jpg,stim/3.jpg,stim/1.jpg,stim/latef.jpg,EF,1,2,,,,,0,55,55,47,,,,,,,,,,,,,,2,1,0.716436829798,,,,,,PLC_L_D2S1,P30,60.0229612727,02,C,2015_Aug_14_1416,Y,
stim/negf.jpg,stim/posf.jpg,stim/1.jpg,stim/3.jpg,stim/latef.jpg,EF,2,4,,,,,0,56,56,56,,,,,,,,,,,,,,4,1,0.966348592868,,,,,,PLC_L_D2S1,P30,60.0229612727,02,C,2015_Aug_14_1416,Y,
stim/posf.jpg,stim/negf.jpg,stim/5.jpg,stim/2.jpg,stim/latef.jpg,AB,1,2,,,,,0,57,57,6,,,,,,,,,,,,,,2,1,0.69976008,,,,,,PLC_L_D2S1,P30,60.0229612727,02,C,2015_Aug_14_1416,Y,
stim/posf.jpg,stim/negf.jpg,stim/6.jpg,stim/4.jpg,stim/latef.jpg,CD,2,4,,,,,0,58,58,35,,,,,,,,,,,,,,4,1,0.583037697461,,,,,,PLC_L_D2S1,P30,60.0229612727,02,C,2015_Aug_14_1416,Y,
stim/posf.jpg,stim/negf.jpg,stim/2.jpg,stim/5.jpg,stim/latef.jpg,AB,2,4,,,,,0,59,59,12,,,,,,,,,,,,,,4,1,0.716417924677,,,,,,PLC_L_D2S1,P30,60.0229612727,02,C,2015_Aug_14_1416,Y,
,,,,,,,,,,,,,,,,,,,,,,,,,,,,,,,,-0.9453125,0.98828125,1,0,0,PLC_L_D2S1,P30,60.0229612727,02,C,2015_Aug_14_1416,Y,
stim/posf.jpg,stim/negf.jpg,stim/5.jpg,stim/2.jpg,stim/latef.jpg,AB,1,2,,,,,,,,,0,0,0,3,,,,,,,,,,2,1,0.966341672619,,,,,,PLC_L_D2S1,P30,60.0229612727,02,C,2015_Aug_14_1416,Y,
stim/negf.jpg,stim/posf.jpg,stim/3.jpg,stim/1.jpg,stim/latef.jpg,EF,1,2,,,,,,,,,0,1,1,49,,,,,,,,,,2,1,0.916349203389,,,,,,PLC_L_D2S1,P30,60.0229612727,02,C,2015_Aug_14_1416,Y,
stim/posf.jpg,stim/negf.jpg,stim/3.jpg,stim/1.jpg,stim/latef.jpg,EF,1,2,,,,,,,,,0,2,2,44,,,,,,,,,,2,1,0.83305630484,,,,,,PLC_L_D2S1,P30,60.0229612727,02,C,2015_Aug_14_1416,Y,
stim/negf.jpg,stim/posf.jpg,stim/1.jpg,stim/3.jpg,stim/latef.jpg,EF,2,4,,,,,,,,,0,3,3,58,,,,,,,,,,4,1,0.966339296697,,,,,,PLC_L_D2S1,P30,60.0229612727,02,C,2015_Aug_14_1416,Y,
stim/negf.jpg,stim/posf.jpg,stim/5.jpg,stim/2.jpg,stim/latef.jpg,AB,1,2,,,,,,,,,0,4,4,9,,,,,,,,,,2,1,0.683110259321,,,,,,PLC_L_D2S1,P30,60.0229612727,02,C,2015_Aug_14_1416,Y,
stim/negf.jpg,stim/posf.jpg,stim/3.jpg,stim/1.jpg,stim/latef.jpg,EF,1,2,,,,,,,,,0,5,5,48,,,,,,,,,,2,1,0.849731974948,,,,,,PLC_L_D2S1,P30,60.0229612727,02,C,2015_Aug_14_1416,Y,
stim/posf.jpg,stim/negf.jpg,stim/2.jpg,stim/5.jpg,stim/latef.jpg,AB,2,4,,,,,,,,,0,6,6,10,,,,,,,,,,4,1,0.683168391215,,,,,,PLC_L_D2S1,P30,60.0229612727,02,C,2015_Aug_14_1416,Y,
stim/negf.jpg,stim/posf.jpg,stim/3.jpg,stim/1.jpg,stim/latef.jpg,EF,1,2,,,,,,,,,0,7,7,46,,,,,,,,,,2,1,0.699763400275,,,,,,PLC_L_D2S1,P30,60.0229612727,02,C,2015_Aug_14_1416,Y,
stim/posf.jpg,stim/negf.jpg,stim/4.jpg,stim/6.jpg,stim/latef.jpg,CD,1,2,,,,,,,,,0,8,8,26,,,,,,,,,,2,1,0.766386556492,,,,,,PLC_L_D2S1,P30,60.0229612727,02,C,2015_Aug_14_1416,Y,
stim/negf.jpg,stim/posf.jpg,stim/6.jpg,stim/4.jpg,stim/latef.jpg,CD,2,4,,,,,,,,,0,9,9,38,,,,,,,,,,4,1,0.616443623732,,,,,,PLC_L_D2S1,P30,60.0229612727,02,C,2015_Aug_14_1416,Y,
stim/posf.jpg,stim/negf.jpg,stim/5.jpg,stim/2.jpg,stim/latef.jpg,AB,1,2,,,,,,,,,0,10,10,2,,,,,,,,,,2,1,0.799716829197,,,,,,PLC_L_D2S1,P30,60.0229612727,02,C,2015_Aug_14_1416,Y,
stim/negf.jpg,stim/posf.jpg,stim/3.jpg,stim/1.jpg,stim/latef.jpg,EF,1,2,,,,,,,,,0,11,11,47,,,,,,,,,,2,1,0.949689298577,,,,,,PLC_L_D2S1,P30,60.0229612727,02,C,2015_Aug_14_1416,Y,
stim/posf.jpg,stim/negf.jpg,stim/5.jpg,stim/2.jpg,stim/latef.jpg,AB,1,2,,,,,,,,,0,12,12,1,,,,,,,,,,2,1,0.86638578958,,,,,,PLC_L_D2S1,P30,60.0229612727,02,C,2015_Aug_14_1416,Y,
stim/posf.jpg,stim/negf.jpg,stim/5.jpg,stim/2.jpg,stim/latef.jpg,AB,1,2,,,,,,,,,0,13,13,0,,,,,,,,,,2,1,0.74973982752,,,,,,PLC_L_D2S1,P30,60.0229612727,02,C,2015_Aug_14_1416,Y,
stim/posf.jpg,stim/negf.jpg,stim/1.jpg,stim/3.jpg,stim/latef.jpg,EF,2,4,,,,,,,,,0,14,14,55,,,,,,,,,,2,0,0.683111838257,,,,,,PLC_L_D2S1,P30,60.0229612727,02,C,2015_Aug_14_1416,Y,
stim/negf.jpg,stim/posf.jpg,stim/1.jpg,stim/3.jpg,stim/latef.jpg,EF,2,4,,,,,,,,,0,15,15,57,,,,,,,,,,4,1,0.683103035316,,,,,,PLC_L_D2S1,P30,60.0229612727,02,C,2015_Aug_14_1416,Y,
stim/negf.jpg,stim/posf.jpg,stim/1.jpg,stim/3.jpg,stim/latef.jpg,EF,2,4,,,,,,,,,0,16,16,56,,,,,,,,,,4,1,0.916360451425,,,,,,PLC_L_D2S1,P30,60.0229612727,02,C,2015_Aug_14_1416,Y,
stim/negf.jpg,stim/posf.jpg,stim/5.jpg,stim/2.jpg,stim/latef.jpg,AB,1,2,,,,,,,,,0,17,17,8,,,,,,,,,,2,1,0.799740329772,,,,,,PLC_L_D2S1,P30,60.0229612727,02,C,2015_Aug_14_1416,Y,
stim/posf.jpg,stim/negf.jpg,stim/1.jpg,stim/3.jpg,stim/latef.jpg,EF,2,4,,,,,,,,,0,18,18,54,,,,,,,,,,4,1,0.733069252111,,,,,,PLC_L_D2S1,P30,60.0229612727,02,C,2015_Aug_14_1416,Y,
stim/negf.jpg,stim/posf.jpg,stim/6.jpg,stim/4.jpg,stim/latef.jpg,CD,2,4,,,,,,,,,0,19,19,37,,,,,,,,,,4,1,0.699777634755,,,,,,PLC_L_D2S1,P30,60.0229612727,02,C,2015_Aug_14_1416,Y,
stim/negf.jpg,stim/posf.jpg,stim/4.jpg,stim/6.jpg,stim/latef.jpg,CD,1,2,,,,,,,,,0,20,20,27,,,,,,,,,,2,1,0.766388751964,,,,,,PLC_L_D2S1,P30,60.0229612727,02,C,2015_Aug_14_1416,Y,
stim/negf.jpg,stim/posf.jpg,stim/6.jpg,stim/4.jpg,stim/latef.jpg,CD,2,4,,,,,,,,,0,21,21,39,,,,,,,,,,2,0,0.916362508553,,,,,,PLC_L_D2S1,P30,60.0229612727,02,C,2015_Aug_14_1416,Y,
stim/posf.jpg,stim/negf.jpg,stim/1.jpg,stim/3.jpg,stim/latef.jpg,EF,2,4,,,,,,,,,0,22,22,50,,,,,,,,,,2,0,1.03301391719,,,,,,PLC_L_D2S1,P30,60.0229612727,02,C,2015_Aug_14_1416,Y,
stim/posf.jpg,stim/negf.jpg,stim/6.jpg,stim/4.jpg,stim/latef.jpg,CD,2,4,,,,,,,,,0,23,23,34,,,,,,,,,,4,1,0.966349819926,,,,,,PLC_L_D2S1,P30,60.0229612727,02,C,2015_Aug_14_1416,Y,
stim/posf.jpg,stim/negf.jpg,stim/2.jpg,stim/5.jpg,stim/latef.jpg,AB,2,4,,,,,,,,,0,24,24,15,,,,,,,,,,4,1,0.849728426102,,,,,,PLC_L_D2S1,P30,60.0229612727,02,C,2015_Aug_14_1416,Y,
stim/posf.jpg,stim/negf.jpg,stim/1.jpg,stim/3.jpg,stim/latef.jpg,EF,2,4,,,,,,,,,0,25,25,51,,,,,,,,,,4,1,0.899708149563,,,,,,PLC_L_D2S1,P30,60.0229612727,02,C,2015_Aug_14_1416,Y,
stim/posf.jpg,stim/negf.jpg,stim/3.jpg,stim/1.jpg,stim/latef.jpg,EF,1,2,,,,,,,,,0,26,26,42,,,,,,,,,,2,1,0.916367088969,,,,,,PLC_L_D2S1,P30,60.0229612727,02,C,2015_Aug_14_1416,Y,
stim/negf.jpg,stim/posf.jpg,stim/4.jpg,stim/6.jpg,stim/latef.jpg,CD,1,2,,,,,,,,,0,27,27,29,,,,,,,,,,2,1,0.71640558492,,,,,,PLC_L_D2S1,P30,60.0229612727,02,C,2015_Aug_14_1416,Y,
stim/posf.jpg,stim/negf.jpg,stim/4.jpg,stim/6.jpg,stim/latef.jpg,CD,1,2,,,,,,,,,0,28,28,25,,,,,,,,,,2,1,0.566480261051,,,,,,PLC_L_D2S1,P30,60.0229612727,02,C,2015_Aug_14_1416,Y,
stim/posf.jpg,stim/negf.jpg,stim/3.jpg,stim/1.jpg,stim/latef.jpg,EF,1,2,,,,,,,,,0,29,29,41,,,,,,,,,,2,1,0.916362761182,,,,,,PLC_L_D2S1,P30,60.0229612727,02,C,2015_Aug_14_1416,Y,
stim/posf.jpg,stim/negf.jpg,stim/3.jpg,stim/1.jpg,stim/latef.jpg,EF,1,2,,,,,,,,,0,30,30,43,,,,,,,,,,2,1,0.866383230201,,,,,,PLC_L_D2S1,P30,60.0229612727,02,C,2015_Aug_14_1416,Y,
stim/posf.jpg,stim/negf.jpg,stim/4.jpg,stim/6.jpg,stim/latef.jpg,CD,1,2,,,,,,,,,0,31,31,23,,,,,,,,,,2,1,0.683114797633,,,,,,PLC_L_D2S1,P30,60.0229612727,02,C,2015_Aug_14_1416,Y,
stim/negf.jpg,stim/posf.jpg,stim/4.jpg,stim/6.jpg,stim/latef.jpg,CD,1,2,,,,,,,,,0,32,32,28,,,,,,,,,,2,1,0.749750434959,,,,,,PLC_L_D2S1,P30,60.0229612727,02,C,2015_Aug_14_1416,Y,
stim/posf.jpg,stim/negf.jpg,stim/6.jpg,stim/4.jpg,stim/latef.jpg,CD,2,4,,,,,,,,,0,33,33,35,,,,,,,,,,4,1,0.583131131345,,,,,,PLC_L_D2S1,P30,60.0229612727,02,C,2015_Aug_14_1416,Y,
stim/posf.jpg,stim/negf.jpg,stim/2.jpg,stim/5.jpg,stim/latef.jpg,AB,2,4,,,,,,,,,0,34,34,14,,,,,,,,,,4,1,0.799790762475,,,,,,PLC_L_D2S1,P30,60.0229612727,02,C,2015_Aug_14_1416,Y,
stim/posf.jpg,stim/negf.jpg,stim/4.jpg,stim/6.jpg,stim/latef.jpg,CD,1,2,,,,,,,,,0,35,35,20,,,,,,,,,,2,1,0.71647084458,,,,,,PLC_L_D2S1,P30,60.0229612727,02,C,2015_Aug_14_1416,Y,
stim/posf.jpg,stim/negf.jpg,stim/5.jpg,stim/2.jpg,stim/latef.jpg,AB,1,2,,,,,,,,,0,36,36,5,,,,,,,,,,2,1,0.749732371937,,,,,,PLC_L_D2S1,P30,60.0229612727,02,C,2015_Aug_14_1416,Y,
stim/posf.jpg,stim/negf.jpg,stim/5.jpg,stim/2.jpg,stim/latef.jpg,AB,1,2,,,,,,,,,0,37,37,7,,,,,,,,,,2,1,0.783087477538,,,,,,PLC_L_D2S1,P30,60.0229612727,02,C,2015_Aug_14_1416,Y,
stim/posf.jpg,stim/negf.jpg,stim/2.jpg,stim/5.jpg,stim/latef.jpg,AB,2,4,,,,,,,,,0,38,38,12,,,,,,,,,,4,1,0.916368087458,,,,,,PLC_L_D2S1,P30,60.0229612727,02,C,2015_Aug_14_1416,Y,
stim/negf.jpg,stim/posf.jpg,stim/2.jpg,stim/5.jpg,stim/latef.jpg,AB,2,4,,,,,,,,,0,39,39,18,,,,,,,,,,4,1,0.61652010436,,,,,,PLC_L_D2S1,P30,60.0229612727,02,C,2015_Aug_14_1416,Y,
stim/posf.jpg,stim/negf.jpg,stim/6.jpg,stim/4.jpg,stim/latef.jpg,CD,2,4,,,,,,,,,0,40,40,31,,,,,,,,,,4,1,0.699827432876,,,,,,PLC_L_D2S1,P30,60.0229612727,02,C,2015_Aug_14_1416,Y,
stim/posf.jpg,stim/negf.jpg,stim/2.jpg,stim/5.jpg,stim/latef.jpg,AB,2,4,,,,,,,,,0,41,41,11,,,,,,,,,,4,1,0.699764338614,,,,,,PLC_L_D2S1,P30,60.0229612727,02,C,2015_Aug_14_1416,Y,
stim/posf.jpg,stim/negf.jpg,stim/6.jpg,stim/4.jpg,stim/latef.jpg,CD,2,4,,,,,,,,,0,42,42,30,,,,,,,,,,4,1,0.783056464237,,,,,,PLC_L_D2S1,P30,60.0229612727,02,C,2015_Aug_14_1416,Y,
stim/posf.jpg,stim/negf.jpg,stim/3.jpg,stim/1.jpg,stim/latef.jpg,EF,1,2,,,,,,,,,0,43,43,40,,,,,,,,,,2,1,0.883127693777,,,,,,PLC_L_D2S1,P30,60.0229612727,02,C,2015_Aug_14_1416,Y,
stim/posf.jpg,stim/negf.jpg,stim/2.jpg,stim/5.jpg,stim/latef.jpg,AB,2,4,,,,,,,,,0,44,44,16,,,,,,,,,,4,1,0.666444673348,,,,,,PLC_L_D2S1,P30,60.0229612727,02,C,2015_Aug_14_1416,Y,
stim/posf.jpg,stim/negf.jpg,stim/5.jpg,stim/2.jpg,stim/latef.jpg,AB,1,2,,,,,,,,,0,45,45,6,,,,,,,,,,2,1,0.933042849302,,,,,,PLC_L_D2S1,P30,60.0229612727,02,C,2015_Aug_14_1416,Y,
stim/negf.jpg,stim/posf.jpg,stim/1.jpg,stim/3.jpg,stim/latef.jpg,EF,2,4,,,,,,,,,0,46,46,59,,,,,,,,,,4,1,0.899717361523,,,,,,PLC_L_D2S1,P30,60.0229612727,02,C,2015_Aug_14_1416,Y,
stim/posf.jpg,stim/negf.jpg,stim/1.jpg,stim/3.jpg,stim/latef.jpg,EF,2,4,,,,,,,,,0,47,47,53,,,,,,,,,,4,1,0.983095778227,,,,,,PLC_L_D2S1,P30,60.0229612727,02,C,2015_Aug_14_1416,Y,
stim/posf.jpg,stim/negf.jpg,stim/2.jpg,stim/5.jpg,stim/latef.jpg,AB,2,4,,,,,,,,,0,48,48,17,,,,,,,,,,4,1,0.799703653356,,,,,,PLC_L_D2S1,P30,60.0229612727,02,C,2015_Aug_14_1416,Y,
stim/posf.jpg,stim/negf.jpg,stim/2.jpg,stim/5.jpg,stim/latef.jpg,AB,2,4,,,,,,,,,0,49,49,13,,,,,,,,,,4,1,1.16627904452,,,,,,PLC_L_D2S1,P30,60.0229612727,02,C,2015_Aug_14_1416,Y,
stim/posf.jpg,stim/negf.jpg,stim/1.jpg,stim/3.jpg,stim/latef.jpg,EF,2,4,,,,,,,,,0,50,50,52,,,,,,,,,,4,1,0.882994578988,,,,,,PLC_L_D2S1,P30,60.0229612727,02,C,2015_Aug_14_1416,Y,
stim/posf.jpg,stim/negf.jpg,stim/6.jpg,stim/4.jpg,stim/latef.jpg,CD,2,4,,,,,,,,,0,51,51,32,,,,,,,,,,4,1,0.816387645206,,,,,,PLC_L_D2S1,P30,60.0229612727,02,C,2015_Aug_14_1416,Y,
stim/posf.jpg,stim/negf.jpg,stim/5.jpg,stim/2.jpg,stim/latef.jpg,AB,1,2,,,,,,,,,0,52,52,4,,,,,,,,,,2,1,0.899716335967,,,,,,PLC_L_D2S1,P30,60.0229612727,02,C,2015_Aug_14_1416,Y,
stim/posf.jpg,stim/negf.jpg,stim/4.jpg,stim/6.jpg,stim/latef.jpg,CD,1,2,,,,,,,,,0,53,53,22,,,,,,,,,,2,1,0.816405187931,,,,,,PLC_L_D2S1,P30,60.0229612727,02,C,2015_Aug_14_1416,Y,
stim/negf.jpg,stim/posf.jpg,stim/2.jpg,stim/5.jpg,stim/latef.jpg,AB,2,4,,,,,,,,,0,54,54,19,,,,,,,,,,4,1,0.866391368486,,,,,,PLC_L_D2S1,P30,60.0229612727,02,C,2015_Aug_14_1416,Y,
stim/posf.jpg,stim/negf.jpg,stim/6.jpg,stim/4.jpg,stim/latef.jpg,CD,2,4,,,,,,,,,0,55,55,36,,,,,,,,,,4,1,0.666438835798,,,,,,PLC_L_D2S1,P30,60.0229612727,02,C,2015_Aug_14_1416,Y,
stim/posf.jpg,stim/negf.jpg,stim/3.jpg,stim/1.jpg,stim/latef.jpg,EF,1,2,,,,,,,,,0,56,56,45,,,,,,,,,,2,1,0.899781770062,,,,,,PLC_L_D2S1,P30,60.0229612727,02,C,2015_Aug_14_1416,Y,
stim/posf.jpg,stim/negf.jpg,stim/4.jpg,stim/6.jpg,stim/latef.jpg,CD,1,2,,,,,,,,,0,57,57,24,,,,,,,,,,2,1,0.616438132044,,,,,,PLC_L_D2S1,P30,60.0229612727,02,C,2015_Aug_14_1416,Y,
stim/posf.jpg,stim/negf.jpg,stim/6.jpg,stim/4.jpg,stim/latef.jpg,CD,2,4,,,,,,,,,0,58,58,33,,,,,,,,,,4,1,0.633120695333,,,,,,PLC_L_D2S1,P30,60.0229612727,02,C,2015_Aug_14_1416,Y,
stim/posf.jpg,stim/negf.jpg,stim/4.jpg,stim/6.jpg,stim/latef.jpg,CD,1,2,,,,,,,,,0,59,59,21,,,,,,,,,,2,1,0.83306767919,,,,,,PLC_L_D2S1,P30,60.0229612727,02,C,2015_Aug_14_1416,Y,
,,,,,,,,,,,,,,,,,,,,,,,,,,,,,,,,-0.953125,0.9921875,1,0,0,PLC_L_D2S1,P30,60.0229612727,02,C,2015_Aug_14_1416,Y,
stim/negf.jpg,stim/posf.jpg,stim/3.jpg,stim/1.jpg,stim/latef.jpg,EF,1,2,,,,,,,,,,,,,0,0,0,46,,,,,,2,1,0.966284707634,,,,,,PLC_L_D2S1,P30,60.0229612727,02,C,2015_Aug_14_1416,Y,
stim/posf.jpg,stim/negf.jpg,stim/2.jpg,stim/5.jpg,stim/latef.jpg,AB,2,4,,,,,,,,,,,,,0,1,1,14,,,,,,4,1,0.783056383035,,,,,,PLC_L_D2S1,P30,60.0229612727,02,C,2015_Aug_14_1416,Y,
stim/negf.jpg,stim/posf.jpg,stim/3.jpg,stim/1.jpg,stim/latef.jpg,EF,1,2,,,,,,,,,,,,,0,2,2,47,,,,,,2,1,0.799735084699,,,,,,PLC_L_D2S1,P30,60.0229612727,02,C,2015_Aug_14_1416,Y,
stim/posf.jpg,stim/negf.jpg,stim/3.jpg,stim/1.jpg,stim/latef.jpg,EF,1,2,,,,,,,,,,,,,0,3,3,40,,,,,,2,1,0.799758353696,,,,,,PLC_L_D2S1,P30,60.0229612727,02,C,2015_Aug_14_1416,Y,
stim/negf.jpg,stim/posf.jpg,stim/1.jpg,stim/3.jpg,stim/latef.jpg,EF,2,4,,,,,,,,,,,,,0,4,4,56,,,,,,4,1,0.599819712634,,,,,,PLC_L_D2S1,P30,60.0229612727,02,C,2015_Aug_14_1416,Y,
stim/posf.jpg,stim/negf.jpg,stim/2.jpg,stim/5.jpg,stim/latef.jpg,AB,2,4,,,,,,,,,,,,,0,5,5,15,,,,,,4,1,0.64980094285,,,,,,PLC_L_D2S1,P30,60.0229612727,02,C,2015_Aug_14_1416,Y,
stim/negf.jpg,stim/posf.jpg,stim/5.jpg,stim/2.jpg,stim/latef.jpg,AB,1,2,,,,,,,,,,,,,0,6,6,8,,,,,,2,1,0.683138168886,,,,,,PLC_L_D2S1,P30,60.0229612727,02,C,2015_Aug_14_1416,Y,
stim/posf.jpg,stim/negf.jpg,stim/5.jpg,stim/2.jpg,stim/latef.jpg,AB,1,2,,,,,,,,,,,,,0,7,7,3,,,,,,2,1,0.799730347892,,,,,,PLC_L_D2S1,P30,60.0229612727,02,C,2015_Aug_14_1416,Y,
stim/posf.jpg,stim/negf.jpg,stim/6.jpg,stim/4.jpg,stim/latef.jpg,CD,2,4,,,,,,,,,,,,,0,8,8,32,,,,,,4,1,0.733135435072,,,,,,PLC_L_D2S1,P30,60.0229612727,02,C,2015_Aug_14_1416,Y,
stim/posf.jpg,stim/negf.jpg,stim/1.jpg,stim/3.jpg,stim/latef.jpg,EF,2,4,,,,,,,,,,,,,0,9,9,51,,,,,,4,1,1.01634849362,,,,,,PLC_L_D2S1,P30,60.0229612727,02,C,2015_Aug_14_1416,Y,
stim/posf.jpg,stim/negf.jpg,stim/4.jpg,stim/6.jpg,stim/latef.jpg,CD,1,2,,,,,,,,,,,,,0,10,10,23,,,,,,2,1,0.699754831919,,,,,,PLC_L_D2S1,P30,60.0229612727,02,C,2015_Aug_14_1416,Y,
stim/posf.jpg,stim/negf.jpg,stim/6.jpg,stim/4.jpg,stim/latef.jpg,CD,2,4,,,,,,,,,,,,,0,11,11,30,,,,,,4,1,0.56646085067,,,,,,PLC_L_D2S1,P30,60.0229612727,02,C,2015_Aug_14_1416,Y,
stim/negf.jpg,stim/posf.jpg,stim/6.jpg,stim/4.jpg,stim/latef.jpg,CD,2,4,,,,,,,,,,,,,0,12,12,38,,,,,,4,1,0.566487253479,,,,,,PLC_L_D2S1,P30,60.0229612727,02,C,2015_Aug_14_1416,Y,
stim/posf.jpg,stim/negf.jpg,stim/5.jpg,stim/2.jpg,stim/latef.jpg,AB,1,2,,,,,,,,,,,,,0,13,13,1,,,,,,2,1,0.649836885437,,,,,,PLC_L_D2S1,P30,60.0229612727,02,C,2015_Aug_14_1416,Y,
stim/negf.jpg,stim/posf.jpg,stim/1.jpg,stim/3.jpg,stim/latef.jpg,EF,2,4,,,,,,,,,,,,,0,14,14,57,,,,,,4,1,0.566461894271,,,,,,PLC_L_D2S1,P30,60.0229612727,02,C,2015_Aug_14_1416,Y,
stim/negf.jpg,stim/posf.jpg,stim/2.jpg,stim/5.jpg,stim/latef.jpg,AB,2,4,,,,,,,,,,,,,0,15,15,19,,,,,,4,1,0.616528038135,,,,,,PLC_L_D2S1,P30,60.0229612727,02,C,2015_Aug_14_1416,Y,
stim/posf.jpg,stim/negf.jpg,stim/4.jpg,stim/6.jpg,stim/latef.jpg,CD,1,2,,,,,,,,,,,,,0,16,16,25,,,,,,2,1,0.633107218743,,,,,,PLC_L_D2S1,P30,60.0229612727,02,C,2015_Aug_14_1416,Y,
stim/negf.jpg,stim/posf.jpg,stim/6.jpg,stim/4.jpg,stim/latef.jpg,CD,2,4,,,,,,,,,,,,,0,17,17,39,,,,,,4,1,0.733085089586,,,,,,PLC_L_D2S1,P30,60.0229612727,02,C,2015_Aug_14_1416,Y,
stim/posf.jpg,stim/negf.jpg,stim/2.jpg,stim/5.jpg,stim/latef.jpg,AB,2,4,,,,,,,,,,,,,0,18,18,17,,,,,,4,1,0.716433443358,,,,,,PLC_L_D2S1,P30,60.0229612727,02,C,2015_Aug_14_1416,Y,
stim/posf.jpg,stim/negf.jpg,stim/6.jpg,stim/4.jpg,stim/latef.jpg,CD,2,4,,,,,,,,,,,,,0,19,19,35,,,,,,4,1,0.566495211314,,,,,,PLC_L_D2S1,P30,60.0229612727,02,C,2015_Aug_14_1416,Y,
stim/posf.jpg,stim/negf.jpg,stim/4.jpg,stim/6.jpg,stim/latef.jpg,CD,1,2,,,,,,,,,,,,,0,20,20,22,,,,,,2,1,0.69974010421,,,,,,PLC_L_D2S1,P30,60.0229612727,02,C,2015_Aug_14_1416,Y,
stim/posf.jpg,stim/negf.jpg,stim/2.jpg,stim/5.jpg,stim/latef.jpg,AB,2,4,,,,,,,,,,,,,0,21,21,10,,,,,,4,1,0.916310713453,,,,,,PLC_L_D2S1,P30,60.0229612727,02,C,2015_Aug_14_1416,Y,
stim/posf.jpg,stim/negf.jpg,stim/5.jpg,stim/2.jpg,stim/latef.jpg,AB,1,2,,,,,,,,,,,,,0,22,22,2,,,,,,2,1,0.666427010323,,,,,,PLC_L_D2S1,P30,60.0229612727,02,C,2015_Aug_14_1416,Y,
stim/negf.jpg,stim/posf.jpg,stim/2.jpg,stim/5.jpg,stim/latef.jpg,AB,2,4,,,,,,,,,,,,,0,23,23,18,,,,,,4,1,0.916357880016,,,,,,PLC_L_D2S1,P30,60.0229612727,02,C,2015_Aug_14_1416,Y,
stim/posf.jpg,stim/negf.jpg,stim/3.jpg,stim/1.jpg,stim/latef.jpg,EF,1,2,,,,,,,,,,,,,0,24,24,42,,,,,,2,1,0.983072764866,,,,,,PLC_L_D2S1,P30,60.0229612727,02,C,2015_Aug_14_1416,Y,
stim/posf.jpg,stim/negf.jpg,stim/3.jpg,stim/1.jpg,stim/latef.jpg,EF,1,2,,,,,,,,,,,,,0,25,25,43,,,,,,2,1,1.01633082759,,,,,,PLC_L_D2S1,P30,60.0229612727,02,C,2015_Aug_14_1416,Y,
stim/negf.jpg,stim/posf.jpg,stim/6.jpg,stim/4.jpg,stim/latef.jpg,CD,2,4,,,,,,,,,,,,,0,26,26,37,,,,,,4,1,0.833072620507,,,,,,PLC_L_D2S1,P30,60.0229612727,02,C,2015_Aug_14_1416,Y,
stim/posf.jpg,stim/negf.jpg,stim/6.jpg,stim/4.jpg,stim/latef.jpg,CD,2,4,,,,,,,,,,,,,0,27,27,33,,,,,,4,1,0.949685918151,,,,,,PLC_L_D2S1,P30,60.0229612727,02,C,2015_Aug_14_1416,Y,
stim/negf.jpg,stim/posf.jpg,stim/4.jpg,stim/6.jpg,stim/latef.jpg,CD,1,2,,,,,,,,,,,,,0,28,28,29,,,,,,2,1,0.666408336779,,,,,,PLC_L_D2S1,P30,60.0229612727,02,C,2015_Aug_14_1416,Y,
stim/posf.jpg,stim/negf.jpg,stim/3.jpg,stim/1.jpg,stim/latef.jpg,EF,1,2,,,,,,,,,,,,,0,29,29,41,,,,,,2,1,0.99967835129,,,,,,PLC_L_D2S1,P30,60.0229612727,02,C,2015_Aug_14_1416,Y,
stim/posf.jpg,stim/negf.jpg,stim/5.jpg,stim/2.jpg,stim/latef.jpg,AB,1,2,,,,,,,,,,,,,0,30,30,0,,,,,,2,1,0.999677614454,,,,,,PLC_L_D2S1,P30,60.0229612727,02,C,2015_Aug_14_1416,Y,
stim/posf.jpg,stim/negf.jpg,stim/6.jpg,stim/4.jpg,stim/latef.jpg,CD,2,4,,,,,,,,,,,,,0,31,31,36,,,,,,4,1,0.583121399087,,,,,,PLC_L_D2S1,P30,60.0229612727,02,C,2015_Aug_14_1416,Y,
stim/negf.jpg,stim/posf.jpg,stim/1.jpg,stim/3.jpg,stim/latef.jpg,EF,2,4,,,,,,,,,,,,,0,32,32,59,,,,,,2,0,0.749758603319,,,,,,PLC_L_D2S1,P30,60.0229612727,02,C,2015_Aug_14_1416,Y,
stim/posf.jpg,stim/negf.jpg,stim/2.jpg,stim/5.jpg,stim/latef.jpg,AB,2,4,,,,,,,,,,,,,0,33,33,16,,,,,,4,1,0.749754212374,,,,,,PLC_L_D2S1,P30,60.0229612727,02,C,2015_Aug_14_1416,Y,
stim/posf.jpg,stim/negf.jpg,stim/3.jpg,stim/1.jpg,stim/latef.jpg,EF,1,2,,,,,,,,,,,,,0,34,34,45,,,,,,2,1,0.599798822565,,,,,,PLC_L_D2S1,P30,60.0229612727,02,C,2015_Aug_14_1416,Y,
stim/posf.jpg,stim/negf.jpg,stim/5.jpg,stim/2.jpg,stim/latef.jpg,AB,1,2,,,,,,,,,,,,,0,35,35,5,,,,,,2,1,0.716422490056,,,,,,PLC_L_D2S1,P30,60.0229612727,02,C,2015_Aug_14_1416,Y,
stim/posf.jpg,stim/negf.jpg,stim/1.jpg,stim/3.jpg,stim/latef.jpg,EF,2,4,,,,,,,,,,,,,0,36,36,53,,,,,,2,0,0.699772140059,,,,,,PLC_L_D2S1,P30,60.0229612727,02,C,2015_Aug_14_1416,Y,
stim/posf.jpg,stim/negf.jpg,stim/4.jpg,stim/6.jpg,stim/latef.jpg,CD,1,2,,,,,,,,,,,,,0,37,37,21,,,,,,2,1,0.683112993135,,,,,,PLC_L_D2S1,P30,60.0229612727,02,C,2015_Aug_14_1416,Y,
stim/negf.jpg,stim/posf.jpg,stim/4.jpg,stim/6.jpg,stim/latef.jpg,CD,1,2,,,,,,,,,,,,,0,38,38,27,,,,,,2,1,0.783095576725,,,,,,PLC_L_D2S1,P30,60.0229612727,02,C,2015_Aug_14_1416,Y,
stim/negf.jpg,stim/posf.jpg,stim/5.jpg,stim/2.jpg,stim/latef.jpg,AB,1,2,,,,,,,,,,,,,0,39,39,9,,,,,,2,1,0.733094587259,,,,,,PLC_L_D2S1,P30,60.0229612727,02,C,2015_Aug_14_1416,Y,
stim/negf.jpg,stim/posf.jpg,stim/1.jpg,stim/3.jpg,stim/latef.jpg,EF,2,4,,,,,,,,,,,,,0,40,40,58,,,,,,2,0,0.966345795896,,,,,,PLC_L_D2S1,P30,60.0229612727,02,C,2015_Aug_14_1416,Y,
stim/posf.jpg,stim/negf.jpg,stim/4.jpg,stim/6.jpg,stim/latef.jpg,CD,1,2,,,,,,,,,,,,,0,41,41,20,,,,,,2,1,0.749768221292,,,,,,PLC_L_D2S1,P30,60.0229612727,02,C,2015_Aug_14_1416,Y,
stim/posf.jpg,stim/negf.jpg,stim/4.jpg,stim/6.jpg,stim/latef.jpg,CD,1,2,,,,,,,,,,,,,0,42,42,26,,,,,,2,1,0.649788753468,,,,,,PLC_L_D2S1,P30,60.0229612727,02,C,2015_Aug_14_1416,Y,
stim/posf.jpg,stim/negf.jpg,stim/1.jpg,stim/3.jpg,stim/latef.jpg,EF,2,4,,,,,,,,,,,,,0,43,43,55,,,,,,4,1,0.883044990639,,,,,,PLC_L_D2S1,P30,60.0229612727,02,C,2015_Aug_14_1416,Y,
stim/posf.jpg,stim/negf.jpg,stim/2.jpg,stim/5.jpg,stim/latef.jpg,AB,2,4,,,,,,,,,,,,,0,44,44,13,,,,,,4,1,0.849665963414,,,,,,PLC_L_D2S1,P30,60.0229612727,02,C,2015_Aug_14_1416,Y,
stim/posf.jpg,stim/negf.jpg,stim/1.jpg,stim/3.jpg,stim/latef.jpg,EF,2,4,,,,,,,,,,,,,0,45,45,50,,,,,,2,0,0.933041153074,,,,,,PLC_L_D2S1,P30,60.0229612727,02,C,2015_Aug_14_1416,Y,
stim/posf.jpg,stim/negf.jpg,stim/5.jpg,stim/2.jpg,stim/latef.jpg,AB,1,2,,,,,,,,,,,,,0,46,46,4,,,,,,2,1,0.733113402155,,,,,,PLC_L_D2S1,P30,60.0229612727,02,C,2015_Aug_14_1416,Y,
stim/posf.jpg,stim/negf.jpg,stim/3.jpg,stim/1.jpg,stim/latef.jpg,EF,1,2,,,,,,,,,,,,,0,47,47,44,,,,,,4,0,0.833080394884,,,,,,PLC_L_D2S1,P30,60.0229612727,02,C,2015_Aug_14_1416,Y,
stim/posf.jpg,stim/negf.jpg,stim/5.jpg,stim/2.jpg,stim/latef.jpg,AB,1,2,,,,,,,,,,,,,0,48,48,7,,,,,,2,1,0.699756107097,,,,,,PLC_L_D2S1,P30,60.0229612727,02,C,2015_Aug_14_1416,Y,
stim/posf.jpg,stim/negf.jpg,stim/1.jpg,stim/3.jpg,stim/latef.jpg,EF,2,4,,,,,,,,,,,,,0,49,49,54,,,,,,2,0,0.983019550229,,,,,,PLC_L_D2S1,P30,60.0229612727,02,C,2015_Aug_14_1416,Y,
stim/negf.jpg,stim/posf.jpg,stim/3.jpg,stim/1.jpg,stim/latef.jpg,EF,1,2,,,,,,,,,,,,,0,50,50,48,,,,,,4,0,1.06630056315,,,,,,PLC_L_D2S1,P30,60.0229612727,02,C,2015_Aug_14_1416,Y,
stim/posf.jpg,stim/negf.jpg,stim/2.jpg,stim/5.jpg,stim/latef.jpg,AB,2,4,,,,,,,,,,,,,0,51,51,11,,,,,,4,1,0.799721662243,,,,,,PLC_L_D2S1,P30,60.0229612727,02,C,2015_Aug_14_1416,Y,
stim/posf.jpg,stim/negf.jpg,stim/6.jpg,stim/4.jpg,stim/latef.jpg,CD,2,4,,,,,,,,,,,,,0,52,52,31,,,,,,4,1,0.733078130239,,,,,,PLC_L_D2S1,P30,60.0229612727,02,C,2015_Aug_14_1416,Y,
stim/posf.jpg,stim/negf.jpg,stim/1.jpg,stim/3.jpg,stim/latef.jpg,EF,2,4,,,,,,,,,,,,,0,53,53,52,,,,,,4,1,0.799744804926,,,,,,PLC_L_D2S1,P30,60.0229612727,02,C,2015_Aug_14_1416,Y,
stim/posf.jpg,stim/negf.jpg,stim/4.jpg,stim/6.jpg,stim/latef.jpg,CD,1,2,,,,,,,,,,,,,0,54,54,24,,,,,,2,1,0.583140024511,,,,,,PLC_L_D2S1,P30,60.0229612727,02,C,2015_Aug_14_1416,Y,
stim/negf.jpg,stim/posf.jpg,stim/4.jpg,stim/6.jpg,stim/latef.jpg,CD,1,2,,,,,,,,,,,,,0,55,55,28,,,,,,2,1,0.583101603747,,,,,,PLC_L_D2S1,P30,60.0229612727,02,C,2015_Aug_14_1416,Y,
stim/negf.jpg,stim/posf.jpg,stim/3.jpg,stim/1.jpg,stim/latef.jpg,EF,1,2,,,,,,,,,,,,,0,56,56,49,,,,,,2,1,1.03298493395,,,,,,PLC_L_D2S1,P30,60.0229612727,02,C,2015_Aug_14_1416,Y,
stim/posf.jpg,stim/negf.jpg,stim/6.jpg,stim/4.jpg,stim/latef.jpg,CD,2,4,,,,,,,,,,,,,0,57,57,34,,,,,,4,1,0.749749836467,,,,,,PLC_L_D2S1,P30,60.0229612727,02,C,2015_Aug_14_1416,Y,
stim/posf.jpg,stim/negf.jpg,stim/5.jpg,stim/2.jpg,stim/latef.jpg,AB,1,2,,,,,,,,,,,,,0,58,58,6,,,,,,2,1,0.666470447591,,,,,,PLC_L_D2S1,P30,60.0229612727,02,C,2015_Aug_14_1416,Y,
stim/posf.jpg,stim/negf.jpg,stim/2.jpg,stim/5.jpg,stim/latef.jpg,AB,2,4,,,,,,,,,,,,,0,59,59,12,,,,,,4,1,0.766412514192,,,,,,PLC_L_D2S1,P30,60.0229612727,02,C,2015_Aug_14_1416,Y,
