fb_corr,fb_incorr,symbol2,symbol1,fb_late,pair,position,correct,block_01.thisRepN,block_01.thisTrialN,block_01.thisN,block_01.thisIndex,block_02.thisRepN,block_02.thisTrialN,block_02.thisN,block_02.thisIndex,block_03.thisRepN,block_03.thisTrialN,block_03.thisN,block_03.thisIndex,block_04.thisRepN,block_04.thisTrialN,block_04.thisN,block_04.thisIndex,mouse.x,mouse.y,mouse.leftButton,mouse.midButton,mouse.rightButton,buttonBox_2.keys,buttonBox_2.corr,buttonBox_2.rt,mouse_2.x,mouse_2.y,mouse_2.leftButton,mouse_2.midButton,mouse_2.rightButton,expName,Participant,frameRate,SessionNumber,Version,date,Group,
,,,,,,,,,,,,,,,,,,,,,,,,-0.375,0.8515625,1,0,0,,,,,,,,,PLC_L_D2S1,P4,60.0173892085,02,B,2014_Dez_18_1504,Y,
stim/negf.jpg,stim/posf.jpg,stim/6.jpg,stim/1.jpg,stim/latef.jpg,EF,2,4,0,0,0,59,,,,,,,,,,,,,,,,,,4,1,0.799799839099,,,,,,PLC_L_D2S1,P4,60.0173892085,02,B,2014_Dez_18_1504,Y,
stim/negf.jpg,stim/posf.jpg,stim/5.jpg,stim/2.jpg,stim/latef.jpg,AB,2,4,0,1,1,19,,,,,,,,,,,,,,,,,,4,1,0.816433674934,,,,,,PLC_L_D2S1,P4,60.0173892085,02,B,2014_Dez_18_1504,Y,
stim/negf.jpg,stim/posf.jpg,stim/1.jpg,stim/6.jpg,stim/latef.jpg,EF,1,2,0,2,2,46,,,,,,,,,,,,,,,,,,2,1,0.599844572597,,,,,,PLC_L_D2S1,P4,60.0173892085,02,B,2014_Dez_18_1504,Y,
stim/posf.jpg,stim/negf.jpg,stim/6.jpg,stim/1.jpg,stim/latef.jpg,EF,2,4,0,3,3,51,,,,,,,,,,,,,,,,,,2,0,0.599799084217,,,,,,PLC_L_D2S1,P4,60.0173892085,02,B,2014_Dez_18_1504,Y,
stim/posf.jpg,stim/negf.jpg,stim/3.jpg,stim/4.jpg,stim/latef.jpg,CD,2,4,0,4,4,31,,,,,,,,,,,,,,,,,,4,1,0.433189148954,,,,,,PLC_L_D2S1,P4,60.0173892085,02,B,2014_Dez_18_1504,Y,
stim/negf.jpg,stim/posf.jpg,stim/2.jpg,stim/5.jpg,stim/latef.jpg,AB,1,2,0,5,5,8,,,,,,,,,,,,,,,,,,2,1,0.516453268772,,,,,,PLC_L_D2S1,P4,60.0173892085,02,B,2014_Dez_18_1504,Y,
stim/posf.jpg,stim/negf.jpg,stim/2.jpg,stim/5.jpg,stim/latef.jpg,AB,1,2,0,6,6,6,,,,,,,,,,,,,,,,,,2,1,0.583147416936,,,,,,PLC_L_D2S1,P4,60.0173892085,02,B,2014_Dez_18_1504,Y,
stim/negf.jpg,stim/posf.jpg,stim/6.jpg,stim/1.jpg,stim/latef.jpg,EF,2,4,0,7,7,56,,,,,,,,,,,,,,,,,,4,1,0.466511794649,,,,,,PLC_L_D2S1,P4,60.0173892085,02,B,2014_Dez_18_1504,Y,
stim/posf.jpg,stim/negf.jpg,stim/3.jpg,stim/4.jpg,stim/latef.jpg,CD,2,4,0,8,8,34,,,,,,,,,,,,,,,,,,4,1,0.516510417215,,,,,,PLC_L_D2S1,P4,60.0173892085,02,B,2014_Dez_18_1504,Y,
stim/posf.jpg,stim/negf.jpg,stim/1.jpg,stim/6.jpg,stim/latef.jpg,EF,1,2,0,9,9,41,,,,,,,,,,,,,,,,,,2,1,0.466503908993,,,,,,PLC_L_D2S1,P4,60.0173892085,02,B,2014_Dez_18_1504,Y,
stim/posf.jpg,stim/negf.jpg,stim/3.jpg,stim/4.jpg,stim/latef.jpg,CD,2,4,0,10,10,30,,,,,,,,,,,,,,,,,,4,1,0.583147687612,,,,,,PLC_L_D2S1,P4,60.0173892085,02,B,2014_Dez_18_1504,Y,
stim/posf.jpg,stim/negf.jpg,stim/6.jpg,stim/1.jpg,stim/latef.jpg,EF,2,4,0,11,11,50,,,,,,,,,,,,,,,,,,4,1,0.766429241886,,,,,,PLC_L_D2S1,P4,60.0173892085,02,B,2014_Dez_18_1504,Y,
stim/posf.jpg,stim/negf.jpg,stim/2.jpg,stim/5.jpg,stim/latef.jpg,AB,1,2,0,12,12,5,,,,,,,,,,,,,,,,,,4,0,0.716417954753,,,,,,PLC_L_D2S1,P4,60.0173892085,02,B,2014_Dez_18_1504,Y,
stim/posf.jpg,stim/negf.jpg,stim/4.jpg,stim/3.jpg,stim/latef.jpg,CD,1,2,0,13,13,25,,,,,,,,,,,,,,,,,,2,1,0.933007679641,,,,,,PLC_L_D2S1,P4,60.0173892085,02,B,2014_Dez_18_1504,Y,
stim/posf.jpg,stim/negf.jpg,stim/1.jpg,stim/6.jpg,stim/latef.jpg,EF,1,2,0,14,14,43,,,,,,,,,,,,,,,,,,2,1,0.866338319261,,,,,,PLC_L_D2S1,P4,60.0173892085,02,B,2014_Dez_18_1504,Y,
stim/posf.jpg,stim/negf.jpg,stim/5.jpg,stim/2.jpg,stim/latef.jpg,AB,2,4,0,15,15,13,,,,,,,,,,,,,,,,,,2,0,0.816445879354,,,,,,PLC_L_D2S1,P4,60.0173892085,02,B,2014_Dez_18_1504,Y,
stim/posf.jpg,stim/negf.jpg,stim/1.jpg,stim/6.jpg,stim/latef.jpg,EF,1,2,0,16,16,45,,,,,,,,,,,,,,,,,,2,1,0.766402246599,,,,,,PLC_L_D2S1,P4,60.0173892085,02,B,2014_Dez_18_1504,Y,
stim/posf.jpg,stim/negf.jpg,stim/2.jpg,stim/5.jpg,stim/latef.jpg,AB,1,2,0,17,17,0,,,,,,,,,,,,,,,,,,4,0,1.23299660003,,,,,,PLC_L_D2S1,P4,60.0173892085,02,B,2014_Dez_18_1504,Y,
stim/posf.jpg,stim/negf.jpg,stim/3.jpg,stim/4.jpg,stim/latef.jpg,CD,2,4,0,18,18,36,,,,,,,,,,,,,,,,,,4,1,0.766420047969,,,,,,PLC_L_D2S1,P4,60.0173892085,02,B,2014_Dez_18_1504,Y,
stim/posf.jpg,stim/negf.jpg,stim/4.jpg,stim/3.jpg,stim/latef.jpg,CD,1,2,0,19,19,23,,,,,,,,,,,,,,,,,,2,1,0.84970438117,,,,,,PLC_L_D2S1,P4,60.0173892085,02,B,2014_Dez_18_1504,Y,
stim/posf.jpg,stim/negf.jpg,stim/5.jpg,stim/2.jpg,stim/latef.jpg,AB,2,4,0,20,20,16,,,,,,,,,,,,,,,,,,4,1,0.649749728197,,,,,,PLC_L_D2S1,P4,60.0173892085,02,B,2014_Dez_18_1504,Y,
stim/posf.jpg,stim/negf.jpg,stim/6.jpg,stim/1.jpg,stim/latef.jpg,EF,2,4,0,21,21,52,,,,,,,,,,,,,,,,,,4,1,0.716371946075,,,,,,PLC_L_D2S1,P4,60.0173892085,02,B,2014_Dez_18_1504,Y,
stim/posf.jpg,stim/negf.jpg,stim/2.jpg,stim/5.jpg,stim/latef.jpg,AB,1,2,0,22,22,3,,,,,,,,,,,,,,,,,,2,1,0.816396108299,,,,,,PLC_L_D2S1,P4,60.0173892085,02,B,2014_Dez_18_1504,Y,
stim/negf.jpg,stim/posf.jpg,stim/3.jpg,stim/4.jpg,stim/latef.jpg,CD,2,4,0,23,23,39,,,,,,,,,,,,,,,,,,4,1,0.766433798242,,,,,,PLC_L_D2S1,P4,60.0173892085,02,B,2014_Dez_18_1504,Y,
stim/negf.jpg,stim/posf.jpg,stim/4.jpg,stim/3.jpg,stim/latef.jpg,CD,1,2,0,24,24,29,,,,,,,,,,,,,,,,,,2,1,0.733100415787,,,,,,PLC_L_D2S1,P4,60.0173892085,02,B,2014_Dez_18_1504,Y,
stim/posf.jpg,stim/negf.jpg,stim/2.jpg,stim/5.jpg,stim/latef.jpg,AB,1,2,0,25,25,4,,,,,,,,,,,,,,,,,,4,0,0.616455184548,,,,,,PLC_L_D2S1,P4,60.0173892085,02,B,2014_Dez_18_1504,Y,
stim/negf.jpg,stim/posf.jpg,stim/5.jpg,stim/2.jpg,stim/latef.jpg,AB,2,4,0,26,26,18,,,,,,,,,,,,,,,,,,2,0,0.999668387456,,,,,,PLC_L_D2S1,P4,60.0173892085,02,B,2014_Dez_18_1504,Y,
stim/negf.jpg,stim/posf.jpg,stim/6.jpg,stim/1.jpg,stim/latef.jpg,EF,2,4,0,27,27,58,,,,,,,,,,,,,,,,,,4,1,1.06634095082,,,,,,PLC_L_D2S1,P4,60.0173892085,02,B,2014_Dez_18_1504,Y,
stim/negf.jpg,stim/posf.jpg,stim/2.jpg,stim/5.jpg,stim/latef.jpg,AB,1,2,0,28,28,9,,,,,,,,,,,,,,,,,,2,1,0.8996888264,,,,,,PLC_L_D2S1,P4,60.0173892085,02,B,2014_Dez_18_1504,Y,
stim/posf.jpg,stim/negf.jpg,stim/4.jpg,stim/3.jpg,stim/latef.jpg,CD,1,2,0,29,29,24,,,,,,,,,,,,,,,,,,2,1,0.78308808806,,,,,,PLC_L_D2S1,P4,60.0173892085,02,B,2014_Dez_18_1504,Y,
stim/negf.jpg,stim/posf.jpg,stim/1.jpg,stim/6.jpg,stim/latef.jpg,EF,1,2,0,30,30,48,,,,,,,,,,,,,,,,,,2,1,0.96633852377,,,,,,PLC_L_D2S1,P4,60.0173892085,02,B,2014_Dez_18_1504,Y,
stim/posf.jpg,stim/negf.jpg,stim/5.jpg,stim/2.jpg,stim/latef.jpg,AB,2,4,0,31,31,10,,,,,,,,,,,,,,,,,,4,1,0.749758251442,,,,,,PLC_L_D2S1,P4,60.0173892085,02,B,2014_Dez_18_1504,Y,
stim/posf.jpg,stim/negf.jpg,stim/2.jpg,stim/5.jpg,stim/latef.jpg,AB,1,2,0,32,32,1,,,,,,,,,,,,,,,,,,2,1,0.633144628988,,,,,,PLC_L_D2S1,P4,60.0173892085,02,B,2014_Dez_18_1504,Y,
stim/posf.jpg,stim/negf.jpg,stim/1.jpg,stim/6.jpg,stim/latef.jpg,EF,1,2,0,33,33,42,,,,,,,,,,,,,,,,,,2,1,0.766417202878,,,,,,PLC_L_D2S1,P4,60.0173892085,02,B,2014_Dez_18_1504,Y,
stim/negf.jpg,stim/posf.jpg,stim/4.jpg,stim/3.jpg,stim/latef.jpg,CD,1,2,0,34,34,27,,,,,,,,,,,,,,,,,,2,1,0.683113820197,,,,,,PLC_L_D2S1,P4,60.0173892085,02,B,2014_Dez_18_1504,Y,
stim/posf.jpg,stim/negf.jpg,stim/3.jpg,stim/4.jpg,stim/latef.jpg,CD,2,4,0,35,35,35,,,,,,,,,,,,,,,,,,4,1,0.716384430192,,,,,,PLC_L_D2S1,P4,60.0173892085,02,B,2014_Dez_18_1504,Y,
stim/posf.jpg,stim/negf.jpg,stim/4.jpg,stim/3.jpg,stim/latef.jpg,CD,1,2,0,36,36,26,,,,,,,,,,,,,,,,,,2,1,0.599815917173,,,,,,PLC_L_D2S1,P4,60.0173892085,02,B,2014_Dez_18_1504,Y,
stim/posf.jpg,stim/negf.jpg,stim/3.jpg,stim/4.jpg,stim/latef.jpg,CD,2,4,0,37,37,32,,,,,,,,,,,,,,,,,,4,1,0.566493415839,,,,,,PLC_L_D2S1,P4,60.0173892085,02,B,2014_Dez_18_1504,Y,
stim/posf.jpg,stim/negf.jpg,stim/5.jpg,stim/2.jpg,stim/latef.jpg,AB,2,4,0,38,38,15,,,,,,,,,,,,,,,,,,4,1,0.649781487357,,,,,,PLC_L_D2S1,P4,60.0173892085,02,B,2014_Dez_18_1504,Y,
stim/posf.jpg,stim/negf.jpg,stim/4.jpg,stim/3.jpg,stim/latef.jpg,CD,1,2,0,39,39,22,,,,,,,,,,,,,,,,,,2,1,0.649788398584,,,,,,PLC_L_D2S1,P4,60.0173892085,02,B,2014_Dez_18_1504,Y,
stim/posf.jpg,stim/negf.jpg,stim/4.jpg,stim/3.jpg,stim/latef.jpg,CD,1,2,0,40,40,21,,,,,,,,,,,,,,,,,,2,1,0.616392670732,,,,,,PLC_L_D2S1,P4,60.0173892085,02,B,2014_Dez_18_1504,Y,
stim/posf.jpg,stim/negf.jpg,stim/5.jpg,stim/2.jpg,stim/latef.jpg,AB,2,4,0,41,41,12,,,,,,,,,,,,,,,,,,4,1,0.583116972053,,,,,,PLC_L_D2S1,P4,60.0173892085,02,B,2014_Dez_18_1504,Y,
stim/posf.jpg,stim/negf.jpg,stim/5.jpg,stim/2.jpg,stim/latef.jpg,AB,2,4,0,42,42,17,,,,,,,,,,,,,,,,,,4,1,0.63314402448,,,,,,PLC_L_D2S1,P4,60.0173892085,02,B,2014_Dez_18_1504,Y,
stim/negf.jpg,stim/posf.jpg,stim/3.jpg,stim/4.jpg,stim/latef.jpg,CD,2,4,0,43,43,37,,,,,,,,,,,,,,,,,,2,0,0.499889916618,,,,,,PLC_L_D2S1,P4,60.0173892085,02,B,2014_Dez_18_1504,Y,
stim/posf.jpg,stim/negf.jpg,stim/5.jpg,stim/2.jpg,stim/latef.jpg,AB,2,4,0,44,44,11,,,,,,,,,,,,,,,,,,4,1,0.499831074954,,,,,,PLC_L_D2S1,P4,60.0173892085,02,B,2014_Dez_18_1504,Y,
stim/negf.jpg,stim/posf.jpg,stim/1.jpg,stim/6.jpg,stim/latef.jpg,EF,1,2,0,45,45,47,,,,,,,,,,,,,,,,,,2,1,0.716437067391,,,,,,PLC_L_D2S1,P4,60.0173892085,02,B,2014_Dez_18_1504,Y,
stim/posf.jpg,stim/negf.jpg,stim/2.jpg,stim/5.jpg,stim/latef.jpg,AB,1,2,0,46,46,2,,,,,,,,,,,,,,,,,,2,1,0.683111311945,,,,,,PLC_L_D2S1,P4,60.0173892085,02,B,2014_Dez_18_1504,Y,
stim/posf.jpg,stim/negf.jpg,stim/1.jpg,stim/6.jpg,stim/latef.jpg,EF,1,2,0,47,47,44,,,,,,,,,,,,,,,,,,2,1,0.649774618236,,,,,,PLC_L_D2S1,P4,60.0173892085,02,B,2014_Dez_18_1504,Y,
stim/posf.jpg,stim/negf.jpg,stim/2.jpg,stim/5.jpg,stim/latef.jpg,AB,1,2,0,48,48,7,,,,,,,,,,,,,,,,,,2,1,0.649788542943,,,,,,PLC_L_D2S1,P4,60.0173892085,02,B,2014_Dez_18_1504,Y,
stim/negf.jpg,stim/posf.jpg,stim/1.jpg,stim/6.jpg,stim/latef.jpg,EF,1,2,0,49,49,49,,,,,,,,,,,,,,,,,,2,1,0.59978184525,,,,,,PLC_L_D2S1,P4,60.0173892085,02,B,2014_Dez_18_1504,Y,
stim/posf.jpg,stim/negf.jpg,stim/1.jpg,stim/6.jpg,stim/latef.jpg,EF,1,2,0,50,50,40,,,,,,,,,,,,,,,,,,2,1,0.533170664882,,,,,,PLC_L_D2S1,P4,60.0173892085,02,B,2014_Dez_18_1504,Y,
stim/posf.jpg,stim/negf.jpg,stim/6.jpg,stim/1.jpg,stim/latef.jpg,EF,2,4,0,51,51,54,,,,,,,,,,,,,,,,,,4,1,0.783070930293,,,,,,PLC_L_D2S1,P4,60.0173892085,02,B,2014_Dez_18_1504,Y,
stim/negf.jpg,stim/posf.jpg,stim/4.jpg,stim/3.jpg,stim/latef.jpg,CD,1,2,0,52,52,28,,,,,,,,,,,,,,,,,,2,1,0.883036238825,,,,,,PLC_L_D2S1,P4,60.0173892085,02,B,2014_Dez_18_1504,Y,
stim/posf.jpg,stim/negf.jpg,stim/3.jpg,stim/4.jpg,stim/latef.jpg,CD,2,4,0,53,53,33,,,,,,,,,,,,,,,,,,4,1,0.69976693709,,,,,,PLC_L_D2S1,P4,60.0173892085,02,B,2014_Dez_18_1504,Y,
stim/negf.jpg,stim/posf.jpg,stim/3.jpg,stim/4.jpg,stim/latef.jpg,CD,2,4,0,54,54,38,,,,,,,,,,,,,,,,,,4,1,0.783075537778,,,,,,PLC_L_D2S1,P4,60.0173892085,02,B,2014_Dez_18_1504,Y,
stim/posf.jpg,stim/negf.jpg,stim/6.jpg,stim/1.jpg,stim/latef.jpg,EF,2,4,0,55,55,55,,,,,,,,,,,,,,,,,,4,1,0.666431016308,,,,,,PLC_L_D2S1,P4,60.0173892085,02,B,2014_Dez_18_1504,Y,
stim/posf.jpg,stim/negf.jpg,stim/6.jpg,stim/1.jpg,stim/latef.jpg,EF,2,4,0,56,56,53,,,,,,,,,,,,,,,,,,4,1,0.666436294464,,,,,,PLC_L_D2S1,P4,60.0173892085,02,B,2014_Dez_18_1504,Y,
stim/negf.jpg,stim/posf.jpg,stim/6.jpg,stim/1.jpg,stim/latef.jpg,EF,2,4,0,57,57,57,,,,,,,,,,,,,,,,,,4,1,0.516494119594,,,,,,PLC_L_D2S1,P4,60.0173892085,02,B,2014_Dez_18_1504,Y,
stim/posf.jpg,stim/negf.jpg,stim/5.jpg,stim/2.jpg,stim/latef.jpg,AB,2,4,0,58,58,14,,,,,,,,,,,,,,,,,,4,1,0.599840861348,,,,,,PLC_L_D2S1,P4,60.0173892085,02,B,2014_Dez_18_1504,Y,
stim/posf.jpg,stim/negf.jpg,stim/4.jpg,stim/3.jpg,stim/latef.jpg,CD,1,2,0,59,59,20,,,,,,,,,,,,,,,,,,2,1,0.549817712649,,,,,,PLC_L_D2S1,P4,60.0173892085,02,B,2014_Dez_18_1504,Y,
,,,,,,,,,,,,,,,,,,,,,,,,,,,,,,,,-0.1078125,0.783203125,1,0,0,PLC_L_D2S1,P4,60.0173892085,02,B,2014_Dez_18_1504,Y,
stim/posf.jpg,stim/negf.jpg,stim/1.jpg,stim/6.jpg,stim/latef.jpg,EF,1,2,,,,,0,0,0,44,,,,,,,,,,,,,,2,1,0.649786801603,,,,,,PLC_L_D2S1,P4,60.0173892085,02,B,2014_Dez_18_1504,Y,
stim/negf.jpg,stim/posf.jpg,stim/1.jpg,stim/6.jpg,stim/latef.jpg,EF,1,2,,,,,0,1,1,49,,,,,,,,,,,,,,2,1,0.549814091623,,,,,,PLC_L_D2S1,P4,60.0173892085,02,B,2014_Dez_18_1504,Y,
stim/posf.jpg,stim/negf.jpg,stim/6.jpg,stim/1.jpg,stim/latef.jpg,EF,2,4,,,,,0,2,2,51,,,,,,,,,,,,,,2,0,0.583065176954,,,,,,PLC_L_D2S1,P4,60.0173892085,02,B,2014_Dez_18_1504,Y,
stim/posf.jpg,stim/negf.jpg,stim/2.jpg,stim/5.jpg,stim/latef.jpg,AB,1,2,,,,,0,3,3,2,,,,,,,,,,,,,,2,1,0.766412273591,,,,,,PLC_L_D2S1,P4,60.0173892085,02,B,2014_Dez_18_1504,Y,
stim/posf.jpg,stim/negf.jpg,stim/5.jpg,stim/2.jpg,stim/latef.jpg,AB,2,4,,,,,0,4,4,12,,,,,,,,,,,,,,4,1,0.683096385741,,,,,,PLC_L_D2S1,P4,60.0173892085,02,B,2014_Dez_18_1504,Y,
stim/negf.jpg,stim/posf.jpg,stim/6.jpg,stim/1.jpg,stim/latef.jpg,EF,2,4,,,,,0,5,5,56,,,,,,,,,,,,,,4,1,0.633121044203,,,,,,PLC_L_D2S1,P4,60.0173892085,02,B,2014_Dez_18_1504,Y,
stim/posf.jpg,stim/negf.jpg,stim/5.jpg,stim/2.jpg,stim/latef.jpg,AB,2,4,,,,,0,6,6,10,,,,,,,,,,,,,,4,1,0.499866713784,,,,,,PLC_L_D2S1,P4,60.0173892085,02,B,2014_Dez_18_1504,Y,
stim/posf.jpg,stim/negf.jpg,stim/3.jpg,stim/4.jpg,stim/latef.jpg,CD,2,4,,,,,0,7,7,36,,,,,,,,,,,,,,4,1,0.616436267397,,,,,,PLC_L_D2S1,P4,60.0173892085,02,B,2014_Dez_18_1504,Y,
stim/negf.jpg,stim/posf.jpg,stim/5.jpg,stim/2.jpg,stim/latef.jpg,AB,2,4,,,,,0,8,8,19,,,,,,,,,,,,,,4,1,0.882991688784,,,,,,PLC_L_D2S1,P4,60.0173892085,02,B,2014_Dez_18_1504,Y,
stim/posf.jpg,stim/negf.jpg,stim/1.jpg,stim/6.jpg,stim/latef.jpg,EF,1,2,,,,,0,9,9,41,,,,,,,,,,,,,,2,1,0.949678089638,,,,,,PLC_L_D2S1,P4,60.0173892085,02,B,2014_Dez_18_1504,Y,
stim/negf.jpg,stim/posf.jpg,stim/1.jpg,stim/6.jpg,stim/latef.jpg,EF,1,2,,,,,0,10,10,46,,,,,,,,,,,,,,2,1,0.699726359952,,,,,,PLC_L_D2S1,P4,60.0173892085,02,B,2014_Dez_18_1504,Y,
stim/negf.jpg,stim/posf.jpg,stim/4.jpg,stim/3.jpg,stim/latef.jpg,CD,1,2,,,,,0,11,11,27,,,,,,,,,,,,,,2,1,0.783066626567,,,,,,PLC_L_D2S1,P4,60.0173892085,02,B,2014_Dez_18_1504,Y,
stim/posf.jpg,stim/negf.jpg,stim/5.jpg,stim/2.jpg,stim/latef.jpg,AB,2,4,,,,,0,12,12,11,,,,,,,,,,,,,,4,1,0.599837514004,,,,,,PLC_L_D2S1,P4,60.0173892085,02,B,2014_Dez_18_1504,Y,
stim/posf.jpg,stim/negf.jpg,stim/1.jpg,stim/6.jpg,stim/latef.jpg,EF,1,2,,,,,0,13,13,43,,,,,,,,,,,,,,2,1,0.616460919843,,,,,,PLC_L_D2S1,P4,60.0173892085,02,B,2014_Dez_18_1504,Y,
stim/negf.jpg,stim/posf.jpg,stim/1.jpg,stim/6.jpg,stim/latef.jpg,EF,1,2,,,,,0,14,14,47,,,,,,,,,,,,,,2,1,0.616473394937,,,,,,PLC_L_D2S1,P4,60.0173892085,02,B,2014_Dez_18_1504,Y,
stim/negf.jpg,stim/posf.jpg,stim/3.jpg,stim/4.jpg,stim/latef.jpg,CD,2,4,,,,,0,15,15,39,,,,,,,,,,,,,,4,1,0.799741607958,,,,,,PLC_L_D2S1,P4,60.0173892085,02,B,2014_Dez_18_1504,Y,
stim/posf.jpg,stim/negf.jpg,stim/4.jpg,stim/3.jpg,stim/latef.jpg,CD,1,2,,,,,0,16,16,22,,,,,,,,,,,,,,2,1,0.516427329118,,,,,,PLC_L_D2S1,P4,60.0173892085,02,B,2014_Dez_18_1504,Y,
stim/posf.jpg,stim/negf.jpg,stim/1.jpg,stim/6.jpg,stim/latef.jpg,EF,1,2,,,,,0,17,17,45,,,,,,,,,,,,,,2,1,0.566483079075,,,,,,PLC_L_D2S1,P4,60.0173892085,02,B,2014_Dez_18_1504,Y,
stim/posf.jpg,stim/negf.jpg,stim/5.jpg,stim/2.jpg,stim/latef.jpg,AB,2,4,,,,,0,18,18,14,,,,,,,,,,,,,,4,1,0.566478528734,,,,,,PLC_L_D2S1,P4,60.0173892085,02,B,2014_Dez_18_1504,Y,
stim/negf.jpg,stim/posf.jpg,stim/5.jpg,stim/2.jpg,stim/latef.jpg,AB,2,4,,,,,0,19,19,18,,,,,,,,,,,,,,4,1,0.533169031812,,,,,,PLC_L_D2S1,P4,60.0173892085,02,B,2014_Dez_18_1504,Y,
stim/posf.jpg,stim/negf.jpg,stim/2.jpg,stim/5.jpg,stim/latef.jpg,AB,1,2,,,,,0,20,20,3,,,,,,,,,,,,,,2,1,0.566495439884,,,,,,PLC_L_D2S1,P4,60.0173892085,02,B,2014_Dez_18_1504,Y,
stim/posf.jpg,stim/negf.jpg,stim/2.jpg,stim/5.jpg,stim/latef.jpg,AB,1,2,,,,,0,21,21,0,,,,,,,,,,,,,,2,1,0.783090629394,,,,,,PLC_L_D2S1,P4,60.0173892085,02,B,2014_Dez_18_1504,Y,
stim/posf.jpg,stim/negf.jpg,stim/4.jpg,stim/3.jpg,stim/latef.jpg,CD,1,2,,,,,0,22,22,23,,,,,,,,,,,,,,2,1,0.766407774378,,,,,,PLC_L_D2S1,P4,60.0173892085,02,B,2014_Dez_18_1504,Y,
stim/posf.jpg,stim/negf.jpg,stim/4.jpg,stim/3.jpg,stim/latef.jpg,CD,1,2,,,,,0,23,23,25,,,,,,,,,,,,,,2,1,0.583151877053,,,,,,PLC_L_D2S1,P4,60.0173892085,02,B,2014_Dez_18_1504,Y,
stim/posf.jpg,stim/negf.jpg,stim/2.jpg,stim/5.jpg,stim/latef.jpg,AB,1,2,,,,,0,24,24,7,,,,,,,,,,,,,,4,0,0.549832326073,,,,,,PLC_L_D2S1,P4,60.0173892085,02,B,2014_Dez_18_1504,Y,
stim/posf.jpg,stim/negf.jpg,stim/2.jpg,stim/5.jpg,stim/latef.jpg,AB,1,2,,,,,0,25,25,1,,,,,,,,,,,,,,2,1,0.683106614236,,,,,,PLC_L_D2S1,P4,60.0173892085,02,B,2014_Dez_18_1504,Y,
stim/posf.jpg,stim/negf.jpg,stim/6.jpg,stim/1.jpg,stim/latef.jpg,EF,2,4,,,,,0,26,26,55,,,,,,,,,,,,,,4,1,0.633185915895,,,,,,PLC_L_D2S1,P4,60.0173892085,02,B,2014_Dez_18_1504,Y,
stim/posf.jpg,stim/negf.jpg,stim/3.jpg,stim/4.jpg,stim/latef.jpg,CD,2,4,,,,,0,27,27,35,,,,,,,,,,,,,,4,1,0.599826593785,,,,,,PLC_L_D2S1,P4,60.0173892085,02,B,2014_Dez_18_1504,Y,
stim/posf.jpg,stim/negf.jpg,stim/4.jpg,stim/3.jpg,stim/latef.jpg,CD,1,2,,,,,0,28,28,26,,,,,,,,,,,,,,2,1,0.633110466839,,,,,,PLC_L_D2S1,P4,60.0173892085,02,B,2014_Dez_18_1504,Y,
stim/negf.jpg,stim/posf.jpg,stim/6.jpg,stim/1.jpg,stim/latef.jpg,EF,2,4,,,,,0,29,29,59,,,,,,,,,,,,,,4,1,0.633119350982,,,,,,PLC_L_D2S1,P4,60.0173892085,02,B,2014_Dez_18_1504,Y,
stim/posf.jpg,stim/negf.jpg,stim/3.jpg,stim/4.jpg,stim/latef.jpg,CD,2,4,,,,,0,30,30,30,,,,,,,,,,,,,,4,1,0.649794627108,,,,,,PLC_L_D2S1,P4,60.0173892085,02,B,2014_Dez_18_1504,Y,
stim/negf.jpg,stim/posf.jpg,stim/3.jpg,stim/4.jpg,stim/latef.jpg,CD,2,4,,,,,0,31,31,37,,,,,,,,,,,,,,4,1,0.583153705612,,,,,,PLC_L_D2S1,P4,60.0173892085,02,B,2014_Dez_18_1504,Y,
stim/posf.jpg,stim/negf.jpg,stim/1.jpg,stim/6.jpg,stim/latef.jpg,EF,1,2,,,,,0,32,32,40,,,,,,,,,,,,,,2,1,0.549805664618,,,,,,PLC_L_D2S1,P4,60.0173892085,02,B,2014_Dez_18_1504,Y,
stim/posf.jpg,stim/negf.jpg,stim/6.jpg,stim/1.jpg,stim/latef.jpg,EF,2,4,,,,,0,33,33,50,,,,,,,,,,,,,,4,1,0.549818536703,,,,,,PLC_L_D2S1,P4,60.0173892085,02,B,2014_Dez_18_1504,Y,
stim/posf.jpg,stim/negf.jpg,stim/5.jpg,stim/2.jpg,stim/latef.jpg,AB,2,4,,,,,0,34,34,13,,,,,,,,,,,,,,4,1,0.566455190563,,,,,,PLC_L_D2S1,P4,60.0173892085,02,B,2014_Dez_18_1504,Y,
stim/posf.jpg,stim/negf.jpg,stim/6.jpg,stim/1.jpg,stim/latef.jpg,EF,2,4,,,,,0,35,35,54,,,,,,,,,,,,,,4,1,0.533167522049,,,,,,PLC_L_D2S1,P4,60.0173892085,02,B,2014_Dez_18_1504,Y,
stim/posf.jpg,stim/negf.jpg,stim/5.jpg,stim/2.jpg,stim/latef.jpg,AB,2,4,,,,,0,36,36,17,,,,,,,,,,,,,,4,1,0.649772254344,,,,,,PLC_L_D2S1,P4,60.0173892085,02,B,2014_Dez_18_1504,Y,
stim/posf.jpg,stim/negf.jpg,stim/5.jpg,stim/2.jpg,stim/latef.jpg,AB,2,4,,,,,0,37,37,16,,,,,,,,,,,,,,4,1,0.499809562334,,,,,,PLC_L_D2S1,P4,60.0173892085,02,B,2014_Dez_18_1504,Y,
stim/posf.jpg,stim/negf.jpg,stim/1.jpg,stim/6.jpg,stim/latef.jpg,EF,1,2,,,,,0,38,38,42,,,,,,,,,,,,,,2,1,0.666443816212,,,,,,PLC_L_D2S1,P4,60.0173892085,02,B,2014_Dez_18_1504,Y,
stim/posf.jpg,stim/negf.jpg,stim/3.jpg,stim/4.jpg,stim/latef.jpg,CD,2,4,,,,,0,39,39,33,,,,,,,,,,,,,,4,1,0.516508835271,,,,,,PLC_L_D2S1,P4,60.0173892085,02,B,2014_Dez_18_1504,Y,
stim/negf.jpg,stim/posf.jpg,stim/4.jpg,stim/3.jpg,stim/latef.jpg,CD,1,2,,,,,0,40,40,28,,,,,,,,,,,,,,2,1,0.416559409327,,,,,,PLC_L_D2S1,P4,60.0173892085,02,B,2014_Dez_18_1504,Y,
stim/posf.jpg,stim/negf.jpg,stim/6.jpg,stim/1.jpg,stim/latef.jpg,EF,2,4,,,,,0,41,41,52,,,,,,,,,,,,,,4,1,0.549799571431,,,,,,PLC_L_D2S1,P4,60.0173892085,02,B,2014_Dez_18_1504,Y,
stim/posf.jpg,stim/negf.jpg,stim/2.jpg,stim/5.jpg,stim/latef.jpg,AB,1,2,,,,,0,42,42,6,,,,,,,,,,,,,,2,1,0.649777228743,,,,,,PLC_L_D2S1,P4,60.0173892085,02,B,2014_Dez_18_1504,Y,
stim/negf.jpg,stim/posf.jpg,stim/6.jpg,stim/1.jpg,stim/latef.jpg,EF,2,4,,,,,0,43,43,58,,,,,,,,,,,,,,4,1,0.49985987173,,,,,,PLC_L_D2S1,P4,60.0173892085,02,B,2014_Dez_18_1504,Y,
stim/posf.jpg,stim/negf.jpg,stim/4.jpg,stim/3.jpg,stim/latef.jpg,CD,1,2,,,,,0,44,44,24,,,,,,,,,,,,,,2,1,0.599728591515,,,,,,PLC_L_D2S1,P4,60.0173892085,02,B,2014_Dez_18_1504,Y,
stim/negf.jpg,stim/posf.jpg,stim/3.jpg,stim/4.jpg,stim/latef.jpg,CD,2,4,,,,,0,45,45,38,,,,,,,,,,,,,,4,1,0.899708191668,,,,,,PLC_L_D2S1,P4,60.0173892085,02,B,2014_Dez_18_1504,Y,
stim/posf.jpg,stim/negf.jpg,stim/3.jpg,stim/4.jpg,stim/latef.jpg,CD,2,4,,,,,0,46,46,34,,,,,,,,,,,,,,4,1,0.633112869828,,,,,,PLC_L_D2S1,P4,60.0173892085,02,B,2014_Dez_18_1504,Y,
stim/posf.jpg,stim/negf.jpg,stim/6.jpg,stim/1.jpg,stim/latef.jpg,EF,2,4,,,,,0,47,47,53,,,,,,,,,,,,,,4,1,0.766413133736,,,,,,PLC_L_D2S1,P4,60.0173892085,02,B,2014_Dez_18_1504,Y,
stim/negf.jpg,stim/posf.jpg,stim/2.jpg,stim/5.jpg,stim/latef.jpg,AB,1,2,,,,,0,48,48,8,,,,,,,,,,,,,,2,1,0.633126168977,,,,,,PLC_L_D2S1,P4,60.0173892085,02,B,2014_Dez_18_1504,Y,
stim/negf.jpg,stim/posf.jpg,stim/1.jpg,stim/6.jpg,stim/latef.jpg,EF,1,2,,,,,0,49,49,48,,,,,,,,,,,,,,2,1,0.549812578853,,,,,,PLC_L_D2S1,P4,60.0173892085,02,B,2014_Dez_18_1504,Y,
stim/posf.jpg,stim/negf.jpg,stim/4.jpg,stim/3.jpg,stim/latef.jpg,CD,1,2,,,,,0,50,50,21,,,,,,,,,,,,,,2,1,0.499835423793,,,,,,PLC_L_D2S1,P4,60.0173892085,02,B,2014_Dez_18_1504,Y,
stim/posf.jpg,stim/negf.jpg,stim/2.jpg,stim/5.jpg,stim/latef.jpg,AB,1,2,,,,,0,51,51,4,,,,,,,,,,,,,,2,1,0.533116009654,,,,,,PLC_L_D2S1,P4,60.0173892085,02,B,2014_Dez_18_1504,Y,
stim/negf.jpg,stim/posf.jpg,stim/6.jpg,stim/1.jpg,stim/latef.jpg,EF,2,4,,,,,0,52,52,57,,,,,,,,,,,,,,4,1,0.516444303426,,,,,,PLC_L_D2S1,P4,60.0173892085,02,B,2014_Dez_18_1504,Y,
stim/posf.jpg,stim/negf.jpg,stim/5.jpg,stim/2.jpg,stim/latef.jpg,AB,2,4,,,,,0,53,53,15,,,,,,,,,,,,,,2,0,0.46649835114,,,,,,PLC_L_D2S1,P4,60.0173892085,02,B,2014_Dez_18_1504,Y,
stim/negf.jpg,stim/posf.jpg,stim/2.jpg,stim/5.jpg,stim/latef.jpg,AB,1,2,,,,,0,54,54,9,,,,,,,,,,,,,,2,1,0.549811968331,,,,,,PLC_L_D2S1,P4,60.0173892085,02,B,2014_Dez_18_1504,Y,
stim/posf.jpg,stim/negf.jpg,stim/4.jpg,stim/3.jpg,stim/latef.jpg,CD,1,2,,,,,0,55,55,20,,,,,,,,,,,,,,2,1,0.666462898776,,,,,,PLC_L_D2S1,P4,60.0173892085,02,B,2014_Dez_18_1504,Y,
stim/posf.jpg,stim/negf.jpg,stim/3.jpg,stim/4.jpg,stim/latef.jpg,CD,2,4,,,,,0,56,56,31,,,,,,,,,,,,,,4,1,0.699779758047,,,,,,PLC_L_D2S1,P4,60.0173892085,02,B,2014_Dez_18_1504,Y,
stim/posf.jpg,stim/negf.jpg,stim/2.jpg,stim/5.jpg,stim/latef.jpg,AB,1,2,,,,,0,57,57,5,,,,,,,,,,,,,,2,1,0.49983046744,,,,,,PLC_L_D2S1,P4,60.0173892085,02,B,2014_Dez_18_1504,Y,
stim/posf.jpg,stim/negf.jpg,stim/3.jpg,stim/4.jpg,stim/latef.jpg,CD,2,4,,,,,0,58,58,32,,,,,,,,,,,,,,4,1,0.599765613792,,,,,,PLC_L_D2S1,P4,60.0173892085,02,B,2014_Dez_18_1504,Y,
stim/negf.jpg,stim/posf.jpg,stim/4.jpg,stim/3.jpg,stim/latef.jpg,CD,1,2,,,,,0,59,59,29,,,,,,,,,,,,,,2,1,0.516481491117,,,,,,PLC_L_D2S1,P4,60.0173892085,02,B,2014_Dez_18_1504,Y,
,,,,,,,,,,,,,,,,,,,,,,,,,,,,,,,,-0.1078125,0.78515625,1,0,0,PLC_L_D2S1,P4,60.0173892085,02,B,2014_Dez_18_1504,Y,
stim/posf.jpg,stim/negf.jpg,stim/4.jpg,stim/3.jpg,stim/latef.jpg,CD,1,2,,,,,,,,,0,0,0,22,,,,,,,,,,2,1,0.733128602041,,,,,,PLC_L_D2S1,P4,60.0173892085,02,B,2014_Dez_18_1504,Y,
stim/posf.jpg,stim/negf.jpg,stim/3.jpg,stim/4.jpg,stim/latef.jpg,CD,2,4,,,,,,,,,0,1,1,31,,,,,,,,,,4,1,0.516484062526,,,,,,PLC_L_D2S1,P4,60.0173892085,02,B,2014_Dez_18_1504,Y,
stim/posf.jpg,stim/negf.jpg,stim/3.jpg,stim/4.jpg,stim/latef.jpg,CD,2,4,,,,,,,,,0,2,2,32,,,,,,,,,,4,1,0.516475626499,,,,,,PLC_L_D2S1,P4,60.0173892085,02,B,2014_Dez_18_1504,Y,
stim/posf.jpg,stim/negf.jpg,stim/2.jpg,stim/5.jpg,stim/latef.jpg,AB,1,2,,,,,,,,,0,3,3,1,,,,,,,,,,2,1,0.633096755663,,,,,,PLC_L_D2S1,P4,60.0173892085,02,B,2014_Dez_18_1504,Y,
stim/negf.jpg,stim/posf.jpg,stim/6.jpg,stim/1.jpg,stim/latef.jpg,EF,2,4,,,,,,,,,0,4,4,56,,,,,,,,,,4,1,0.733132307276,,,,,,PLC_L_D2S1,P4,60.0173892085,02,B,2014_Dez_18_1504,Y,
stim/posf.jpg,stim/negf.jpg,stim/4.jpg,stim/3.jpg,stim/latef.jpg,CD,1,2,,,,,,,,,0,5,5,21,,,,,,,,,,2,1,1.1496197382,,,,,,PLC_L_D2S1,P4,60.0173892085,02,B,2014_Dez_18_1504,Y,
stim/posf.jpg,stim/negf.jpg,stim/3.jpg,stim/4.jpg,stim/latef.jpg,CD,2,4,,,,,,,,,0,6,6,30,,,,,,,,,,4,1,0.599782714416,,,,,,PLC_L_D2S1,P4,60.0173892085,02,B,2014_Dez_18_1504,Y,
stim/posf.jpg,stim/negf.jpg,stim/6.jpg,stim/1.jpg,stim/latef.jpg,EF,2,4,,,,,,,,,0,7,7,50,,,,,,,,,,4,1,0.683118199111,,,,,,PLC_L_D2S1,P4,60.0173892085,02,B,2014_Dez_18_1504,Y,
stim/posf.jpg,stim/negf.jpg,stim/6.jpg,stim/1.jpg,stim/latef.jpg,EF,2,4,,,,,,,,,0,8,8,54,,,,,,,,,,4,1,0.549821044954,,,,,,PLC_L_D2S1,P4,60.0173892085,02,B,2014_Dez_18_1504,Y,
stim/posf.jpg,stim/negf.jpg,stim/5.jpg,stim/2.jpg,stim/latef.jpg,AB,2,4,,,,,,,,,0,9,9,16,,,,,,,,,,4,1,0.733082833964,,,,,,PLC_L_D2S1,P4,60.0173892085,02,B,2014_Dez_18_1504,Y,
stim/posf.jpg,stim/negf.jpg,stim/1.jpg,stim/6.jpg,stim/latef.jpg,EF,1,2,,,,,,,,,0,10,10,45,,,,,,,,,,2,1,0.933027706558,,,,,,PLC_L_D2S1,P4,60.0173892085,02,B,2014_Dez_18_1504,Y,
stim/posf.jpg,stim/negf.jpg,stim/3.jpg,stim/4.jpg,stim/latef.jpg,CD,2,4,,,,,,,,,0,11,11,34,,,,,,,,,,4,1,0.566481930211,,,,,,PLC_L_D2S1,P4,60.0173892085,02,B,2014_Dez_18_1504,Y,
stim/posf.jpg,stim/negf.jpg,stim/5.jpg,stim/2.jpg,stim/latef.jpg,AB,2,4,,,,,,,,,0,12,12,10,,,,,,,,,,4,1,0.899694059443,,,,,,PLC_L_D2S1,P4,60.0173892085,02,B,2014_Dez_18_1504,Y,
stim/negf.jpg,stim/posf.jpg,stim/3.jpg,stim/4.jpg,stim/latef.jpg,CD,2,4,,,,,,,,,0,13,13,38,,,,,,,,,,4,1,0.516539313238,,,,,,PLC_L_D2S1,P4,60.0173892085,02,B,2014_Dez_18_1504,Y,
stim/posf.jpg,stim/negf.jpg,stim/5.jpg,stim/2.jpg,stim/latef.jpg,AB,2,4,,,,,,,,,0,14,14,11,,,,,,,,,,4,1,0.599859688273,,,,,,PLC_L_D2S1,P4,60.0173892085,02,B,2014_Dez_18_1504,Y,
stim/posf.jpg,stim/negf.jpg,stim/1.jpg,stim/6.jpg,stim/latef.jpg,EF,1,2,,,,,,,,,0,15,15,40,,,,,,,,,,2,1,0.53315488455,,,,,,PLC_L_D2S1,P4,60.0173892085,02,B,2014_Dez_18_1504,Y,
stim/negf.jpg,stim/posf.jpg,stim/6.jpg,stim/1.jpg,stim/latef.jpg,EF,2,4,,,,,,,,,0,16,16,58,,,,,,,,,,4,1,0.68308222645,,,,,,PLC_L_D2S1,P4,60.0173892085,02,B,2014_Dez_18_1504,Y,
stim/posf.jpg,stim/negf.jpg,stim/1.jpg,stim/6.jpg,stim/latef.jpg,EF,1,2,,,,,,,,,0,17,17,44,,,,,,,,,,2,1,0.716357410846,,,,,,PLC_L_D2S1,P4,60.0173892085,02,B,2014_Dez_18_1504,Y,
stim/negf.jpg,stim/posf.jpg,stim/6.jpg,stim/1.jpg,stim/latef.jpg,EF,2,4,,,,,,,,,0,18,18,59,,,,,,,,,,4,1,0.799719490831,,,,,,PLC_L_D2S1,P4,60.0173892085,02,B,2014_Dez_18_1504,Y,
stim/posf.jpg,stim/negf.jpg,stim/5.jpg,stim/2.jpg,stim/latef.jpg,AB,2,4,,,,,,,,,0,19,19,14,,,,,,,,,,4,1,0.783080403907,,,,,,PLC_L_D2S1,P4,60.0173892085,02,B,2014_Dez_18_1504,Y,
stim/negf.jpg,stim/posf.jpg,stim/4.jpg,stim/3.jpg,stim/latef.jpg,CD,1,2,,,,,,,,,0,20,20,27,,,,,,,,,,2,1,0.666443756062,,,,,,PLC_L_D2S1,P4,60.0173892085,02,B,2014_Dez_18_1504,Y,
stim/posf.jpg,stim/negf.jpg,stim/4.jpg,stim/3.jpg,stim/latef.jpg,CD,1,2,,,,,,,,,0,21,21,25,,,,,,,,,,2,1,0.499822717123,,,,,,PLC_L_D2S1,P4,60.0173892085,02,B,2014_Dez_18_1504,Y,
stim/negf.jpg,stim/posf.jpg,stim/2.jpg,stim/5.jpg,stim/latef.jpg,AB,1,2,,,,,,,,,0,22,22,8,,,,,,,,,,2,1,0.616481199389,,,,,,PLC_L_D2S1,P4,60.0173892085,02,B,2014_Dez_18_1504,Y,
stim/posf.jpg,stim/negf.jpg,stim/2.jpg,stim/5.jpg,stim/latef.jpg,AB,1,2,,,,,,,,,0,23,23,5,,,,,,,,,,2,1,0.633131179465,,,,,,PLC_L_D2S1,P4,60.0173892085,02,B,2014_Dez_18_1504,Y,
stim/negf.jpg,stim/posf.jpg,stim/1.jpg,stim/6.jpg,stim/latef.jpg,EF,1,2,,,,,,,,,0,24,24,46,,,,,,,,,,2,1,0.616425287028,,,,,,PLC_L_D2S1,P4,60.0173892085,02,B,2014_Dez_18_1504,Y,
stim/posf.jpg,stim/negf.jpg,stim/6.jpg,stim/1.jpg,stim/latef.jpg,EF,2,4,,,,,,,,,0,25,25,55,,,,,,,,,,4,1,0.633110376613,,,,,,PLC_L_D2S1,P4,60.0173892085,02,B,2014_Dez_18_1504,Y,
stim/negf.jpg,stim/posf.jpg,stim/3.jpg,stim/4.jpg,stim/latef.jpg,CD,2,4,,,,,,,,,0,26,26,39,,,,,,,,,,4,1,0.599776392659,,,,,,PLC_L_D2S1,P4,60.0173892085,02,B,2014_Dez_18_1504,Y,
stim/negf.jpg,stim/posf.jpg,stim/4.jpg,stim/3.jpg,stim/latef.jpg,CD,1,2,,,,,,,,,0,27,27,28,,,,,,,,,,2,1,0.483166959647,,,,,,PLC_L_D2S1,P4,60.0173892085,02,B,2014_Dez_18_1504,Y,
stim/posf.jpg,stim/negf.jpg,stim/3.jpg,stim/4.jpg,stim/latef.jpg,CD,2,4,,,,,,,,,0,28,28,35,,,,,,,,,,4,1,0.483157669491,,,,,,PLC_L_D2S1,P4,60.0173892085,02,B,2014_Dez_18_1504,Y,
stim/negf.jpg,stim/posf.jpg,stim/5.jpg,stim/2.jpg,stim/latef.jpg,AB,2,4,,,,,,,,,0,29,29,18,,,,,,,,,,4,1,0.683106659349,,,,,,PLC_L_D2S1,P4,60.0173892085,02,B,2014_Dez_18_1504,Y,
stim/posf.jpg,stim/negf.jpg,stim/2.jpg,stim/5.jpg,stim/latef.jpg,AB,1,2,,,,,,,,,0,30,30,6,,,,,,,,,,2,1,0.583141507206,,,,,,PLC_L_D2S1,P4,60.0173892085,02,B,2014_Dez_18_1504,Y,
stim/posf.jpg,stim/negf.jpg,stim/3.jpg,stim/4.jpg,stim/latef.jpg,CD,2,4,,,,,,,,,0,31,31,36,,,,,,,,,,4,1,0.466451034203,,,,,,PLC_L_D2S1,P4,60.0173892085,02,B,2014_Dez_18_1504,Y,
stim/negf.jpg,stim/posf.jpg,stim/3.jpg,stim/4.jpg,stim/latef.jpg,CD,2,4,,,,,,,,,0,32,32,37,,,,,,,,,,4,1,0.499792711333,,,,,,PLC_L_D2S1,P4,60.0173892085,02,B,2014_Dez_18_1504,Y,
stim/negf.jpg,stim/posf.jpg,stim/4.jpg,stim/3.jpg,stim/latef.jpg,CD,1,2,,,,,,,,,0,33,33,29,,,,,,,,,,2,1,0.466505310486,,,,,,PLC_L_D2S1,P4,60.0173892085,02,B,2014_Dez_18_1504,Y,
stim/negf.jpg,stim/posf.jpg,stim/1.jpg,stim/6.jpg,stim/latef.jpg,EF,1,2,,,,,,,,,0,34,34,47,,,,,,,,,,2,1,0.683110963076,,,,,,PLC_L_D2S1,P4,60.0173892085,02,B,2014_Dez_18_1504,Y,
stim/posf.jpg,stim/negf.jpg,stim/5.jpg,stim/2.jpg,stim/latef.jpg,AB,2,4,,,,,,,,,0,35,35,12,,,,,,,,,,4,1,0.51654046511,,,,,,PLC_L_D2S1,P4,60.0173892085,02,B,2014_Dez_18_1504,Y,
stim/negf.jpg,stim/posf.jpg,stim/1.jpg,stim/6.jpg,stim/latef.jpg,EF,1,2,,,,,,,,,0,36,36,48,,,,,,,,,,2,1,0.499849537973,,,,,,PLC_L_D2S1,P4,60.0173892085,02,B,2014_Dez_18_1504,Y,
stim/negf.jpg,stim/posf.jpg,stim/6.jpg,stim/1.jpg,stim/latef.jpg,EF,2,4,,,,,,,,,0,37,37,57,,,,,,,,,,2,0,0.566517235209,,,,,,PLC_L_D2S1,P4,60.0173892085,02,B,2014_Dez_18_1504,Y,
stim/posf.jpg,stim/negf.jpg,stim/2.jpg,stim/5.jpg,stim/latef.jpg,AB,1,2,,,,,,,,,0,38,38,4,,,,,,,,,,4,0,0.783112695393,,,,,,PLC_L_D2S1,P4,60.0173892085,02,B,2014_Dez_18_1504,Y,
stim/posf.jpg,stim/negf.jpg,stim/3.jpg,stim/4.jpg,stim/latef.jpg,CD,2,4,,,,,,,,,0,39,39,33,,,,,,,,,,2,0,0.649789252712,,,,,,PLC_L_D2S1,P4,60.0173892085,02,B,2014_Dez_18_1504,Y,
stim/posf.jpg,stim/negf.jpg,stim/6.jpg,stim/1.jpg,stim/latef.jpg,EF,2,4,,,,,,,,,0,40,40,51,,,,,,,,,,2,0,0.516488889557,,,,,,PLC_L_D2S1,P4,60.0173892085,02,B,2014_Dez_18_1504,Y,
stim/posf.jpg,stim/negf.jpg,stim/6.jpg,stim/1.jpg,stim/latef.jpg,EF,2,4,,,,,,,,,0,41,41,53,,,,,,,,,,4,1,0.633128033624,,,,,,PLC_L_D2S1,P4,60.0173892085,02,B,2014_Dez_18_1504,Y,
stim/posf.jpg,stim/negf.jpg,stim/2.jpg,stim/5.jpg,stim/latef.jpg,AB,1,2,,,,,,,,,0,42,42,0,,,,,,,,,,2,1,0.666459602559,,,,,,PLC_L_D2S1,P4,60.0173892085,02,B,2014_Dez_18_1504,Y,
stim/posf.jpg,stim/negf.jpg,stim/5.jpg,stim/2.jpg,stim/latef.jpg,AB,2,4,,,,,,,,,0,43,43,13,,,,,,,,,,4,1,0.549805090187,,,,,,PLC_L_D2S1,P4,60.0173892085,02,B,2014_Dez_18_1504,Y,
stim/posf.jpg,stim/negf.jpg,stim/4.jpg,stim/3.jpg,stim/latef.jpg,CD,1,2,,,,,,,,,0,44,44,26,,,,,,,,,,2,1,0.449846163563,,,,,,PLC_L_D2S1,P4,60.0173892085,02,B,2014_Dez_18_1504,Y,
stim/posf.jpg,stim/negf.jpg,stim/2.jpg,stim/5.jpg,stim/latef.jpg,AB,1,2,,,,,,,,,0,45,45,3,,,,,,,,,,2,1,0.733094578236,,,,,,PLC_L_D2S1,P4,60.0173892085,02,B,2014_Dez_18_1504,Y,
stim/posf.jpg,stim/negf.jpg,stim/4.jpg,stim/3.jpg,stim/latef.jpg,CD,1,2,,,,,,,,,0,46,46,24,,,,,,,,,,4,0,0.599755668002,,,,,,PLC_L_D2S1,P4,60.0173892085,02,B,2014_Dez_18_1504,Y,
stim/negf.jpg,stim/posf.jpg,stim/2.jpg,stim/5.jpg,stim/latef.jpg,AB,1,2,,,,,,,,,0,47,47,9,,,,,,,,,,2,1,0.816387882798,,,,,,PLC_L_D2S1,P4,60.0173892085,02,B,2014_Dez_18_1504,Y,
stim/posf.jpg,stim/negf.jpg,stim/2.jpg,stim/5.jpg,stim/latef.jpg,AB,1,2,,,,,,,,,0,48,48,7,,,,,,,,,,2,1,0.699746188375,,,,,,PLC_L_D2S1,P4,60.0173892085,02,B,2014_Dez_18_1504,Y,
stim/posf.jpg,stim/negf.jpg,stim/1.jpg,stim/6.jpg,stim/latef.jpg,EF,1,2,,,,,,,,,0,49,49,42,,,,,,,,,,2,1,0.883063592003,,,,,,PLC_L_D2S1,P4,60.0173892085,02,B,2014_Dez_18_1504,Y,
stim/posf.jpg,stim/negf.jpg,stim/6.jpg,stim/1.jpg,stim/latef.jpg,EF,2,4,,,,,,,,,0,50,50,52,,,,,,,,,,4,1,0.566470023533,,,,,,PLC_L_D2S1,P4,60.0173892085,02,B,2014_Dez_18_1504,Y,
stim/posf.jpg,stim/negf.jpg,stim/4.jpg,stim/3.jpg,stim/latef.jpg,CD,1,2,,,,,,,,,0,51,51,23,,,,,,,,,,2,1,0.633128214074,,,,,,PLC_L_D2S1,P4,60.0173892085,02,B,2014_Dez_18_1504,Y,
stim/posf.jpg,stim/negf.jpg,stim/4.jpg,stim/3.jpg,stim/latef.jpg,CD,1,2,,,,,,,,,0,52,52,20,,,,,,,,,,2,1,0.466523686288,,,,,,PLC_L_D2S1,P4,60.0173892085,02,B,2014_Dez_18_1504,Y,
stim/negf.jpg,stim/posf.jpg,stim/1.jpg,stim/6.jpg,stim/latef.jpg,EF,1,2,,,,,,,,,0,53,53,49,,,,,,,,,,2,1,0.783092000812,,,,,,PLC_L_D2S1,P4,60.0173892085,02,B,2014_Dez_18_1504,Y,
stim/posf.jpg,stim/negf.jpg,stim/5.jpg,stim/2.jpg,stim/latef.jpg,AB,2,4,,,,,,,,,0,54,54,17,,,,,,,,,,2,0,0.833069252111,,,,,,PLC_L_D2S1,P4,60.0173892085,02,B,2014_Dez_18_1504,Y,
stim/negf.jpg,stim/posf.jpg,stim/5.jpg,stim/2.jpg,stim/latef.jpg,AB,2,4,,,,,,,,,0,55,55,19,,,,,,,,,,4,1,0.749723547943,,,,,,PLC_L_D2S1,P4,60.0173892085,02,B,2014_Dez_18_1504,Y,
stim/posf.jpg,stim/negf.jpg,stim/1.jpg,stim/6.jpg,stim/latef.jpg,EF,1,2,,,,,,,,,0,56,56,41,,,,,,,,,,2,1,0.583100196239,,,,,,PLC_L_D2S1,P4,60.0173892085,02,B,2014_Dez_18_1504,Y,
stim/posf.jpg,stim/negf.jpg,stim/5.jpg,stim/2.jpg,stim/latef.jpg,AB,2,4,,,,,,,,,0,57,57,15,,,,,,,,,,4,1,0.649776200179,,,,,,PLC_L_D2S1,P4,60.0173892085,02,B,2014_Dez_18_1504,Y,
stim/posf.jpg,stim/negf.jpg,stim/1.jpg,stim/6.jpg,stim/latef.jpg,EF,1,2,,,,,,,,,0,58,58,43,,,,,,,,,,2,1,0.549831017812,,,,,,PLC_L_D2S1,P4,60.0173892085,02,B,2014_Dez_18_1504,Y,
stim/posf.jpg,stim/negf.jpg,stim/2.jpg,stim/5.jpg,stim/latef.jpg,AB,1,2,,,,,,,,,0,59,59,2,,,,,,,,,,2,1,0.783117754002,,,,,,PLC_L_D2S1,P4,60.0173892085,02,B,2014_Dez_18_1504,Y,
,,,,,,,,,,,,,,,,,,,,,,,,,,,,,,,,-0.10625,0.787109375,1,0,0,PLC_L_D2S1,P4,60.0173892085,02,B,2014_Dez_18_1504,Y,
stim/posf.jpg,stim/negf.jpg,stim/4.jpg,stim/3.jpg,stim/latef.jpg,CD,1,2,,,,,,,,,,,,,0,0,0,21,,,,,,2,1,0.683113104413,,,,,,PLC_L_D2S1,P4,60.0173892085,02,B,2014_Dez_18_1504,Y,
stim/posf.jpg,stim/negf.jpg,stim/6.jpg,stim/1.jpg,stim/latef.jpg,EF,2,4,,,,,,,,,,,,,0,1,1,50,,,,,,4,1,0.616392884263,,,,,,PLC_L_D2S1,P4,60.0173892085,02,B,2014_Dez_18_1504,Y,
stim/posf.jpg,stim/negf.jpg,stim/6.jpg,stim/1.jpg,stim/latef.jpg,EF,2,4,,,,,,,,,,,,,0,2,2,53,,,,,,4,1,0.533188367004,,,,,,PLC_L_D2S1,P4,60.0173892085,02,B,2014_Dez_18_1504,Y,
stim/posf.jpg,stim/negf.jpg,stim/4.jpg,stim/3.jpg,stim/latef.jpg,CD,1,2,,,,,,,,,,,,,0,3,3,24,,,,,,2,1,0.483204207488,,,,,,PLC_L_D2S1,P4,60.0173892085,02,B,2014_Dez_18_1504,Y,
stim/negf.jpg,stim/posf.jpg,stim/2.jpg,stim/5.jpg,stim/latef.jpg,AB,1,2,,,,,,,,,,,,,0,4,4,8,,,,,,2,1,0.633132599003,,,,,,PLC_L_D2S1,P4,60.0173892085,02,B,2014_Dez_18_1504,Y,
stim/posf.jpg,stim/negf.jpg,stim/5.jpg,stim/2.jpg,stim/latef.jpg,AB,2,4,,,,,,,,,,,,,0,5,5,14,,,,,,4,1,0.616496808294,,,,,,PLC_L_D2S1,P4,60.0173892085,02,B,2014_Dez_18_1504,Y,
stim/negf.jpg,stim/posf.jpg,stim/6.jpg,stim/1.jpg,stim/latef.jpg,EF,2,4,,,,,,,,,,,,,0,6,6,57,,,,,,4,1,0.566459554439,,,,,,PLC_L_D2S1,P4,60.0173892085,02,B,2014_Dez_18_1504,Y,
stim/negf.jpg,stim/posf.jpg,stim/3.jpg,stim/4.jpg,stim/latef.jpg,CD,2,4,,,,,,,,,,,,,0,7,7,39,,,,,,4,1,0.649727184006,,,,,,PLC_L_D2S1,P4,60.0173892085,02,B,2014_Dez_18_1504,Y,
stim/posf.jpg,stim/negf.jpg,stim/3.jpg,stim/4.jpg,stim/latef.jpg,CD,2,4,,,,,,,,,,,,,0,8,8,31,,,,,,4,1,0.549821177285,,,,,,PLC_L_D2S1,P4,60.0173892085,02,B,2014_Dez_18_1504,Y,
stim/negf.jpg,stim/posf.jpg,stim/1.jpg,stim/6.jpg,stim/latef.jpg,EF,1,2,,,,,,,,,,,,,0,9,9,48,,,,,,2,1,0.48314260795,,,,,,PLC_L_D2S1,P4,60.0173892085,02,B,2014_Dez_18_1504,Y,
stim/posf.jpg,stim/negf.jpg,stim/6.jpg,stim/1.jpg,stim/latef.jpg,EF,2,4,,,,,,,,,,,,,0,10,10,52,,,,,,4,1,0.666470573906,,,,,,PLC_L_D2S1,P4,60.0173892085,02,B,2014_Dez_18_1504,Y,
stim/posf.jpg,stim/negf.jpg,stim/6.jpg,stim/1.jpg,stim/latef.jpg,EF,2,4,,,,,,,,,,,,,0,11,11,51,,,,,,4,1,0.483163218321,,,,,,PLC_L_D2S1,P4,60.0173892085,02,B,2014_Dez_18_1504,Y,
stim/posf.jpg,stim/negf.jpg,stim/4.jpg,stim/3.jpg,stim/latef.jpg,CD,1,2,,,,,,,,,,,,,0,12,12,22,,,,,,2,1,0.616511514952,,,,,,PLC_L_D2S1,P4,60.0173892085,02,B,2014_Dez_18_1504,Y,
stim/posf.jpg,stim/negf.jpg,stim/5.jpg,stim/2.jpg,stim/latef.jpg,AB,2,4,,,,,,,,,,,,,0,13,13,16,,,,,,4,1,0.51651115706,,,,,,PLC_L_D2S1,P4,60.0173892085,02,B,2014_Dez_18_1504,Y,
stim/posf.jpg,stim/negf.jpg,stim/5.jpg,stim/2.jpg,stim/latef.jpg,AB,2,4,,,,,,,,,,,,,0,14,14,11,,,,,,4,1,0.68313113736,,,,,,PLC_L_D2S1,P4,60.0173892085,02,B,2014_Dez_18_1504,Y,
stim/posf.jpg,stim/negf.jpg,stim/5.jpg,stim/2.jpg,stim/latef.jpg,AB,2,4,,,,,,,,,,,,,0,15,15,17,,,,,,4,1,0.749734474177,,,,,,PLC_L_D2S1,P4,60.0173892085,02,B,2014_Dez_18_1504,Y,
stim/negf.jpg,stim/posf.jpg,stim/6.jpg,stim/1.jpg,stim/latef.jpg,EF,2,4,,,,,,,,,,,,,0,16,16,56,,,,,,4,1,0.516511033752,,,,,,PLC_L_D2S1,P4,60.0173892085,02,B,2014_Dez_18_1504,Y,
stim/posf.jpg,stim/negf.jpg,stim/5.jpg,stim/2.jpg,stim/latef.jpg,AB,2,4,,,,,,,,,,,,,0,17,17,12,,,,,,4,1,0.616487692574,,,,,,PLC_L_D2S1,P4,60.0173892085,02,B,2014_Dez_18_1504,Y,
stim/posf.jpg,stim/negf.jpg,stim/3.jpg,stim/4.jpg,stim/latef.jpg,CD,2,4,,,,,,,,,,,,,0,18,18,34,,,,,,4,1,0.649803180427,,,,,,PLC_L_D2S1,P4,60.0173892085,02,B,2014_Dez_18_1504,Y,
stim/posf.jpg,stim/negf.jpg,stim/2.jpg,stim/5.jpg,stim/latef.jpg,AB,1,2,,,,,,,,,,,,,0,19,19,2,,,,,,2,1,0.649776973106,,,,,,PLC_L_D2S1,P4,60.0173892085,02,B,2014_Dez_18_1504,Y,
stim/negf.jpg,stim/posf.jpg,stim/2.jpg,stim/5.jpg,stim/latef.jpg,AB,1,2,,,,,,,,,,,,,0,20,20,9,,,,,,2,1,0.699796335366,,,,,,PLC_L_D2S1,P4,60.0173892085,02,B,2014_Dez_18_1504,Y,
stim/posf.jpg,stim/negf.jpg,stim/1.jpg,stim/6.jpg,stim/latef.jpg,EF,1,2,,,,,,,,,,,,,0,21,21,45,,,,,,2,1,0.816297904527,,,,,,PLC_L_D2S1,P4,60.0173892085,02,B,2014_Dez_18_1504,Y,
stim/negf.jpg,stim/posf.jpg,stim/6.jpg,stim/1.jpg,stim/latef.jpg,EF,2,4,,,,,,,,,,,,,0,22,22,59,,,,,,4,1,0.59980518342,,,,,,PLC_L_D2S1,P4,60.0173892085,02,B,2014_Dez_18_1504,Y,
stim/negf.jpg,stim/posf.jpg,stim/3.jpg,stim/4.jpg,stim/latef.jpg,CD,2,4,,,,,,,,,,,,,0,23,23,37,,,,,,4,1,0.749737881671,,,,,,PLC_L_D2S1,P4,60.0173892085,02,B,2014_Dez_18_1504,Y,
stim/negf.jpg,stim/posf.jpg,stim/1.jpg,stim/6.jpg,stim/latef.jpg,EF,1,2,,,,,,,,,,,,,0,24,24,47,,,,,,2,1,0.63311134202,,,,,,PLC_L_D2S1,P4,60.0173892085,02,B,2014_Dez_18_1504,Y,
stim/negf.jpg,stim/posf.jpg,stim/1.jpg,stim/6.jpg,stim/latef.jpg,EF,1,2,,,,,,,,,,,,,0,25,25,49,,,,,,4,0,0.598809281133,,,,,,PLC_L_D2S1,P4,60.0173892085,02,B,2014_Dez_18_1504,Y,
stim/posf.jpg,stim/negf.jpg,stim/2.jpg,stim/5.jpg,stim/latef.jpg,AB,1,2,,,,,,,,,,,,,0,26,26,1,,,,,,4,0,0.549843342531,,,,,,PLC_L_D2S1,P4,60.0173892085,02,B,2014_Dez_18_1504,Y,
stim/negf.jpg,stim/posf.jpg,stim/4.jpg,stim/3.jpg,stim/latef.jpg,CD,1,2,,,,,,,,,,,,,0,27,27,28,,,,,,2,1,0.599823751701,,,,,,PLC_L_D2S1,P4,60.0173892085,02,B,2014_Dez_18_1504,Y,
stim/posf.jpg,stim/negf.jpg,stim/1.jpg,stim/6.jpg,stim/latef.jpg,EF,1,2,,,,,,,,,,,,,0,28,28,42,,,,,,2,1,0.699746615439,,,,,,PLC_L_D2S1,P4,60.0173892085,02,B,2014_Dez_18_1504,Y,
stim/posf.jpg,stim/negf.jpg,stim/2.jpg,stim/5.jpg,stim/latef.jpg,AB,1,2,,,,,,,,,,,,,0,29,29,6,,,,,,2,1,0.833042789151,,,,,,PLC_L_D2S1,P4,60.0173892085,02,B,2014_Dez_18_1504,Y,
stim/posf.jpg,stim/negf.jpg,stim/1.jpg,stim/6.jpg,stim/latef.jpg,EF,1,2,,,,,,,,,,,,,0,30,30,43,,,,,,2,1,0.783079982858,,,,,,PLC_L_D2S1,P4,60.0173892085,02,B,2014_Dez_18_1504,Y,
stim/posf.jpg,stim/negf.jpg,stim/5.jpg,stim/2.jpg,stim/latef.jpg,AB,2,4,,,,,,,,,,,,,0,31,31,15,,,,,,4,1,0.766465391989,,,,,,PLC_L_D2S1,P4,60.0173892085,02,B,2014_Dez_18_1504,Y,
stim/posf.jpg,stim/negf.jpg,stim/5.jpg,stim/2.jpg,stim/latef.jpg,AB,2,4,,,,,,,,,,,,,0,32,32,10,,,,,,4,1,1.09965632138,,,,,,PLC_L_D2S1,P4,60.0173892085,02,B,2014_Dez_18_1504,Y,
stim/posf.jpg,stim/negf.jpg,stim/4.jpg,stim/3.jpg,stim/latef.jpg,CD,1,2,,,,,,,,,,,,,0,33,33,26,,,,,,2,1,0.566473160352,,,,,,PLC_L_D2S1,P4,60.0173892085,02,B,2014_Dez_18_1504,Y,
stim/posf.jpg,stim/negf.jpg,stim/6.jpg,stim/1.jpg,stim/latef.jpg,EF,2,4,,,,,,,,,,,,,0,34,34,54,,,,,,4,1,0.616461978482,,,,,,PLC_L_D2S1,P4,60.0173892085,02,B,2014_Dez_18_1504,Y,
stim/posf.jpg,stim/negf.jpg,stim/3.jpg,stim/4.jpg,stim/latef.jpg,CD,2,4,,,,,,,,,,,,,0,35,35,35,,,,,,4,1,0.599785198608,,,,,,PLC_L_D2S1,P4,60.0173892085,02,B,2014_Dez_18_1504,Y,
stim/posf.jpg,stim/negf.jpg,stim/3.jpg,stim/4.jpg,stim/latef.jpg,CD,2,4,,,,,,,,,,,,,0,36,36,33,,,,,,4,1,0.832993992526,,,,,,PLC_L_D2S1,P4,60.0173892085,02,B,2014_Dez_18_1504,Y,
stim/posf.jpg,stim/negf.jpg,stim/2.jpg,stim/5.jpg,stim/latef.jpg,AB,1,2,,,,,,,,,,,,,0,37,37,7,,,,,,2,1,0.883002437576,,,,,,PLC_L_D2S1,P4,60.0173892085,02,B,2014_Dez_18_1504,Y,
stim/posf.jpg,stim/negf.jpg,stim/2.jpg,stim/5.jpg,stim/latef.jpg,AB,1,2,,,,,,,,,,,,,0,38,38,3,,,,,,2,1,0.749753129676,,,,,,PLC_L_D2S1,P4,60.0173892085,02,B,2014_Dez_18_1504,Y,
stim/posf.jpg,stim/negf.jpg,stim/2.jpg,stim/5.jpg,stim/latef.jpg,AB,1,2,,,,,,,,,,,,,0,39,39,0,,,,,,2,1,0.616444141021,,,,,,PLC_L_D2S1,P4,60.0173892085,02,B,2014_Dez_18_1504,Y,
stim/posf.jpg,stim/negf.jpg,stim/4.jpg,stim/3.jpg,stim/latef.jpg,CD,1,2,,,,,,,,,,,,,0,40,40,20,,,,,,2,1,0.949701728558,,,,,,PLC_L_D2S1,P4,60.0173892085,02,B,2014_Dez_18_1504,Y,
stim/posf.jpg,stim/negf.jpg,stim/2.jpg,stim/5.jpg,stim/latef.jpg,AB,1,2,,,,,,,,,,,,,0,41,41,4,,,,,,2,1,0.616461825099,,,,,,PLC_L_D2S1,P4,60.0173892085,02,B,2014_Dez_18_1504,Y,
stim/posf.jpg,stim/negf.jpg,stim/3.jpg,stim/4.jpg,stim/latef.jpg,CD,2,4,,,,,,,,,,,,,0,42,42,36,,,,,,4,1,0.866368815272,,,,,,PLC_L_D2S1,P4,60.0173892085,02,B,2014_Dez_18_1504,Y,
stim/negf.jpg,stim/posf.jpg,stim/4.jpg,stim/3.jpg,stim/latef.jpg,CD,1,2,,,,,,,,,,,,,0,43,43,29,,,,,,2,1,0.533202159382,,,,,,PLC_L_D2S1,P4,60.0173892085,02,B,2014_Dez_18_1504,Y,
stim/negf.jpg,stim/posf.jpg,stim/4.jpg,stim/3.jpg,stim/latef.jpg,CD,1,2,,,,,,,,,,,,,0,44,44,27,,,,,,2,1,0.516507542048,,,,,,PLC_L_D2S1,P4,60.0173892085,02,B,2014_Dez_18_1504,Y,
stim/posf.jpg,stim/negf.jpg,stim/5.jpg,stim/2.jpg,stim/latef.jpg,AB,2,4,,,,,,,,,,,,,0,45,45,13,,,,,,4,1,0.88304962519,,,,,,PLC_L_D2S1,P4,60.0173892085,02,B,2014_Dez_18_1504,Y,
stim/negf.jpg,stim/posf.jpg,stim/5.jpg,stim/2.jpg,stim/latef.jpg,AB,2,4,,,,,,,,,,,,,0,46,46,19,,,,,,4,1,0.616464760416,,,,,,PLC_L_D2S1,P4,60.0173892085,02,B,2014_Dez_18_1504,Y,
stim/posf.jpg,stim/negf.jpg,stim/3.jpg,stim/4.jpg,stim/latef.jpg,CD,2,4,,,,,,,,,,,,,0,47,47,30,,,,,,4,1,0.583139013992,,,,,,PLC_L_D2S1,P4,60.0173892085,02,B,2014_Dez_18_1504,Y,
stim/posf.jpg,stim/negf.jpg,stim/1.jpg,stim/6.jpg,stim/latef.jpg,EF,1,2,,,,,,,,,,,,,0,48,48,40,,,,,,2,1,0.549823856963,,,,,,PLC_L_D2S1,P4,60.0173892085,02,B,2014_Dez_18_1504,Y,
stim/posf.jpg,stim/negf.jpg,stim/2.jpg,stim/5.jpg,stim/latef.jpg,AB,1,2,,,,,,,,,,,,,0,49,49,5,,,,,,2,1,0.533160298043,,,,,,PLC_L_D2S1,P4,60.0173892085,02,B,2014_Dez_18_1504,Y,
stim/posf.jpg,stim/negf.jpg,stim/4.jpg,stim/3.jpg,stim/latef.jpg,CD,1,2,,,,,,,,,,,,,0,50,50,23,,,,,,2,1,0.699761974722,,,,,,PLC_L_D2S1,P4,60.0173892085,02,B,2014_Dez_18_1504,Y,
stim/negf.jpg,stim/posf.jpg,stim/1.jpg,stim/6.jpg,stim/latef.jpg,EF,1,2,,,,,,,,,,,,,0,51,51,46,,,,,,2,1,0.516537138818,,,,,,PLC_L_D2S1,P4,60.0173892085,02,B,2014_Dez_18_1504,Y,
stim/negf.jpg,stim/posf.jpg,stim/5.jpg,stim/2.jpg,stim/latef.jpg,AB,2,4,,,,,,,,,,,,,0,52,52,18,,,,,,4,1,0.69970891046,,,,,,PLC_L_D2S1,P4,60.0173892085,02,B,2014_Dez_18_1504,Y,
stim/posf.jpg,stim/negf.jpg,stim/1.jpg,stim/6.jpg,stim/latef.jpg,EF,1,2,,,,,,,,,,,,,0,53,53,44,,,,,,2,1,0.633116175066,,,,,,PLC_L_D2S1,P4,60.0173892085,02,B,2014_Dez_18_1504,Y,
stim/posf.jpg,stim/negf.jpg,stim/4.jpg,stim/3.jpg,stim/latef.jpg,CD,1,2,,,,,,,,,,,,,0,54,54,25,,,,,,2,1,0.499844193653,,,,,,PLC_L_D2S1,P4,60.0173892085,02,B,2014_Dez_18_1504,Y,
stim/negf.jpg,stim/posf.jpg,stim/6.jpg,stim/1.jpg,stim/latef.jpg,EF,2,4,,,,,,,,,,,,,0,55,55,58,,,,,,4,1,0.749735030564,,,,,,PLC_L_D2S1,P4,60.0173892085,02,B,2014_Dez_18_1504,Y,
stim/posf.jpg,stim/negf.jpg,stim/6.jpg,stim/1.jpg,stim/latef.jpg,EF,2,4,,,,,,,,,,,,,0,56,56,55,,,,,,4,1,0.699766308524,,,,,,PLC_L_D2S1,P4,60.0173892085,02,B,2014_Dez_18_1504,Y,
stim/posf.jpg,stim/negf.jpg,stim/3.jpg,stim/4.jpg,stim/latef.jpg,CD,2,4,,,,,,,,,,,,,0,57,57,32,,,,,,4,1,0.549840443305,,,,,,PLC_L_D2S1,P4,60.0173892085,02,B,2014_Dez_18_1504,Y,
stim/posf.jpg,stim/negf.jpg,stim/1.jpg,stim/6.jpg,stim/latef.jpg,EF,1,2,,,,,,,,,,,,,0,58,58,41,,,,,,2,1,0.566471521266,,,,,,PLC_L_D2S1,P4,60.0173892085,02,B,2014_Dez_18_1504,Y,
stim/negf.jpg,stim/posf.jpg,stim/3.jpg,stim/4.jpg,stim/latef.jpg,CD,2,4,,,,,,,,,,,,,0,59,59,38,,,,,,4,1,0.533166135593,,,,,,PLC_L_D2S1,P4,60.0173892085,02,B,2014_Dez_18_1504,Y,
