fb_corr,fb_incorr,symbol2,symbol1,fb_late,pair,position,correct,block_01.thisRepN,block_01.thisTrialN,block_01.thisN,block_01.thisIndex,block_02.thisRepN,block_02.thisTrialN,block_02.thisN,block_02.thisIndex,block_03.thisRepN,block_03.thisTrialN,block_03.thisN,block_03.thisIndex,block_04.thisRepN,block_04.thisTrialN,block_04.thisN,block_04.thisIndex,mouse.x,mouse.y,mouse.leftButton,mouse.midButton,mouse.rightButton,buttonBox_2.keys,buttonBox_2.corr,buttonBox_2.rt,mouse_2.x,mouse_2.y,mouse_2.leftButton,mouse_2.midButton,mouse_2.rightButton,expName,Participant,frameRate,SessionNumber,Version,date,Group,
,,,,,,,,,,,,,,,,,,,,,,,,-0.51875,-0.998046875,0,0,1,,,,,,,,,PLC_L_D2S1,P7,60.012084944,02,C,2015_Jan_23_1651,Y,
stim/negf.jpg,stim/posf.jpg,stim/1.jpg,stim/4.jpg,stim/latef.jpg,AB,1,2,0,0,0,9,,,,,,,,,,,,,,,,,,4,0,0.799799701506,,,,,,PLC_L_D2S1,P7,60.012084944,02,C,2015_Jan_23_1651,Y,
stim/negf.jpg,stim/posf.jpg,stim/5.jpg,stim/3.jpg,stim/latef.jpg,CD,2,4,0,1,1,39,,,,,,,,,,,,,,,,,,4,1,0.899650797925,,,,,,PLC_L_D2S1,P7,60.012084944,02,C,2015_Jan_23_1651,Y,
stim/posf.jpg,stim/negf.jpg,stim/4.jpg,stim/1.jpg,stim/latef.jpg,AB,2,4,0,2,2,12,,,,,,,,,,,,,,,,,,4,1,0.666447701718,,,,,,PLC_L_D2S1,P7,60.012084944,02,C,2015_Jan_23_1651,Y,
stim/posf.jpg,stim/negf.jpg,stim/2.jpg,stim/6.jpg,stim/latef.jpg,EF,1,2,0,3,3,42,,,,,,,,,,,,,,,,,,4,0,0.733115770874,,,,,,PLC_L_D2S1,P7,60.012084944,02,C,2015_Jan_23_1651,Y,
stim/posf.jpg,stim/negf.jpg,stim/1.jpg,stim/4.jpg,stim/latef.jpg,AB,1,2,0,4,4,4,,,,,,,,,,,,,,,,,,2,1,0.766405479637,,,,,,PLC_L_D2S1,P7,60.012084944,02,C,2015_Jan_23_1651,Y,
stim/negf.jpg,stim/posf.jpg,stim/6.jpg,stim/2.jpg,stim/latef.jpg,EF,2,4,0,5,5,56,,,,,,,,,,,,,,,,,,2,0,0.566467653372,,,,,,PLC_L_D2S1,P7,60.012084944,02,C,2015_Jan_23_1651,Y,
stim/posf.jpg,stim/negf.jpg,stim/1.jpg,stim/4.jpg,stim/latef.jpg,AB,1,2,0,6,6,1,,,,,,,,,,,,,,,,,,2,1,0.699661414345,,,,,,PLC_L_D2S1,P7,60.012084944,02,C,2015_Jan_23_1651,Y,
stim/posf.jpg,stim/negf.jpg,stim/1.jpg,stim/4.jpg,stim/latef.jpg,AB,1,2,0,7,7,5,,,,,,,,,,,,,,,,,,2,1,0.916357502734,,,,,,PLC_L_D2S1,P7,60.012084944,02,C,2015_Jan_23_1651,Y,
stim/posf.jpg,stim/negf.jpg,stim/4.jpg,stim/1.jpg,stim/latef.jpg,AB,2,4,0,8,8,13,,,,,,,,,,,,,,,,,,2,0,0.832993585786,,,,,,PLC_L_D2S1,P7,60.012084944,02,C,2015_Jan_23_1651,Y,
stim/posf.jpg,stim/negf.jpg,stim/4.jpg,stim/1.jpg,stim/latef.jpg,AB,2,4,0,9,9,16,,,,,,,,,,,,,,,,,,2,0,0.566459271513,,,,,,PLC_L_D2S1,P7,60.012084944,02,C,2015_Jan_23_1651,Y,
stim/negf.jpg,stim/posf.jpg,stim/4.jpg,stim/1.jpg,stim/latef.jpg,AB,2,4,0,10,10,18,,,,,,,,,,,,,,,,,,4,1,0.783054726451,,,,,,PLC_L_D2S1,P7,60.012084944,02,C,2015_Jan_23_1651,Y,
stim/posf.jpg,stim/negf.jpg,stim/5.jpg,stim/3.jpg,stim/latef.jpg,CD,2,4,0,11,11,32,,,,,,,,,,,,,,,,,,4,1,0.866370992808,,,,,,PLC_L_D2S1,P7,60.012084944,02,C,2015_Jan_23_1651,Y,
stim/posf.jpg,stim/negf.jpg,stim/3.jpg,stim/5.jpg,stim/latef.jpg,CD,1,2,0,12,12,22,,,,,,,,,,,,,,,,,,2,1,0.833085828355,,,,,,PLC_L_D2S1,P7,60.012084944,02,C,2015_Jan_23_1651,Y,
stim/posf.jpg,stim/negf.jpg,stim/1.jpg,stim/4.jpg,stim/latef.jpg,AB,1,2,0,13,13,6,,,,,,,,,,,,,,,,,,2,1,0.616461513591,,,,,,PLC_L_D2S1,P7,60.012084944,02,C,2015_Jan_23_1651,Y,
stim/posf.jpg,stim/negf.jpg,stim/5.jpg,stim/3.jpg,stim/latef.jpg,CD,2,4,0,14,14,31,,,,,,,,,,,,,,,,,,2,0,0.866397398526,,,,,,PLC_L_D2S1,P7,60.012084944,02,C,2015_Jan_23_1651,Y,
stim/posf.jpg,stim/negf.jpg,stim/6.jpg,stim/2.jpg,stim/latef.jpg,EF,2,4,0,15,15,54,,,,,,,,,,,,,,,,,,2,0,0.716365075581,,,,,,PLC_L_D2S1,P7,60.012084944,02,C,2015_Jan_23_1651,Y,
stim/posf.jpg,stim/negf.jpg,stim/1.jpg,stim/4.jpg,stim/latef.jpg,AB,1,2,0,16,16,7,,,,,,,,,,,,,,,,,,2,1,1.18292330237,,,,,,PLC_L_D2S1,P7,60.012084944,02,C,2015_Jan_23_1651,Y,
stim/negf.jpg,stim/posf.jpg,stim/2.jpg,stim/6.jpg,stim/latef.jpg,EF,1,2,0,17,17,48,,,,,,,,,,,,,,,,,,2,1,0.783070437552,,,,,,PLC_L_D2S1,P7,60.012084944,02,C,2015_Jan_23_1651,Y,
stim/negf.jpg,stim/posf.jpg,stim/5.jpg,stim/3.jpg,stim/latef.jpg,CD,2,4,0,18,18,37,,,,,,,,,,,,,,,,,,2,0,0.63310774089,,,,,,PLC_L_D2S1,P7,60.012084944,02,C,2015_Jan_23_1651,Y,
stim/posf.jpg,stim/negf.jpg,stim/4.jpg,stim/1.jpg,stim/latef.jpg,AB,2,4,0,19,19,11,,,,,,,,,,,,,,,,,,2,0,0.766420369695,,,,,,PLC_L_D2S1,P7,60.012084944,02,C,2015_Jan_23_1651,Y,
stim/posf.jpg,stim/negf.jpg,stim/2.jpg,stim/6.jpg,stim/latef.jpg,EF,1,2,0,20,20,40,,,,,,,,,,,,,,,,,,4,0,1.14959844212,,,,,,PLC_L_D2S1,P7,60.012084944,02,C,2015_Jan_23_1651,Y,
stim/negf.jpg,stim/posf.jpg,stim/6.jpg,stim/2.jpg,stim/latef.jpg,EF,2,4,0,21,21,59,,,,,,,,,,,,,,,,,,2,0,0.533178630316,,,,,,PLC_L_D2S1,P7,60.012084944,02,C,2015_Jan_23_1651,Y,
stim/posf.jpg,stim/negf.jpg,stim/3.jpg,stim/5.jpg,stim/latef.jpg,CD,1,2,0,22,22,24,,,,,,,,,,,,,,,,,,2,1,0.883022600497,,,,,,PLC_L_D2S1,P7,60.012084944,02,C,2015_Jan_23_1651,Y,
stim/negf.jpg,stim/posf.jpg,stim/3.jpg,stim/5.jpg,stim/latef.jpg,CD,1,2,0,23,23,27,,,,,,,,,,,,,,,,,,2,1,0.583135206745,,,,,,PLC_L_D2S1,P7,60.012084944,02,C,2015_Jan_23_1651,Y,
stim/posf.jpg,stim/negf.jpg,stim/6.jpg,stim/2.jpg,stim/latef.jpg,EF,2,4,0,24,24,53,,,,,,,,,,,,,,,,,,2,0,0.733093401202,,,,,,PLC_L_D2S1,P7,60.012084944,02,C,2015_Jan_23_1651,Y,
stim/posf.jpg,stim/negf.jpg,stim/3.jpg,stim/5.jpg,stim/latef.jpg,CD,1,2,0,25,25,23,,,,,,,,,,,,,,,,,,2,1,0.816382073886,,,,,,PLC_L_D2S1,P7,60.012084944,02,C,2015_Jan_23_1651,Y,
stim/posf.jpg,stim/negf.jpg,stim/5.jpg,stim/3.jpg,stim/latef.jpg,CD,2,4,0,26,26,36,,,,,,,,,,,,,,,,,,2,0,0.749741132244,,,,,,PLC_L_D2S1,P7,60.012084944,02,C,2015_Jan_23_1651,Y,
stim/posf.jpg,stim/negf.jpg,stim/3.jpg,stim/5.jpg,stim/latef.jpg,CD,1,2,0,27,27,26,,,,,,,,,,,,,,,,,,2,1,0.733096817707,,,,,,PLC_L_D2S1,P7,60.012084944,02,C,2015_Jan_23_1651,Y,
stim/posf.jpg,stim/negf.jpg,stim/3.jpg,stim/5.jpg,stim/latef.jpg,CD,1,2,0,28,28,25,,,,,,,,,,,,,,,,,,2,1,0.749755868919,,,,,,PLC_L_D2S1,P7,60.012084944,02,C,2015_Jan_23_1651,Y,
stim/negf.jpg,stim/posf.jpg,stim/3.jpg,stim/5.jpg,stim/latef.jpg,CD,1,2,0,29,29,29,,,,,,,,,,,,,,,,,,2,1,0.749742515685,,,,,,PLC_L_D2S1,P7,60.012084944,02,C,2015_Jan_23_1651,Y,
stim/posf.jpg,stim/negf.jpg,stim/3.jpg,stim/5.jpg,stim/latef.jpg,CD,1,2,0,30,30,20,,,,,,,,,,,,,,,,,,2,1,0.499824004992,,,,,,PLC_L_D2S1,P7,60.012084944,02,C,2015_Jan_23_1651,Y,
stim/posf.jpg,stim/negf.jpg,stim/4.jpg,stim/1.jpg,stim/latef.jpg,AB,2,4,0,31,31,10,,,,,,,,,,,,,,,,,,2,0,1.09965329414,,,,,,PLC_L_D2S1,P7,60.012084944,02,C,2015_Jan_23_1651,Y,
stim/posf.jpg,stim/negf.jpg,stim/4.jpg,stim/1.jpg,stim/latef.jpg,AB,2,4,0,32,32,14,,,,,,,,,,,,,,,,,,2,0,0.799764760548,,,,,,PLC_L_D2S1,P7,60.012084944,02,C,2015_Jan_23_1651,Y,
stim/posf.jpg,stim/negf.jpg,stim/2.jpg,stim/6.jpg,stim/latef.jpg,EF,1,2,0,33,33,44,,,,,,,,,,,,,,,,,,4,0,0.766389666282,,,,,,PLC_L_D2S1,P7,60.012084944,02,C,2015_Jan_23_1651,Y,
stim/negf.jpg,stim/posf.jpg,stim/5.jpg,stim/3.jpg,stim/latef.jpg,CD,2,4,0,34,34,38,,,,,,,,,,,,,,,,,,2,0,0.549542063811,,,,,,PLC_L_D2S1,P7,60.012084944,02,C,2015_Jan_23_1651,Y,
stim/posf.jpg,stim/negf.jpg,stim/2.jpg,stim/6.jpg,stim/latef.jpg,EF,1,2,0,35,35,43,,,,,,,,,,,,,,,,,,2,1,0.766377326572,,,,,,PLC_L_D2S1,P7,60.012084944,02,C,2015_Jan_23_1651,Y,
stim/posf.jpg,stim/negf.jpg,stim/6.jpg,stim/2.jpg,stim/latef.jpg,EF,2,4,0,36,36,50,,,,,,,,,,,,,,,,,,4,1,0.733100309395,,,,,,PLC_L_D2S1,P7,60.012084944,02,C,2015_Jan_23_1651,Y,
stim/posf.jpg,stim/negf.jpg,stim/2.jpg,stim/6.jpg,stim/latef.jpg,EF,1,2,0,37,37,45,,,,,,,,,,,,,,,,,,2,1,0.933010487852,,,,,,PLC_L_D2S1,P7,60.012084944,02,C,2015_Jan_23_1651,Y,
stim/posf.jpg,stim/negf.jpg,stim/1.jpg,stim/4.jpg,stim/latef.jpg,AB,1,2,0,38,38,2,,,,,,,,,,,,,,,,,,2,1,0.899705383774,,,,,,PLC_L_D2S1,P7,60.012084944,02,C,2015_Jan_23_1651,Y,
stim/posf.jpg,stim/negf.jpg,stim/1.jpg,stim/4.jpg,stim/latef.jpg,AB,1,2,0,39,39,3,,,,,,,,,,,,,,,,,,2,1,0.583129555682,,,,,,PLC_L_D2S1,P7,60.012084944,02,C,2015_Jan_23_1651,Y,
stim/posf.jpg,stim/negf.jpg,stim/6.jpg,stim/2.jpg,stim/latef.jpg,EF,2,4,0,40,40,51,,,,,,,,,,,,,,,,,,2,0,1.21520499242,,,,,,PLC_L_D2S1,P7,60.012084944,02,C,2015_Jan_23_1651,Y,
stim/negf.jpg,stim/posf.jpg,stim/2.jpg,stim/6.jpg,stim/latef.jpg,EF,1,2,0,41,41,47,,,,,,,,,,,,,,,,,,2,1,0.899719161062,,,,,,PLC_L_D2S1,P7,60.012084944,02,C,2015_Jan_23_1651,Y,
stim/posf.jpg,stim/negf.jpg,stim/4.jpg,stim/1.jpg,stim/latef.jpg,AB,2,4,0,42,42,17,,,,,,,,,,,,,,,,,,2,0,1.01633947587,,,,,,PLC_L_D2S1,P7,60.012084944,02,C,2015_Jan_23_1651,Y,
stim/posf.jpg,stim/negf.jpg,stim/3.jpg,stim/5.jpg,stim/latef.jpg,CD,1,2,0,43,43,21,,,,,,,,,,,,,,,,,,4,0,1.01626705864,,,,,,PLC_L_D2S1,P7,60.012084944,02,C,2015_Jan_23_1651,Y,
stim/posf.jpg,stim/negf.jpg,stim/5.jpg,stim/3.jpg,stim/latef.jpg,CD,2,4,0,44,44,34,,,,,,,,,,,,,,,,,,2,0,0.583120936231,,,,,,PLC_L_D2S1,P7,60.012084944,02,C,2015_Jan_23_1651,Y,
stim/negf.jpg,stim/posf.jpg,stim/3.jpg,stim/5.jpg,stim/latef.jpg,CD,1,2,0,45,45,28,,,,,,,,,,,,,,,,,,4,0,0.749747472022,,,,,,PLC_L_D2S1,P7,60.012084944,02,C,2015_Jan_23_1651,Y,
stim/posf.jpg,stim/negf.jpg,stim/5.jpg,stim/3.jpg,stim/latef.jpg,CD,2,4,0,46,46,35,,,,,,,,,,,,,,,,,,2,0,0.683121246002,,,,,,PLC_L_D2S1,P7,60.012084944,02,C,2015_Jan_23_1651,Y,
stim/posf.jpg,stim/negf.jpg,stim/6.jpg,stim/2.jpg,stim/latef.jpg,EF,2,4,0,47,47,52,,,,,,,,,,,,,,,,,,4,1,0.916394500815,,,,,,PLC_L_D2S1,P7,60.012084944,02,C,2015_Jan_23_1651,Y,
stim/posf.jpg,stim/negf.jpg,stim/4.jpg,stim/1.jpg,stim/latef.jpg,AB,2,4,0,48,48,15,,,,,,,,,,,,,,,,,,4,1,0.78308446446,,,,,,PLC_L_D2S1,P7,60.012084944,02,C,2015_Jan_23_1651,Y,
stim/posf.jpg,stim/negf.jpg,stim/2.jpg,stim/6.jpg,stim/latef.jpg,EF,1,2,0,49,49,41,,,,,,,,,,,,,,,,,,4,0,1.0829438886,,,,,,PLC_L_D2S1,P7,60.012084944,02,C,2015_Jan_23_1651,Y,
stim/negf.jpg,stim/posf.jpg,stim/1.jpg,stim/4.jpg,stim/latef.jpg,AB,1,2,0,50,50,8,,,,,,,,,,,,,,,,,,4,0,0.966323032448,,,,,,PLC_L_D2S1,P7,60.012084944,02,C,2015_Jan_23_1651,Y,
stim/posf.jpg,stim/negf.jpg,stim/6.jpg,stim/2.jpg,stim/latef.jpg,EF,2,4,0,51,51,55,,,,,,,,,,,,,,,,,,4,1,0.833064141381,,,,,,PLC_L_D2S1,P7,60.012084944,02,C,2015_Jan_23_1651,Y,
stim/negf.jpg,stim/posf.jpg,stim/2.jpg,stim/6.jpg,stim/latef.jpg,EF,1,2,0,52,52,49,,,,,,,,,,,,,,,,,,2,1,0.699783945294,,,,,,PLC_L_D2S1,P7,60.012084944,02,C,2015_Jan_23_1651,Y,
stim/negf.jpg,stim/posf.jpg,stim/4.jpg,stim/1.jpg,stim/latef.jpg,AB,2,4,0,53,53,19,,,,,,,,,,,,,,,,,,2,0,0.849708546144,,,,,,PLC_L_D2S1,P7,60.012084944,02,C,2015_Jan_23_1651,Y,
stim/posf.jpg,stim/negf.jpg,stim/5.jpg,stim/3.jpg,stim/latef.jpg,CD,2,4,0,54,54,33,,,,,,,,,,,,,,,,,,2,0,0.733110700256,,,,,,PLC_L_D2S1,P7,60.012084944,02,C,2015_Jan_23_1651,Y,
stim/negf.jpg,stim/posf.jpg,stim/6.jpg,stim/2.jpg,stim/latef.jpg,EF,2,4,0,55,55,57,,,,,,,,,,,,,,,,,,2,0,0.649796993266,,,,,,PLC_L_D2S1,P7,60.012084944,02,C,2015_Jan_23_1651,Y,
stim/negf.jpg,stim/posf.jpg,stim/2.jpg,stim/6.jpg,stim/latef.jpg,EF,1,2,0,56,56,46,,,,,,,,,,,,,,,,,,2,1,0.93302320049,,,,,,PLC_L_D2S1,P7,60.012084944,02,C,2015_Jan_23_1651,Y,
stim/posf.jpg,stim/negf.jpg,stim/5.jpg,stim/3.jpg,stim/latef.jpg,CD,2,4,0,57,57,30,,,,,,,,,,,,,,,,,,2,0,0.783046491957,,,,,,PLC_L_D2S1,P7,60.012084944,02,C,2015_Jan_23_1651,Y,
stim/negf.jpg,stim/posf.jpg,stim/6.jpg,stim/2.jpg,stim/latef.jpg,EF,2,4,0,58,58,58,,,,,,,,,,,,,,,,,,4,1,0.883043520562,,,,,,PLC_L_D2S1,P7,60.012084944,02,C,2015_Jan_23_1651,Y,
stim/posf.jpg,stim/negf.jpg,stim/1.jpg,stim/4.jpg,stim/latef.jpg,AB,1,2,0,59,59,0,,,,,,,,,,,,,,,,,,2,1,0.799737539801,,,,,,PLC_L_D2S1,P7,60.012084944,02,C,2015_Jan_23_1651,Y,
,,,,,,,,,,,,,,,,,,,,,,,,,,,,,,,,-0.51875,-0.998046875,1,0,0,PLC_L_D2S1,P7,60.012084944,02,C,2015_Jan_23_1651,Y,
stim/posf.jpg,stim/negf.jpg,stim/4.jpg,stim/1.jpg,stim/latef.jpg,AB,2,4,,,,,0,0,0,15,,,,,,,,,,,,,,2,0,0.899702445462,,,,,,PLC_L_D2S1,P7,60.012084944,02,C,2015_Jan_23_1651,Y,
stim/posf.jpg,stim/negf.jpg,stim/5.jpg,stim/3.jpg,stim/latef.jpg,CD,2,4,,,,,0,1,1,35,,,,,,,,,,,,,,2,0,0.849726088803,,,,,,PLC_L_D2S1,P7,60.012084944,02,C,2015_Jan_23_1651,Y,
stim/posf.jpg,stim/negf.jpg,stim/3.jpg,stim/5.jpg,stim/latef.jpg,CD,1,2,,,,,0,2,2,22,,,,,,,,,,,,,,2,1,0.983015833655,,,,,,PLC_L_D2S1,P7,60.012084944,02,C,2015_Jan_23_1651,Y,
stim/negf.jpg,stim/posf.jpg,stim/4.jpg,stim/1.jpg,stim/latef.jpg,AB,2,4,,,,,0,3,3,18,,,,,,,,,,,,,,4,1,0.74966515716,,,,,,PLC_L_D2S1,P7,60.012084944,02,C,2015_Jan_23_1651,Y,
stim/posf.jpg,stim/negf.jpg,stim/5.jpg,stim/3.jpg,stim/latef.jpg,CD,2,4,,,,,0,4,4,32,,,,,,,,,,,,,,2,0,0.849709475457,,,,,,PLC_L_D2S1,P7,60.012084944,02,C,2015_Jan_23_1651,Y,
stim/posf.jpg,stim/negf.jpg,stim/4.jpg,stim/1.jpg,stim/latef.jpg,AB,2,4,,,,,0,5,5,13,,,,,,,,,,,,,,4,1,0.633144492356,,,,,,PLC_L_D2S1,P7,60.012084944,02,C,2015_Jan_23_1651,Y,
stim/negf.jpg,stim/posf.jpg,stim/3.jpg,stim/5.jpg,stim/latef.jpg,CD,1,2,,,,,0,6,6,28,,,,,,,,,,,,,,2,1,0.599791491073,,,,,,PLC_L_D2S1,P7,60.012084944,02,C,2015_Jan_23_1651,Y,
stim/negf.jpg,stim/posf.jpg,stim/2.jpg,stim/6.jpg,stim/latef.jpg,EF,1,2,,,,,0,7,7,49,,,,,,,,,,,,,,2,1,0.616488493739,,,,,,PLC_L_D2S1,P7,60.012084944,02,C,2015_Jan_23_1651,Y,
stim/posf.jpg,stim/negf.jpg,stim/1.jpg,stim/4.jpg,stim/latef.jpg,AB,1,2,,,,,0,8,8,7,,,,,,,,,,,,,,2,1,0.616463050415,,,,,,PLC_L_D2S1,P7,60.012084944,02,C,2015_Jan_23_1651,Y,
stim/negf.jpg,stim/posf.jpg,stim/2.jpg,stim/6.jpg,stim/latef.jpg,EF,1,2,,,,,0,9,9,46,,,,,,,,,,,,,,2,1,0.583121645996,,,,,,PLC_L_D2S1,P7,60.012084944,02,C,2015_Jan_23_1651,Y,
stim/posf.jpg,stim/negf.jpg,stim/3.jpg,stim/5.jpg,stim/latef.jpg,CD,1,2,,,,,0,10,10,25,,,,,,,,,,,,,,2,1,0.683100572551,,,,,,PLC_L_D2S1,P7,60.012084944,02,C,2015_Jan_23_1651,Y,
stim/posf.jpg,stim/negf.jpg,stim/1.jpg,stim/4.jpg,stim/latef.jpg,AB,1,2,,,,,0,11,11,5,,,,,,,,,,,,,,4,0,0.766410177328,,,,,,PLC_L_D2S1,P7,60.012084944,02,C,2015_Jan_23_1651,Y,
stim/negf.jpg,stim/posf.jpg,stim/6.jpg,stim/2.jpg,stim/latef.jpg,EF,2,4,,,,,0,12,12,56,,,,,,,,,,,,,,4,1,0.766390300862,,,,,,PLC_L_D2S1,P7,60.012084944,02,C,2015_Jan_23_1651,Y,
stim/posf.jpg,stim/negf.jpg,stim/4.jpg,stim/1.jpg,stim/latef.jpg,AB,2,4,,,,,0,13,13,12,,,,,,,,,,,,,,2,0,0.816403439059,,,,,,PLC_L_D2S1,P7,60.012084944,02,C,2015_Jan_23_1651,Y,
stim/posf.jpg,stim/negf.jpg,stim/6.jpg,stim/2.jpg,stim/latef.jpg,EF,2,4,,,,,0,14,14,55,,,,,,,,,,,,,,2,0,0.883032753765,,,,,,PLC_L_D2S1,P7,60.012084944,02,C,2015_Jan_23_1651,Y,
stim/negf.jpg,stim/posf.jpg,stim/3.jpg,stim/5.jpg,stim/latef.jpg,CD,1,2,,,,,0,15,15,29,,,,,,,,,,,,,,2,1,0.899762414709,,,,,,PLC_L_D2S1,P7,60.012084944,02,C,2015_Jan_23_1651,Y,
stim/posf.jpg,stim/negf.jpg,stim/3.jpg,stim/5.jpg,stim/latef.jpg,CD,1,2,,,,,0,16,16,26,,,,,,,,,,,,,,4,0,0.649778990462,,,,,,PLC_L_D2S1,P7,60.012084944,02,C,2015_Jan_23_1651,Y,
stim/posf.jpg,stim/negf.jpg,stim/6.jpg,stim/2.jpg,stim/latef.jpg,EF,2,4,,,,,0,17,17,53,,,,,,,,,,,,,,4,1,0.549822833576,,,,,,PLC_L_D2S1,P7,60.012084944,02,C,2015_Jan_23_1651,Y,
stim/negf.jpg,stim/posf.jpg,stim/4.jpg,stim/1.jpg,stim/latef.jpg,AB,2,4,,,,,0,18,18,19,,,,,,,,,,,,,,4,1,0.999652722714,,,,,,PLC_L_D2S1,P7,60.012084944,02,C,2015_Jan_23_1651,Y,
stim/negf.jpg,stim/posf.jpg,stim/5.jpg,stim/3.jpg,stim/latef.jpg,CD,2,4,,,,,0,19,19,38,,,,,,,,,,,,,,4,1,0.816386549024,,,,,,PLC_L_D2S1,P7,60.012084944,02,C,2015_Jan_23_1651,Y,
stim/posf.jpg,stim/negf.jpg,stim/5.jpg,stim/3.jpg,stim/latef.jpg,CD,2,4,,,,,0,20,20,34,,,,,,,,,,,,,,2,0,0.699754859907,,,,,,PLC_L_D2S1,P7,60.012084944,02,C,2015_Jan_23_1651,Y,
stim/negf.jpg,stim/posf.jpg,stim/1.jpg,stim/4.jpg,stim/latef.jpg,AB,1,2,,,,,0,21,21,8,,,,,,,,,,,,,,4,0,1.04965603245,,,,,,PLC_L_D2S1,P7,60.012084944,02,C,2015_Jan_23_1651,Y,
stim/posf.jpg,stim/negf.jpg,stim/2.jpg,stim/6.jpg,stim/latef.jpg,EF,1,2,,,,,0,22,22,41,,,,,,,,,,,,,,4,0,0.76640525107,,,,,,PLC_L_D2S1,P7,60.012084944,02,C,2015_Jan_23_1651,Y,
stim/posf.jpg,stim/negf.jpg,stim/5.jpg,stim/3.jpg,stim/latef.jpg,CD,2,4,,,,,0,23,23,33,,,,,,,,,,,,,,2,0,0.583136370644,,,,,,PLC_L_D2S1,P7,60.012084944,02,C,2015_Jan_23_1651,Y,
stim/negf.jpg,stim/posf.jpg,stim/6.jpg,stim/2.jpg,stim/latef.jpg,EF,2,4,,,,,0,24,24,57,,,,,,,,,,,,,,4,1,0.732994851938,,,,,,PLC_L_D2S1,P7,60.012084944,02,C,2015_Jan_23_1651,Y,
stim/posf.jpg,stim/negf.jpg,stim/4.jpg,stim/1.jpg,stim/latef.jpg,AB,2,4,,,,,0,25,25,16,,,,,,,,,,,,,,4,1,0.699764574085,,,,,,PLC_L_D2S1,P7,60.012084944,02,C,2015_Jan_23_1651,Y,
stim/posf.jpg,stim/negf.jpg,stim/4.jpg,stim/1.jpg,stim/latef.jpg,AB,2,4,,,,,0,26,26,14,,,,,,,,,,,,,,4,1,0.799752068961,,,,,,PLC_L_D2S1,P7,60.012084944,02,C,2015_Jan_23_1651,Y,
stim/negf.jpg,stim/posf.jpg,stim/2.jpg,stim/6.jpg,stim/latef.jpg,EF,1,2,,,,,0,27,27,48,,,,,,,,,,,,,,2,1,0.716464382733,,,,,,PLC_L_D2S1,P7,60.012084944,02,C,2015_Jan_23_1651,Y,
stim/posf.jpg,stim/negf.jpg,stim/1.jpg,stim/4.jpg,stim/latef.jpg,AB,1,2,,,,,0,28,28,3,,,,,,,,,,,,,,4,0,0.666429121475,,,,,,PLC_L_D2S1,P7,60.012084944,02,C,2015_Jan_23_1651,Y,
stim/posf.jpg,stim/negf.jpg,stim/3.jpg,stim/5.jpg,stim/latef.jpg,CD,1,2,,,,,0,29,29,24,,,,,,,,,,,,,,4,0,0.649786689624,,,,,,PLC_L_D2S1,P7,60.012084944,02,C,2015_Jan_23_1651,Y,
stim/negf.jpg,stim/posf.jpg,stim/1.jpg,stim/4.jpg,stim/latef.jpg,AB,1,2,,,,,0,30,30,9,,,,,,,,,,,,,,4,0,0.883048152087,,,,,,PLC_L_D2S1,P7,60.012084944,02,C,2015_Jan_23_1651,Y,
stim/negf.jpg,stim/posf.jpg,stim/2.jpg,stim/6.jpg,stim/latef.jpg,EF,1,2,,,,,0,31,31,47,,,,,,,,,,,,,,2,1,0.733028791405,,,,,,PLC_L_D2S1,P7,60.012084944,02,C,2015_Jan_23_1651,Y,
stim/posf.jpg,stim/negf.jpg,stim/2.jpg,stim/6.jpg,stim/latef.jpg,EF,1,2,,,,,0,32,32,40,,,,,,,,,,,,,,2,1,0.566466522558,,,,,,PLC_L_D2S1,P7,60.012084944,02,C,2015_Jan_23_1651,Y,
stim/posf.jpg,stim/negf.jpg,stim/3.jpg,stim/5.jpg,stim/latef.jpg,CD,1,2,,,,,0,33,33,21,,,,,,,,,,,,,,2,1,0.78306869321,,,,,,PLC_L_D2S1,P7,60.012084944,02,C,2015_Jan_23_1651,Y,
stim/posf.jpg,stim/negf.jpg,stim/5.jpg,stim/3.jpg,stim/latef.jpg,CD,2,4,,,,,0,34,34,36,,,,,,,,,,,,,,4,1,0.816404449575,,,,,,PLC_L_D2S1,P7,60.012084944,02,C,2015_Jan_23_1651,Y,
stim/posf.jpg,stim/negf.jpg,stim/5.jpg,stim/3.jpg,stim/latef.jpg,CD,2,4,,,,,0,35,35,31,,,,,,,,,,,,,,4,1,0.566465103026,,,,,,PLC_L_D2S1,P7,60.012084944,02,C,2015_Jan_23_1651,Y,
stim/negf.jpg,stim/posf.jpg,stim/5.jpg,stim/3.jpg,stim/latef.jpg,CD,2,4,,,,,0,36,36,39,,,,,,,,,,,,,,4,1,0.649761733514,,,,,,PLC_L_D2S1,P7,60.012084944,02,C,2015_Jan_23_1651,Y,
stim/posf.jpg,stim/negf.jpg,stim/1.jpg,stim/4.jpg,stim/latef.jpg,AB,1,2,,,,,0,37,37,4,,,,,,,,,,,,,,2,1,1.03297996789,,,,,,PLC_L_D2S1,P7,60.012084944,02,C,2015_Jan_23_1651,Y,
stim/posf.jpg,stim/negf.jpg,stim/6.jpg,stim/2.jpg,stim/latef.jpg,EF,2,4,,,,,0,38,38,51,,,,,,,,,,,,,,2,0,0.849690678677,,,,,,PLC_L_D2S1,P7,60.012084944,02,C,2015_Jan_23_1651,Y,
stim/negf.jpg,stim/posf.jpg,stim/3.jpg,stim/5.jpg,stim/latef.jpg,CD,1,2,,,,,0,39,39,27,,,,,,,,,,,,,,4,0,0.799743485601,,,,,,PLC_L_D2S1,P7,60.012084944,02,C,2015_Jan_23_1651,Y,
stim/posf.jpg,stim/negf.jpg,stim/1.jpg,stim/4.jpg,stim/latef.jpg,AB,1,2,,,,,0,40,40,1,,,,,,,,,,,,,,4,0,0.899698827456,,,,,,PLC_L_D2S1,P7,60.012084944,02,C,2015_Jan_23_1651,Y,
stim/posf.jpg,stim/negf.jpg,stim/3.jpg,stim/5.jpg,stim/latef.jpg,CD,1,2,,,,,0,41,41,20,,,,,,,,,,,,,,2,1,0.783081330661,,,,,,PLC_L_D2S1,P7,60.012084944,02,C,2015_Jan_23_1651,Y,
stim/negf.jpg,stim/posf.jpg,stim/5.jpg,stim/3.jpg,stim/latef.jpg,CD,2,4,,,,,0,42,42,37,,,,,,,,,,,,,,2,0,0.633229989136,,,,,,PLC_L_D2S1,P7,60.012084944,02,C,2015_Jan_23_1651,Y,
stim/negf.jpg,stim/posf.jpg,stim/6.jpg,stim/2.jpg,stim/latef.jpg,EF,2,4,,,,,0,43,43,59,,,,,,,,,,,,,,2,0,0.949695860572,,,,,,PLC_L_D2S1,P7,60.012084944,02,C,2015_Jan_23_1651,Y,
stim/posf.jpg,stim/negf.jpg,stim/6.jpg,stim/2.jpg,stim/latef.jpg,EF,2,4,,,,,0,44,44,52,,,,,,,,,,,,,,2,0,0.683176740113,,,,,,PLC_L_D2S1,P7,60.012084944,02,C,2015_Jan_23_1651,Y,
stim/posf.jpg,stim/negf.jpg,stim/4.jpg,stim/1.jpg,stim/latef.jpg,AB,2,4,,,,,0,45,45,17,,,,,,,,,,,,,,2,0,0.799738493175,,,,,,PLC_L_D2S1,P7,60.012084944,02,C,2015_Jan_23_1651,Y,
stim/posf.jpg,stim/negf.jpg,stim/1.jpg,stim/4.jpg,stim/latef.jpg,AB,1,2,,,,,0,46,46,0,,,,,,,,,,,,,,2,1,0.866426035796,,,,,,PLC_L_D2S1,P7,60.012084944,02,C,2015_Jan_23_1651,Y,
stim/posf.jpg,stim/negf.jpg,stim/2.jpg,stim/6.jpg,stim/latef.jpg,EF,1,2,,,,,0,47,47,43,,,,,,,,,,,,,,4,0,1.06635469826,,,,,,PLC_L_D2S1,P7,60.012084944,02,C,2015_Jan_23_1651,Y,
stim/posf.jpg,stim/negf.jpg,stim/1.jpg,stim/4.jpg,stim/latef.jpg,AB,1,2,,,,,0,48,48,6,,,,,,,,,,,,,,4,0,0.666456396357,,,,,,PLC_L_D2S1,P7,60.012084944,02,C,2015_Jan_23_1651,Y,
stim/posf.jpg,stim/negf.jpg,stim/2.jpg,stim/6.jpg,stim/latef.jpg,EF,1,2,,,,,0,49,49,44,,,,,,,,,,,,,,2,1,0.583146039706,,,,,,PLC_L_D2S1,P7,60.012084944,02,C,2015_Jan_23_1651,Y,
stim/posf.jpg,stim/negf.jpg,stim/1.jpg,stim/4.jpg,stim/latef.jpg,AB,1,2,,,,,0,50,50,2,,,,,,,,,,,,,,2,1,0.999657976789,,,,,,PLC_L_D2S1,P7,60.012084944,02,C,2015_Jan_23_1651,Y,
stim/posf.jpg,stim/negf.jpg,stim/6.jpg,stim/2.jpg,stim/latef.jpg,EF,2,4,,,,,0,51,51,50,,,,,,,,,,,,,,4,1,1.14961093221,,,,,,PLC_L_D2S1,P7,60.012084944,02,C,2015_Jan_23_1651,Y,
stim/posf.jpg,stim/negf.jpg,stim/2.jpg,stim/6.jpg,stim/latef.jpg,EF,1,2,,,,,0,52,52,42,,,,,,,,,,,,,,4,0,1.4661706462,,,,,,PLC_L_D2S1,P7,60.012084944,02,C,2015_Jan_23_1651,Y,
stim/posf.jpg,stim/negf.jpg,stim/4.jpg,stim/1.jpg,stim/latef.jpg,AB,2,4,,,,,0,53,53,11,,,,,,,,,,,,,,2,0,0.883017938895,,,,,,PLC_L_D2S1,P7,60.012084944,02,C,2015_Jan_23_1651,Y,
stim/posf.jpg,stim/negf.jpg,stim/2.jpg,stim/6.jpg,stim/latef.jpg,EF,1,2,,,,,0,54,54,45,,,,,,,,,,,,,,2,1,0.649775192009,,,,,,PLC_L_D2S1,P7,60.012084944,02,C,2015_Jan_23_1651,Y,
stim/posf.jpg,stim/negf.jpg,stim/3.jpg,stim/5.jpg,stim/latef.jpg,CD,1,2,,,,,0,55,55,23,,,,,,,,,,,,,,2,1,0.98300683526,,,,,,PLC_L_D2S1,P7,60.012084944,02,C,2015_Jan_23_1651,Y,
stim/posf.jpg,stim/negf.jpg,stim/6.jpg,stim/2.jpg,stim/latef.jpg,EF,2,4,,,,,0,56,56,54,,,,,,,,,,,,,,2,0,0.99970218381,,,,,,PLC_L_D2S1,P7,60.012084944,02,C,2015_Jan_23_1651,Y,
stim/posf.jpg,stim/negf.jpg,stim/4.jpg,stim/1.jpg,stim/latef.jpg,AB,2,4,,,,,0,57,57,10,,,,,,,,,,,,,,4,1,0.866391506863,,,,,,PLC_L_D2S1,P7,60.012084944,02,C,2015_Jan_23_1651,Y,
stim/negf.jpg,stim/posf.jpg,stim/6.jpg,stim/2.jpg,stim/latef.jpg,EF,2,4,,,,,0,58,58,58,,,,,,,,,,,,,,4,1,0.783095050807,,,,,,PLC_L_D2S1,P7,60.012084944,02,C,2015_Jan_23_1651,Y,
stim/posf.jpg,stim/negf.jpg,stim/5.jpg,stim/3.jpg,stim/latef.jpg,CD,2,4,,,,,0,59,59,30,,,,,,,,,,,,,,4,1,0.633032060539,,,,,,PLC_L_D2S1,P7,60.012084944,02,C,2015_Jan_23_1651,Y,
,,,,,,,,,,,,,,,,,,,,,,,,,,,,,,,,-0.496875,-0.998046875,1,0,0,PLC_L_D2S1,P7,60.012084944,02,C,2015_Jan_23_1651,Y,
stim/posf.jpg,stim/negf.jpg,stim/5.jpg,stim/3.jpg,stim/latef.jpg,CD,2,4,,,,,,,,,0,0,0,32,,,,,,,,,,4,1,0.933040818336,,,,,,PLC_L_D2S1,P7,60.012084944,02,C,2015_Jan_23_1651,Y,
stim/posf.jpg,stim/negf.jpg,stim/3.jpg,stim/5.jpg,stim/latef.jpg,CD,1,2,,,,,,,,,0,1,1,20,,,,,,,,,,2,1,0.716423351616,,,,,,PLC_L_D2S1,P7,60.012084944,02,C,2015_Jan_23_1651,Y,
stim/negf.jpg,stim/posf.jpg,stim/3.jpg,stim/5.jpg,stim/latef.jpg,CD,1,2,,,,,,,,,0,2,2,29,,,,,,,,,,2,1,0.716426677895,,,,,,PLC_L_D2S1,P7,60.012084944,02,C,2015_Jan_23_1651,Y,
stim/posf.jpg,stim/negf.jpg,stim/5.jpg,stim/3.jpg,stim/latef.jpg,CD,2,4,,,,,,,,,0,3,3,34,,,,,,,,,,4,1,0.933077527696,,,,,,PLC_L_D2S1,P7,60.012084944,02,C,2015_Jan_23_1651,Y,
stim/negf.jpg,stim/posf.jpg,stim/2.jpg,stim/6.jpg,stim/latef.jpg,EF,1,2,,,,,,,,,0,4,4,49,,,,,,,,,,2,1,0.866381392692,,,,,,PLC_L_D2S1,P7,60.012084944,02,C,2015_Jan_23_1651,Y,
stim/negf.jpg,stim/posf.jpg,stim/5.jpg,stim/3.jpg,stim/latef.jpg,CD,2,4,,,,,,,,,0,5,5,38,,,,,,,,,,2,0,0.6831008342,,,,,,PLC_L_D2S1,P7,60.012084944,02,C,2015_Jan_23_1651,Y,
stim/posf.jpg,stim/negf.jpg,stim/5.jpg,stim/3.jpg,stim/latef.jpg,CD,2,4,,,,,,,,,0,6,6,30,,,,,,,,,,2,0,1.01631072131,,,,,,PLC_L_D2S1,P7,60.012084944,02,C,2015_Jan_23_1651,Y,
stim/posf.jpg,stim/negf.jpg,stim/5.jpg,stim/3.jpg,stim/latef.jpg,CD,2,4,,,,,,,,,0,7,7,31,,,,,,,,,,4,1,0.733071660095,,,,,,PLC_L_D2S1,P7,60.012084944,02,C,2015_Jan_23_1651,Y,
stim/posf.jpg,stim/negf.jpg,stim/5.jpg,stim/3.jpg,stim/latef.jpg,CD,2,4,,,,,,,,,0,8,8,33,,,,,,,,,,4,1,0.633137099956,,,,,,PLC_L_D2S1,P7,60.012084944,02,C,2015_Jan_23_1651,Y,
stim/posf.jpg,stim/negf.jpg,stim/4.jpg,stim/1.jpg,stim/latef.jpg,AB,2,4,,,,,,,,,0,9,9,16,,,,,,,,,,4,1,0.916351833626,,,,,,PLC_L_D2S1,P7,60.012084944,02,C,2015_Jan_23_1651,Y,
stim/posf.jpg,stim/negf.jpg,stim/1.jpg,stim/4.jpg,stim/latef.jpg,AB,1,2,,,,,,,,,0,10,10,7,,,,,,,,,,2,1,0.816398951891,,,,,,PLC_L_D2S1,P7,60.012084944,02,C,2015_Jan_23_1651,Y,
stim/negf.jpg,stim/posf.jpg,stim/6.jpg,stim/2.jpg,stim/latef.jpg,EF,2,4,,,,,,,,,0,11,11,56,,,,,,,,,,4,1,0.949705132649,,,,,,PLC_L_D2S1,P7,60.012084944,02,C,2015_Jan_23_1651,Y,
stim/negf.jpg,stim/posf.jpg,stim/3.jpg,stim/5.jpg,stim/latef.jpg,CD,1,2,,,,,,,,,0,12,12,28,,,,,,,,,,2,1,0.833068249605,,,,,,PLC_L_D2S1,P7,60.012084944,02,C,2015_Jan_23_1651,Y,
stim/posf.jpg,stim/negf.jpg,stim/4.jpg,stim/1.jpg,stim/latef.jpg,AB,2,4,,,,,,,,,0,13,13,12,,,,,,,,,,2,0,0.516480057744,,,,,,PLC_L_D2S1,P7,60.012084944,02,C,2015_Jan_23_1651,Y,
stim/negf.jpg,stim/posf.jpg,stim/6.jpg,stim/2.jpg,stim/latef.jpg,EF,2,4,,,,,,,,,0,14,14,58,,,,,,,,,,2,0,0.566459933158,,,,,,PLC_L_D2S1,P7,60.012084944,02,C,2015_Jan_23_1651,Y,
stim/posf.jpg,stim/negf.jpg,stim/4.jpg,stim/1.jpg,stim/latef.jpg,AB,2,4,,,,,,,,,0,15,15,11,,,,,,,,,,2,0,0.566464844382,,,,,,PLC_L_D2S1,P7,60.012084944,02,C,2015_Jan_23_1651,Y,
stim/negf.jpg,stim/posf.jpg,stim/2.jpg,stim/6.jpg,stim/latef.jpg,EF,1,2,,,,,,,,,0,16,16,48,,,,,,,,,,2,1,0.533156726804,,,,,,PLC_L_D2S1,P7,60.012084944,02,C,2015_Jan_23_1651,Y,
stim/posf.jpg,stim/negf.jpg,stim/5.jpg,stim/3.jpg,stim/latef.jpg,CD,2,4,,,,,,,,,0,17,17,36,,,,,,,,,,2,0,0.733082811848,,,,,,PLC_L_D2S1,P7,60.012084944,02,C,2015_Jan_23_1651,Y,
stim/negf.jpg,stim/posf.jpg,stim/4.jpg,stim/1.jpg,stim/latef.jpg,AB,2,4,,,,,,,,,0,18,18,19,,,,,,,,,,2,0,0.783065478208,,,,,,PLC_L_D2S1,P7,60.012084944,02,C,2015_Jan_23_1651,Y,
stim/posf.jpg,stim/negf.jpg,stim/1.jpg,stim/4.jpg,stim/latef.jpg,AB,1,2,,,,,,,,,0,19,19,1,,,,,,,,,,4,0,0.933020274208,,,,,,PLC_L_D2S1,P7,60.012084944,02,C,2015_Jan_23_1651,Y,
stim/posf.jpg,stim/negf.jpg,stim/3.jpg,stim/5.jpg,stim/latef.jpg,CD,1,2,,,,,,,,,0,20,20,24,,,,,,,,,,4,0,0.683108810052,,,,,,PLC_L_D2S1,P7,60.012084944,02,C,2015_Jan_23_1651,Y,
stim/posf.jpg,stim/negf.jpg,stim/2.jpg,stim/6.jpg,stim/latef.jpg,EF,1,2,,,,,,,,,0,21,21,43,,,,,,,,,,2,1,0.866381909978,,,,,,PLC_L_D2S1,P7,60.012084944,02,C,2015_Jan_23_1651,Y,
stim/posf.jpg,stim/negf.jpg,stim/3.jpg,stim/5.jpg,stim/latef.jpg,CD,1,2,,,,,,,,,0,22,22,21,,,,,,,,,,2,1,0.683086981726,,,,,,PLC_L_D2S1,P7,60.012084944,02,C,2015_Jan_23_1651,Y,
stim/posf.jpg,stim/negf.jpg,stim/3.jpg,stim/5.jpg,stim/latef.jpg,CD,1,2,,,,,,,,,0,23,23,25,,,,,,,,,,2,1,0.883029992896,,,,,,PLC_L_D2S1,P7,60.012084944,02,C,2015_Jan_23_1651,Y,
stim/negf.jpg,stim/posf.jpg,stim/2.jpg,stim/6.jpg,stim/latef.jpg,EF,1,2,,,,,,,,,0,24,24,47,,,,,,,,,,2,1,0.599800170674,,,,,,PLC_L_D2S1,P7,60.012084944,02,C,2015_Jan_23_1651,Y,
stim/posf.jpg,stim/negf.jpg,stim/6.jpg,stim/2.jpg,stim/latef.jpg,EF,2,4,,,,,,,,,0,25,25,50,,,,,,,,,,4,1,0.716413216393,,,,,,PLC_L_D2S1,P7,60.012084944,02,C,2015_Jan_23_1651,Y,
stim/posf.jpg,stim/negf.jpg,stim/3.jpg,stim/5.jpg,stim/latef.jpg,CD,1,2,,,,,,,,,0,26,26,26,,,,,,,,,,2,1,0.666460748187,,,,,,PLC_L_D2S1,P7,60.012084944,02,C,2015_Jan_23_1651,Y,
stim/negf.jpg,stim/posf.jpg,stim/2.jpg,stim/6.jpg,stim/latef.jpg,EF,1,2,,,,,,,,,0,27,27,46,,,,,,,,,,2,1,0.583156382447,,,,,,PLC_L_D2S1,P7,60.012084944,02,C,2015_Jan_23_1651,Y,
stim/negf.jpg,stim/posf.jpg,stim/4.jpg,stim/1.jpg,stim/latef.jpg,AB,2,4,,,,,,,,,0,28,28,18,,,,,,,,,,4,1,0.716362633504,,,,,,PLC_L_D2S1,P7,60.012084944,02,C,2015_Jan_23_1651,Y,
stim/posf.jpg,stim/negf.jpg,stim/2.jpg,stim/6.jpg,stim/latef.jpg,EF,1,2,,,,,,,,,0,29,29,40,,,,,,,,,,2,1,0.516505504072,,,,,,PLC_L_D2S1,P7,60.012084944,02,C,2015_Jan_23_1651,Y,
stim/posf.jpg,stim/negf.jpg,stim/1.jpg,stim/4.jpg,stim/latef.jpg,AB,1,2,,,,,,,,,0,30,30,3,,,,,,,,,,2,1,0.616451892647,,,,,,PLC_L_D2S1,P7,60.012084944,02,C,2015_Jan_23_1651,Y,
stim/posf.jpg,stim/negf.jpg,stim/2.jpg,stim/6.jpg,stim/latef.jpg,EF,1,2,,,,,,,,,0,31,31,44,,,,,,,,,,2,1,0.533147250218,,,,,,PLC_L_D2S1,P7,60.012084944,02,C,2015_Jan_23_1651,Y,
stim/posf.jpg,stim/negf.jpg,stim/3.jpg,stim/5.jpg,stim/latef.jpg,CD,1,2,,,,,,,,,0,32,32,23,,,,,,,,,,2,1,0.566520642247,,,,,,PLC_L_D2S1,P7,60.012084944,02,C,2015_Jan_23_1651,Y,
stim/posf.jpg,stim/negf.jpg,stim/4.jpg,stim/1.jpg,stim/latef.jpg,AB,2,4,,,,,,,,,0,33,33,15,,,,,,,,,,2,0,0.499839138656,,,,,,PLC_L_D2S1,P7,60.012084944,02,C,2015_Jan_23_1651,Y,
stim/posf.jpg,stim/negf.jpg,stim/2.jpg,stim/6.jpg,stim/latef.jpg,EF,1,2,,,,,,,,,0,34,34,45,,,,,,,,,,4,0,0.54980702323,,,,,,PLC_L_D2S1,P7,60.012084944,02,C,2015_Jan_23_1651,Y,
stim/posf.jpg,stim/negf.jpg,stim/6.jpg,stim/2.jpg,stim/latef.jpg,EF,2,4,,,,,,,,,0,35,35,54,,,,,,,,,,2,0,0.866261974488,,,,,,PLC_L_D2S1,P7,60.012084944,02,C,2015_Jan_23_1651,Y,
stim/negf.jpg,stim/posf.jpg,stim/1.jpg,stim/4.jpg,stim/latef.jpg,AB,1,2,,,,,,,,,0,36,36,8,,,,,,,,,,4,0,0.783030804916,,,,,,PLC_L_D2S1,P7,60.012084944,02,C,2015_Jan_23_1651,Y,
stim/posf.jpg,stim/negf.jpg,stim/2.jpg,stim/6.jpg,stim/latef.jpg,EF,1,2,,,,,,,,,0,37,37,42,,,,,,,,,,4,0,0.616496794397,,,,,,PLC_L_D2S1,P7,60.012084944,02,C,2015_Jan_23_1651,Y,
stim/posf.jpg,stim/negf.jpg,stim/3.jpg,stim/5.jpg,stim/latef.jpg,CD,1,2,,,,,,,,,0,38,38,22,,,,,,,,,,2,1,0.699747900588,,,,,,PLC_L_D2S1,P7,60.012084944,02,C,2015_Jan_23_1651,Y,
stim/negf.jpg,stim/posf.jpg,stim/6.jpg,stim/2.jpg,stim/latef.jpg,EF,2,4,,,,,,,,,0,39,39,57,,,,,,,,,,2,0,1.21626138051,,,,,,PLC_L_D2S1,P7,60.012084944,02,C,2015_Jan_23_1651,Y,
stim/posf.jpg,stim/negf.jpg,stim/6.jpg,stim/2.jpg,stim/latef.jpg,EF,2,4,,,,,,,,,0,40,40,52,,,,,,,,,,2,0,0.616462009828,,,,,,PLC_L_D2S1,P7,60.012084944,02,C,2015_Jan_23_1651,Y,
stim/posf.jpg,stim/negf.jpg,stim/1.jpg,stim/4.jpg,stim/latef.jpg,AB,1,2,,,,,,,,,0,41,41,6,,,,,,,,,,4,0,0.866363053048,,,,,,PLC_L_D2S1,P7,60.012084944,02,C,2015_Jan_23_1651,Y,
stim/posf.jpg,stim/negf.jpg,stim/6.jpg,stim/2.jpg,stim/latef.jpg,EF,2,4,,,,,,,,,0,42,42,55,,,,,,,,,,2,0,0.816315858092,,,,,,PLC_L_D2S1,P7,60.012084944,02,C,2015_Jan_23_1651,Y,
stim/posf.jpg,stim/negf.jpg,stim/4.jpg,stim/1.jpg,stim/latef.jpg,AB,2,4,,,,,,,,,0,43,43,10,,,,,,,,,,2,0,0.932975411555,,,,,,PLC_L_D2S1,P7,60.012084944,02,C,2015_Jan_23_1651,Y,
stim/posf.jpg,stim/negf.jpg,stim/6.jpg,stim/2.jpg,stim/latef.jpg,EF,2,4,,,,,,,,,0,44,44,53,,,,,,,,,,4,1,1.01629988534,,,,,,PLC_L_D2S1,P7,60.012084944,02,C,2015_Jan_23_1651,Y,
stim/posf.jpg,stim/negf.jpg,stim/4.jpg,stim/1.jpg,stim/latef.jpg,AB,2,4,,,,,,,,,0,45,45,14,,,,,,,,,,2,0,0.866373278497,,,,,,PLC_L_D2S1,P7,60.012084944,02,C,2015_Jan_23_1651,Y,
stim/posf.jpg,stim/negf.jpg,stim/1.jpg,stim/4.jpg,stim/latef.jpg,AB,1,2,,,,,,,,,0,46,46,2,,,,,,,,,,4,0,0.74965825799,,,,,,PLC_L_D2S1,P7,60.012084944,02,C,2015_Jan_23_1651,Y,
stim/negf.jpg,stim/posf.jpg,stim/6.jpg,stim/2.jpg,stim/latef.jpg,EF,2,4,,,,,,,,,0,47,47,59,,,,,,,,,,4,1,1.09960956831,,,,,,PLC_L_D2S1,P7,60.012084944,02,C,2015_Jan_23_1651,Y,
stim/posf.jpg,stim/negf.jpg,stim/2.jpg,stim/6.jpg,stim/latef.jpg,EF,1,2,,,,,,,,,0,48,48,41,,,,,,,,,,2,1,0.833074114202,,,,,,PLC_L_D2S1,P7,60.012084944,02,C,2015_Jan_23_1651,Y,
stim/posf.jpg,stim/negf.jpg,stim/1.jpg,stim/4.jpg,stim/latef.jpg,AB,1,2,,,,,,,,,0,49,49,0,,,,,,,,,,2,1,1.016358011,,,,,,PLC_L_D2S1,P7,60.012084944,02,C,2015_Jan_23_1651,Y,
stim/negf.jpg,stim/posf.jpg,stim/5.jpg,stim/3.jpg,stim/latef.jpg,CD,2,4,,,,,,,,,0,50,50,37,,,,,,,,,,2,0,0.782996417332,,,,,,PLC_L_D2S1,P7,60.012084944,02,C,2015_Jan_23_1651,Y,
stim/posf.jpg,stim/negf.jpg,stim/6.jpg,stim/2.jpg,stim/latef.jpg,EF,2,4,,,,,,,,,0,51,51,51,,,,,,,,,,2,0,0.883038377762,,,,,,PLC_L_D2S1,P7,60.012084944,02,C,2015_Jan_23_1651,Y,
stim/negf.jpg,stim/posf.jpg,stim/5.jpg,stim/3.jpg,stim/latef.jpg,CD,2,4,,,,,,,,,0,52,52,39,,,,,,,,,,4,1,0.999677221685,,,,,,PLC_L_D2S1,P7,60.012084944,02,C,2015_Jan_23_1651,Y,
stim/posf.jpg,stim/negf.jpg,stim/1.jpg,stim/4.jpg,stim/latef.jpg,AB,1,2,,,,,,,,,0,53,53,4,,,,,,,,,,4,0,0.616487672696,,,,,,PLC_L_D2S1,P7,60.012084944,02,C,2015_Jan_23_1651,Y,
stim/negf.jpg,stim/posf.jpg,stim/1.jpg,stim/4.jpg,stim/latef.jpg,AB,1,2,,,,,,,,,0,54,54,9,,,,,,,,,,4,0,0.666464507543,,,,,,PLC_L_D2S1,P7,60.012084944,02,C,2015_Jan_23_1651,Y,
stim/negf.jpg,stim/posf.jpg,stim/3.jpg,stim/5.jpg,stim/latef.jpg,CD,1,2,,,,,,,,,0,55,55,27,,,,,,,,,,2,1,0.616485639635,,,,,,PLC_L_D2S1,P7,60.012084944,02,C,2015_Jan_23_1651,Y,
stim/posf.jpg,stim/negf.jpg,stim/4.jpg,stim/1.jpg,stim/latef.jpg,AB,2,4,,,,,,,,,0,56,56,17,,,,,,,,,,2,0,0.633116709208,,,,,,PLC_L_D2S1,P7,60.012084944,02,C,2015_Jan_23_1651,Y,
stim/posf.jpg,stim/negf.jpg,stim/4.jpg,stim/1.jpg,stim/latef.jpg,AB,2,4,,,,,,,,,0,57,57,13,,,,,,,,,,2,0,0.566461900054,,,,,,PLC_L_D2S1,P7,60.012084944,02,C,2015_Jan_23_1651,Y,
stim/posf.jpg,stim/negf.jpg,stim/1.jpg,stim/4.jpg,stim/latef.jpg,AB,1,2,,,,,,,,,0,58,58,5,,,,,,,,,,4,0,0.616460494055,,,,,,PLC_L_D2S1,P7,60.012084944,02,C,2015_Jan_23_1651,Y,
stim/posf.jpg,stim/negf.jpg,stim/5.jpg,stim/3.jpg,stim/latef.jpg,CD,2,4,,,,,,,,,0,59,59,35,,,,,,,,,,2,0,0.633127791793,,,,,,PLC_L_D2S1,P7,60.012084944,02,C,2015_Jan_23_1651,Y,
,,,,,,,,,,,,,,,,,,,,,,,,,,,,,,,,-0.496875,-0.998046875,1,0,0,PLC_L_D2S1,P7,60.012084944,02,C,2015_Jan_23_1651,Y,
stim/posf.jpg,stim/negf.jpg,stim/5.jpg,stim/3.jpg,stim/latef.jpg,CD,2,4,,,,,,,,,,,,,0,0,0,36,,,,,,4,1,0.833046956614,,,,,,PLC_L_D2S1,P7,60.012084944,02,C,2015_Jan_23_1651,Y,
stim/posf.jpg,stim/negf.jpg,stim/3.jpg,stim/5.jpg,stim/latef.jpg,CD,1,2,,,,,,,,,,,,,0,1,1,26,,,,,,2,1,0.699762733504,,,,,,PLC_L_D2S1,P7,60.012084944,02,C,2015_Jan_23_1651,Y,
stim/posf.jpg,stim/negf.jpg,stim/5.jpg,stim/3.jpg,stim/latef.jpg,CD,2,4,,,,,,,,,,,,,0,2,2,32,,,,,,4,1,0.716430169585,,,,,,PLC_L_D2S1,P7,60.012084944,02,C,2015_Jan_23_1651,Y,
stim/negf.jpg,stim/posf.jpg,stim/5.jpg,stim/3.jpg,stim/latef.jpg,CD,2,4,,,,,,,,,,,,,0,3,3,38,,,,,,4,1,0.649766774059,,,,,,PLC_L_D2S1,P7,60.012084944,02,C,2015_Jan_23_1651,Y,
stim/posf.jpg,stim/negf.jpg,stim/5.jpg,stim/3.jpg,stim/latef.jpg,CD,2,4,,,,,,,,,,,,,0,4,4,33,,,,,,4,1,0.449849852821,,,,,,PLC_L_D2S1,P7,60.012084944,02,C,2015_Jan_23_1651,Y,
stim/negf.jpg,stim/posf.jpg,stim/2.jpg,stim/6.jpg,stim/latef.jpg,EF,1,2,,,,,,,,,,,,,0,5,5,47,,,,,,2,1,0.666433933451,,,,,,PLC_L_D2S1,P7,60.012084944,02,C,2015_Jan_23_1651,Y,
stim/posf.jpg,stim/negf.jpg,stim/1.jpg,stim/4.jpg,stim/latef.jpg,AB,1,2,,,,,,,,,,,,,0,6,6,5,,,,,,4,0,0.683105661214,,,,,,PLC_L_D2S1,P7,60.012084944,02,C,2015_Jan_23_1651,Y,
stim/posf.jpg,stim/negf.jpg,stim/3.jpg,stim/5.jpg,stim/latef.jpg,CD,1,2,,,,,,,,,,,,,0,7,7,25,,,,,,2,1,0.599855974557,,,,,,PLC_L_D2S1,P7,60.012084944,02,C,2015_Jan_23_1651,Y,
stim/posf.jpg,stim/negf.jpg,stim/1.jpg,stim/4.jpg,stim/latef.jpg,AB,1,2,,,,,,,,,,,,,0,8,8,4,,,,,,2,1,0.799696219967,,,,,,PLC_L_D2S1,P7,60.012084944,02,C,2015_Jan_23_1651,Y,
stim/posf.jpg,stim/negf.jpg,stim/4.jpg,stim/1.jpg,stim/latef.jpg,AB,2,4,,,,,,,,,,,,,0,9,9,17,,,,,,2,0,0.899747461495,,,,,,PLC_L_D2S1,P7,60.012084944,02,C,2015_Jan_23_1651,Y,
stim/negf.jpg,stim/posf.jpg,stim/1.jpg,stim/4.jpg,stim/latef.jpg,AB,1,2,,,,,,,,,,,,,0,10,10,9,,,,,,2,1,0.649709048394,,,,,,PLC_L_D2S1,P7,60.012084944,02,C,2015_Jan_23_1651,Y,
stim/posf.jpg,stim/negf.jpg,stim/2.jpg,stim/6.jpg,stim/latef.jpg,EF,1,2,,,,,,,,,,,,,0,11,11,41,,,,,,2,1,0.666387967054,,,,,,PLC_L_D2S1,P7,60.012084944,02,C,2015_Jan_23_1651,Y,
stim/posf.jpg,stim/negf.jpg,stim/4.jpg,stim/1.jpg,stim/latef.jpg,AB,2,4,,,,,,,,,,,,,0,12,12,12,,,,,,4,1,0.783102310877,,,,,,PLC_L_D2S1,P7,60.012084944,02,C,2015_Jan_23_1651,Y,
stim/posf.jpg,stim/negf.jpg,stim/2.jpg,stim/6.jpg,stim/latef.jpg,EF,1,2,,,,,,,,,,,,,0,13,13,42,,,,,,2,1,0.699766447746,,,,,,PLC_L_D2S1,P7,60.012084944,02,C,2015_Jan_23_1651,Y,
stim/negf.jpg,stim/posf.jpg,stim/6.jpg,stim/2.jpg,stim/latef.jpg,EF,2,4,,,,,,,,,,,,,0,14,14,58,,,,,,4,1,1.06632311966,,,,,,PLC_L_D2S1,P7,60.012084944,02,C,2015_Jan_23_1651,Y,
stim/posf.jpg,stim/negf.jpg,stim/1.jpg,stim/4.jpg,stim/latef.jpg,AB,1,2,,,,,,,,,,,,,0,15,15,3,,,,,,2,1,0.982949287038,,,,,,PLC_L_D2S1,P7,60.012084944,02,C,2015_Jan_23_1651,Y,
stim/posf.jpg,stim/negf.jpg,stim/2.jpg,stim/6.jpg,stim/latef.jpg,EF,1,2,,,,,,,,,,,,,0,16,16,43,,,,,,2,1,0.866383314475,,,,,,PLC_L_D2S1,P7,60.012084944,02,C,2015_Jan_23_1651,Y,
stim/posf.jpg,stim/negf.jpg,stim/4.jpg,stim/1.jpg,stim/latef.jpg,AB,2,4,,,,,,,,,,,,,0,17,17,13,,,,,,4,1,0.833057404616,,,,,,PLC_L_D2S1,P7,60.012084944,02,C,2015_Jan_23_1651,Y,
stim/posf.jpg,stim/negf.jpg,stim/1.jpg,stim/4.jpg,stim/latef.jpg,AB,1,2,,,,,,,,,,,,,0,18,18,6,,,,,,2,1,0.999616876501,,,,,,PLC_L_D2S1,P7,60.012084944,02,C,2015_Jan_23_1651,Y,
stim/posf.jpg,stim/negf.jpg,stim/3.jpg,stim/5.jpg,stim/latef.jpg,CD,1,2,,,,,,,,,,,,,0,19,19,24,,,,,,2,1,0.949671391676,,,,,,PLC_L_D2S1,P7,60.012084944,02,C,2015_Jan_23_1651,Y,
stim/negf.jpg,stim/posf.jpg,stim/4.jpg,stim/1.jpg,stim/latef.jpg,AB,2,4,,,,,,,,,,,,,0,20,20,19,,,,,,4,1,0.93301455698,,,,,,PLC_L_D2S1,P7,60.012084944,02,C,2015_Jan_23_1651,Y,
stim/posf.jpg,stim/negf.jpg,stim/2.jpg,stim/6.jpg,stim/latef.jpg,EF,1,2,,,,,,,,,,,,,0,21,21,40,,,,,,2,1,1.13293773078,,,,,,PLC_L_D2S1,P7,60.012084944,02,C,2015_Jan_23_1651,Y,
stim/posf.jpg,stim/negf.jpg,stim/4.jpg,stim/1.jpg,stim/latef.jpg,AB,2,4,,,,,,,,,,,,,0,22,22,10,,,,,,4,1,1.03301240061,,,,,,PLC_L_D2S1,P7,60.012084944,02,C,2015_Jan_23_1651,Y,
stim/posf.jpg,stim/negf.jpg,stim/6.jpg,stim/2.jpg,stim/latef.jpg,EF,2,4,,,,,,,,,,,,,0,23,23,54,,,,,,4,1,1.2829247219,,,,,,PLC_L_D2S1,P7,60.012084944,02,C,2015_Jan_23_1651,Y,
stim/posf.jpg,stim/negf.jpg,stim/4.jpg,stim/1.jpg,stim/latef.jpg,AB,2,4,,,,,,,,,,,,,0,24,24,11,,,,,,4,1,0.966351317842,,,,,,PLC_L_D2S1,P7,60.012084944,02,C,2015_Jan_23_1651,Y,
stim/negf.jpg,stim/posf.jpg,stim/2.jpg,stim/6.jpg,stim/latef.jpg,EF,1,2,,,,,,,,,,,,,0,25,25,46,,,,,,4,0,1.09962789893,,,,,,PLC_L_D2S1,P7,60.012084944,02,C,2015_Jan_23_1651,Y,
stim/posf.jpg,stim/negf.jpg,stim/2.jpg,stim/6.jpg,stim/latef.jpg,EF,1,2,,,,,,,,,,,,,0,26,26,44,,,,,,4,0,1.01631843851,,,,,,PLC_L_D2S1,P7,60.012084944,02,C,2015_Jan_23_1651,Y,
stim/negf.jpg,stim/posf.jpg,stim/6.jpg,stim/2.jpg,stim/latef.jpg,EF,2,4,,,,,,,,,,,,,0,27,27,57,,,,,,4,1,0.966353179474,,,,,,PLC_L_D2S1,P7,60.012084944,02,C,2015_Jan_23_1651,Y,
stim/posf.jpg,stim/negf.jpg,stim/4.jpg,stim/1.jpg,stim/latef.jpg,AB,2,4,,,,,,,,,,,,,0,28,28,15,,,,,,4,1,0.699757344089,,,,,,PLC_L_D2S1,P7,60.012084944,02,C,2015_Jan_23_1651,Y,
stim/posf.jpg,stim/negf.jpg,stim/1.jpg,stim/4.jpg,stim/latef.jpg,AB,1,2,,,,,,,,,,,,,0,29,29,0,,,,,,2,1,0.866371669492,,,,,,PLC_L_D2S1,P7,60.012084944,02,C,2015_Jan_23_1651,Y,
stim/posf.jpg,stim/negf.jpg,stim/5.jpg,stim/3.jpg,stim/latef.jpg,CD,2,4,,,,,,,,,,,,,0,30,30,30,,,,,,4,1,1.09964129126,,,,,,PLC_L_D2S1,P7,60.012084944,02,C,2015_Jan_23_1651,Y,
stim/negf.jpg,stim/posf.jpg,stim/3.jpg,stim/5.jpg,stim/latef.jpg,CD,1,2,,,,,,,,,,,,,0,31,31,29,,,,,,4,0,0.699770041692,,,,,,PLC_L_D2S1,P7,60.012084944,02,C,2015_Jan_23_1651,Y,
stim/posf.jpg,stim/negf.jpg,stim/6.jpg,stim/2.jpg,stim/latef.jpg,EF,2,4,,,,,,,,,,,,,0,32,32,51,,,,,,4,1,0.683067902242,,,,,,PLC_L_D2S1,P7,60.012084944,02,C,2015_Jan_23_1651,Y,
stim/posf.jpg,stim/negf.jpg,stim/2.jpg,stim/6.jpg,stim/latef.jpg,EF,1,2,,,,,,,,,,,,,0,33,33,45,,,,,,4,0,0.716411860018,,,,,,PLC_L_D2S1,P7,60.012084944,02,C,2015_Jan_23_1651,Y,
stim/negf.jpg,stim/posf.jpg,stim/2.jpg,stim/6.jpg,stim/latef.jpg,EF,1,2,,,,,,,,,,,,,0,34,34,49,,,,,,2,1,0.666414276531,,,,,,PLC_L_D2S1,P7,60.012084944,02,C,2015_Jan_23_1651,Y,
stim/posf.jpg,stim/negf.jpg,stim/3.jpg,stim/5.jpg,stim/latef.jpg,CD,1,2,,,,,,,,,,,,,0,35,35,23,,,,,,4,0,0.483168640954,,,,,,PLC_L_D2S1,P7,60.012084944,02,C,2015_Jan_23_1651,Y,
stim/posf.jpg,stim/negf.jpg,stim/3.jpg,stim/5.jpg,stim/latef.jpg,CD,1,2,,,,,,,,,,,,,0,36,36,21,,,,,,2,1,0.599800318043,,,,,,PLC_L_D2S1,P7,60.012084944,02,C,2015_Jan_23_1651,Y,
stim/posf.jpg,stim/negf.jpg,stim/6.jpg,stim/2.jpg,stim/latef.jpg,EF,2,4,,,,,,,,,,,,,0,37,37,52,,,,,,2,0,0.74975399225,,,,,,PLC_L_D2S1,P7,60.012084944,02,C,2015_Jan_23_1651,Y,
stim/negf.jpg,stim/posf.jpg,stim/3.jpg,stim/5.jpg,stim/latef.jpg,CD,1,2,,,,,,,,,,,,,0,38,38,27,,,,,,4,0,0.71645395879,,,,,,PLC_L_D2S1,P7,60.012084944,02,C,2015_Jan_23_1651,Y,
stim/posf.jpg,stim/negf.jpg,stim/1.jpg,stim/4.jpg,stim/latef.jpg,AB,1,2,,,,,,,,,,,,,0,39,39,1,,,,,,2,1,0.816331921067,,,,,,PLC_L_D2S1,P7,60.012084944,02,C,2015_Jan_23_1651,Y,
stim/negf.jpg,stim/posf.jpg,stim/5.jpg,stim/3.jpg,stim/latef.jpg,CD,2,4,,,,,,,,,,,,,0,40,40,39,,,,,,2,0,0.716428199683,,,,,,PLC_L_D2S1,P7,60.012084944,02,C,2015_Jan_23_1651,Y,
stim/negf.jpg,stim/posf.jpg,stim/6.jpg,stim/2.jpg,stim/latef.jpg,EF,2,4,,,,,,,,,,,,,0,41,41,56,,,,,,4,1,1.13295286143,,,,,,PLC_L_D2S1,P7,60.012084944,02,C,2015_Jan_23_1651,Y,
stim/negf.jpg,stim/posf.jpg,stim/2.jpg,stim/6.jpg,stim/latef.jpg,EF,1,2,,,,,,,,,,,,,0,42,42,48,,,,,,2,1,0.699775530353,,,,,,PLC_L_D2S1,P7,60.012084944,02,C,2015_Jan_23_1651,Y,
stim/negf.jpg,stim/posf.jpg,stim/5.jpg,stim/3.jpg,stim/latef.jpg,CD,2,4,,,,,,,,,,,,,0,43,43,37,,,,,,2,0,0.666413151732,,,,,,PLC_L_D2S1,P7,60.012084944,02,C,2015_Jan_23_1651,Y,
stim/posf.jpg,stim/negf.jpg,stim/4.jpg,stim/1.jpg,stim/latef.jpg,AB,2,4,,,,,,,,,,,,,0,44,44,14,,,,,,4,1,0.849709691996,,,,,,PLC_L_D2S1,P7,60.012084944,02,C,2015_Jan_23_1651,Y,
stim/negf.jpg,stim/posf.jpg,stim/4.jpg,stim/1.jpg,stim/latef.jpg,AB,2,4,,,,,,,,,,,,,0,45,45,18,,,,,,4,1,0.833059293316,,,,,,PLC_L_D2S1,P7,60.012084944,02,C,2015_Jan_23_1651,Y,
stim/negf.jpg,stim/posf.jpg,stim/1.jpg,stim/4.jpg,stim/latef.jpg,AB,1,2,,,,,,,,,,,,,0,46,46,8,,,,,,2,1,0.949619792258,,,,,,PLC_L_D2S1,P7,60.012084944,02,C,2015_Jan_23_1651,Y,
stim/posf.jpg,stim/negf.jpg,stim/6.jpg,stim/2.jpg,stim/latef.jpg,EF,2,4,,,,,,,,,,,,,0,47,47,53,,,,,,4,1,1.03297862355,,,,,,PLC_L_D2S1,P7,60.012084944,02,C,2015_Jan_23_1651,Y,
stim/posf.jpg,stim/negf.jpg,stim/6.jpg,stim/2.jpg,stim/latef.jpg,EF,2,4,,,,,,,,,,,,,0,48,48,55,,,,,,4,1,1.01632192419,,,,,,PLC_L_D2S1,P7,60.012084944,02,C,2015_Jan_23_1651,Y,
stim/posf.jpg,stim/negf.jpg,stim/5.jpg,stim/3.jpg,stim/latef.jpg,CD,2,4,,,,,,,,,,,,,0,49,49,31,,,,,,4,1,0.916368555241,,,,,,PLC_L_D2S1,P7,60.012084944,02,C,2015_Jan_23_1651,Y,
stim/posf.jpg,stim/negf.jpg,stim/6.jpg,stim/2.jpg,stim/latef.jpg,EF,2,4,,,,,,,,,,,,,0,50,50,50,,,,,,4,1,0.883055833205,,,,,,PLC_L_D2S1,P7,60.012084944,02,C,2015_Jan_23_1651,Y,
stim/posf.jpg,stim/negf.jpg,stim/5.jpg,stim/3.jpg,stim/latef.jpg,CD,2,4,,,,,,,,,,,,,0,51,51,34,,,,,,4,1,0.733077500628,,,,,,PLC_L_D2S1,P7,60.012084944,02,C,2015_Jan_23_1651,Y,
stim/posf.jpg,stim/negf.jpg,stim/5.jpg,stim/3.jpg,stim/latef.jpg,CD,2,4,,,,,,,,,,,,,0,52,52,35,,,,,,4,1,0.849718873847,,,,,,PLC_L_D2S1,P7,60.012084944,02,C,2015_Jan_23_1651,Y,
stim/negf.jpg,stim/posf.jpg,stim/3.jpg,stim/5.jpg,stim/latef.jpg,CD,1,2,,,,,,,,,,,,,0,53,53,28,,,,,,4,0,0.583135715011,,,,,,PLC_L_D2S1,P7,60.012084944,02,C,2015_Jan_23_1651,Y,
stim/negf.jpg,stim/posf.jpg,stim/6.jpg,stim/2.jpg,stim/latef.jpg,EF,2,4,,,,,,,,,,,,,0,54,54,59,,,,,,4,1,0.599803824769,,,,,,PLC_L_D2S1,P7,60.012084944,02,C,2015_Jan_23_1651,Y,
stim/posf.jpg,stim/negf.jpg,stim/1.jpg,stim/4.jpg,stim/latef.jpg,AB,1,2,,,,,,,,,,,,,0,55,55,2,,,,,,4,0,0.583151669718,,,,,,PLC_L_D2S1,P7,60.012084944,02,C,2015_Jan_23_1651,Y,
stim/posf.jpg,stim/negf.jpg,stim/1.jpg,stim/4.jpg,stim/latef.jpg,AB,1,2,,,,,,,,,,,,,0,56,56,7,,,,,,2,1,0.699740234508,,,,,,PLC_L_D2S1,P7,60.012084944,02,C,2015_Jan_23_1651,Y,
stim/posf.jpg,stim/negf.jpg,stim/3.jpg,stim/5.jpg,stim/latef.jpg,CD,1,2,,,,,,,,,,,,,0,57,57,20,,,,,,2,1,0.783031577839,,,,,,PLC_L_D2S1,P7,60.012084944,02,C,2015_Jan_23_1651,Y,
stim/posf.jpg,stim/negf.jpg,stim/4.jpg,stim/1.jpg,stim/latef.jpg,AB,2,4,,,,,,,,,,,,,0,58,58,16,,,,,,4,1,0.849729884249,,,,,,PLC_L_D2S1,P7,60.012084944,02,C,2015_Jan_23_1651,Y,
stim/posf.jpg,stim/negf.jpg,stim/3.jpg,stim/5.jpg,stim/latef.jpg,CD,1,2,,,,,,,,,,,,,0,59,59,22,,,,,,2,1,0.91632614369,,,,,,PLC_L_D2S1,P7,60.012084944,02,C,2015_Jan_23_1651,Y,
