fb_corr,fb_incorr,symbol2,symbol1,fb_late,pair,position,correct,block_01.thisRepN,block_01.thisTrialN,block_01.thisN,block_01.thisIndex,block_02.thisRepN,block_02.thisTrialN,block_02.thisN,block_02.thisIndex,block_03.thisRepN,block_03.thisTrialN,block_03.thisN,block_03.thisIndex,block_04.thisRepN,block_04.thisTrialN,block_04.thisN,block_04.thisIndex,mouse.x,mouse.y,mouse.leftButton,mouse.midButton,mouse.rightButton,buttonBox_2.keys,buttonBox_2.corr,buttonBox_2.rt,mouse_2.x,mouse_2.y,mouse_2.leftButton,mouse_2.midButton,mouse_2.rightButton,expName,Participant,frameRate,SessionNumber,Version,date,Group,
,,,,,,,,,,,,,,,,,,,,,,,,0.9984375,1.0,1,0,0,,,,,,,,,PLC_L_D2S1,P8,60.0134916534,02,B,2015_Jan_22_1410,Y,
stim/negf.jpg,stim/posf.jpg,stim/5.jpg,stim/6.jpg,stim/latef.jpg,CD,2,4,0,0,0,39,,,,,,,,,,,,,,,,,,2,0,0.883080280599,,,,,,PLC_L_D2S1,P8,60.0134916534,02,B,2015_Jan_22_1410,Y,
stim/negf.jpg,stim/posf.jpg,stim/4.jpg,stim/1.jpg,stim/latef.jpg,AB,1,2,0,1,1,8,,,,,,,,,,,,,,,,,,2,1,0.816401266156,,,,,,PLC_L_D2S1,P8,60.0134916534,02,B,2015_Jan_22_1410,Y,
stim/negf.jpg,stim/posf.jpg,stim/2.jpg,stim/3.jpg,stim/latef.jpg,EF,2,4,0,2,2,56,,,,,,,,,,,,,,,,,,4,1,0.616462901783,,,,,,PLC_L_D2S1,P8,60.0134916534,02,B,2015_Jan_22_1410,Y,
stim/posf.jpg,stim/negf.jpg,stim/3.jpg,stim/2.jpg,stim/latef.jpg,EF,1,2,0,3,3,42,,,,,,,,,,,,,,,,,,4,0,0.866384830189,,,,,,PLC_L_D2S1,P8,60.0134916534,02,B,2015_Jan_22_1410,Y,
stim/posf.jpg,stim/negf.jpg,stim/4.jpg,stim/1.jpg,stim/latef.jpg,AB,1,2,0,4,4,5,,,,,,,,,,,,,,,,,,2,1,0.766409001436,,,,,,PLC_L_D2S1,P8,60.0134916534,02,B,2015_Jan_22_1410,Y,
stim/negf.jpg,stim/posf.jpg,stim/3.jpg,stim/2.jpg,stim/latef.jpg,EF,1,2,0,5,5,48,,,,,,,,,,,,,,,,,,4,0,0.88301457583,,,,,,PLC_L_D2S1,P8,60.0134916534,02,B,2015_Jan_22_1410,Y,
stim/negf.jpg,stim/posf.jpg,stim/5.jpg,stim/6.jpg,stim/latef.jpg,CD,2,4,0,6,6,37,,,,,,,,,,,,,,,,,,2,0,0.8830422869,,,,,,PLC_L_D2S1,P8,60.0134916534,02,B,2015_Jan_22_1410,Y,
stim/posf.jpg,stim/negf.jpg,stim/5.jpg,stim/6.jpg,stim/latef.jpg,CD,2,4,0,7,7,30,,,,,,,,,,,,,,,,,,4,1,0.699787072278,,,,,,PLC_L_D2S1,P8,60.0134916534,02,B,2015_Jan_22_1410,Y,
stim/posf.jpg,stim/negf.jpg,stim/4.jpg,stim/1.jpg,stim/latef.jpg,AB,1,2,0,8,8,6,,,,,,,,,,,,,,,,,,4,0,0.78307599191,,,,,,PLC_L_D2S1,P8,60.0134916534,02,B,2015_Jan_22_1410,Y,
stim/posf.jpg,stim/negf.jpg,stim/4.jpg,stim/1.jpg,stim/latef.jpg,AB,1,2,0,9,9,2,,,,,,,,,,,,,,,,,,2,1,0.683124337411,,,,,,PLC_L_D2S1,P8,60.0134916534,02,B,2015_Jan_22_1410,Y,
stim/posf.jpg,stim/negf.jpg,stim/1.jpg,stim/4.jpg,stim/latef.jpg,AB,2,4,0,10,10,10,,,,,,,,,,,,,,,,,,4,1,0.683136929797,,,,,,PLC_L_D2S1,P8,60.0134916534,02,B,2015_Jan_22_1410,Y,
stim/posf.jpg,stim/negf.jpg,stim/3.jpg,stim/2.jpg,stim/latef.jpg,EF,1,2,0,11,11,40,,,,,,,,,,,,,,,,,,2,1,0.749731725325,,,,,,PLC_L_D2S1,P8,60.0134916534,02,B,2015_Jan_22_1410,Y,
stim/posf.jpg,stim/negf.jpg,stim/4.jpg,stim/1.jpg,stim/latef.jpg,AB,1,2,0,12,12,7,,,,,,,,,,,,,,,,,,2,1,0.783045270336,,,,,,PLC_L_D2S1,P8,60.0134916534,02,B,2015_Jan_22_1410,Y,
stim/negf.jpg,stim/posf.jpg,stim/2.jpg,stim/3.jpg,stim/latef.jpg,EF,2,4,0,13,13,59,,,,,,,,,,,,,,,,,,4,1,0.549822404343,,,,,,PLC_L_D2S1,P8,60.0134916534,02,B,2015_Jan_22_1410,Y,
stim/posf.jpg,stim/negf.jpg,stim/1.jpg,stim/4.jpg,stim/latef.jpg,AB,2,4,0,14,14,14,,,,,,,,,,,,,,,,,,4,1,0.549822807347,,,,,,PLC_L_D2S1,P8,60.0134916534,02,B,2015_Jan_22_1410,Y,
stim/posf.jpg,stim/negf.jpg,stim/6.jpg,stim/5.jpg,stim/latef.jpg,CD,1,2,0,15,15,20,,,,,,,,,,,,,,,,,,4,0,0.549733674183,,,,,,PLC_L_D2S1,P8,60.0134916534,02,B,2015_Jan_22_1410,Y,
stim/posf.jpg,stim/negf.jpg,stim/5.jpg,stim/6.jpg,stim/latef.jpg,CD,2,4,0,16,16,32,,,,,,,,,,,,,,,,,,2,0,1.09965381914,,,,,,PLC_L_D2S1,P8,60.0134916534,02,B,2015_Jan_22_1410,Y,
stim/negf.jpg,stim/posf.jpg,stim/1.jpg,stim/4.jpg,stim/latef.jpg,AB,2,4,0,17,17,18,,,,,,,,,,,,,,,,,,4,1,0.749730829092,,,,,,PLC_L_D2S1,P8,60.0134916534,02,B,2015_Jan_22_1410,Y,
stim/posf.jpg,stim/negf.jpg,stim/3.jpg,stim/2.jpg,stim/latef.jpg,EF,1,2,0,18,18,44,,,,,,,,,,,,,,,,,,4,0,0.616444324479,,,,,,PLC_L_D2S1,P8,60.0134916534,02,B,2015_Jan_22_1410,Y,
stim/posf.jpg,stim/negf.jpg,stim/1.jpg,stim/4.jpg,stim/latef.jpg,AB,2,4,0,19,19,17,,,,,,,,,,,,,,,,,,4,1,0.533148048511,,,,,,PLC_L_D2S1,P8,60.0134916534,02,B,2015_Jan_22_1410,Y,
stim/posf.jpg,stim/negf.jpg,stim/5.jpg,stim/6.jpg,stim/latef.jpg,CD,2,4,0,20,20,33,,,,,,,,,,,,,,,,,,2,0,0.916338613995,,,,,,PLC_L_D2S1,P8,60.0134916534,02,B,2015_Jan_22_1410,Y,
stim/posf.jpg,stim/negf.jpg,stim/6.jpg,stim/5.jpg,stim/latef.jpg,CD,1,2,0,21,21,25,,,,,,,,,,,,,,,,,,4,0,0.548833458395,,,,,,PLC_L_D2S1,P8,60.0134916534,02,B,2015_Jan_22_1410,Y,
stim/negf.jpg,stim/posf.jpg,stim/2.jpg,stim/3.jpg,stim/latef.jpg,EF,2,4,0,22,22,57,,,,,,,,,,,,,,,,,,2,0,0.783074761844,,,,,,PLC_L_D2S1,P8,60.0134916534,02,B,2015_Jan_22_1410,Y,
stim/posf.jpg,stim/negf.jpg,stim/2.jpg,stim/3.jpg,stim/latef.jpg,EF,2,4,0,23,23,54,,,,,,,,,,,,,,,,,,2,0,0.766415257028,,,,,,PLC_L_D2S1,P8,60.0134916534,02,B,2015_Jan_22_1410,Y,
stim/posf.jpg,stim/negf.jpg,stim/1.jpg,stim/4.jpg,stim/latef.jpg,AB,2,4,0,24,24,16,,,,,,,,,,,,,,,,,,4,1,0.533156331155,,,,,,PLC_L_D2S1,P8,60.0134916534,02,B,2015_Jan_22_1410,Y,
stim/posf.jpg,stim/negf.jpg,stim/3.jpg,stim/2.jpg,stim/latef.jpg,EF,1,2,0,25,25,43,,,,,,,,,,,,,,,,,,2,1,0.933032792235,,,,,,PLC_L_D2S1,P8,60.0134916534,02,B,2015_Jan_22_1410,Y,
stim/negf.jpg,stim/posf.jpg,stim/2.jpg,stim/3.jpg,stim/latef.jpg,EF,2,4,0,26,26,58,,,,,,,,,,,,,,,,,,2,0,0.783078409937,,,,,,PLC_L_D2S1,P8,60.0134916534,02,B,2015_Jan_22_1410,Y,
stim/negf.jpg,stim/posf.jpg,stim/6.jpg,stim/5.jpg,stim/latef.jpg,CD,1,2,0,27,27,27,,,,,,,,,,,,,,,,,,4,0,0.566462513816,,,,,,PLC_L_D2S1,P8,60.0134916534,02,B,2015_Jan_22_1410,Y,
stim/posf.jpg,stim/negf.jpg,stim/5.jpg,stim/6.jpg,stim/latef.jpg,CD,2,4,0,28,28,35,,,,,,,,,,,,,,,,,,2,0,0.616475903189,,,,,,PLC_L_D2S1,P8,60.0134916534,02,B,2015_Jan_22_1410,Y,
stim/posf.jpg,stim/negf.jpg,stim/6.jpg,stim/5.jpg,stim/latef.jpg,CD,1,2,0,29,29,26,,,,,,,,,,,,,,,,,,4,0,0.549815342742,,,,,,PLC_L_D2S1,P8,60.0134916534,02,B,2015_Jan_22_1410,Y,
stim/posf.jpg,stim/negf.jpg,stim/4.jpg,stim/1.jpg,stim/latef.jpg,AB,1,2,0,30,30,4,,,,,,,,,,,,,,,,,,2,1,0.516518955496,,,,,,PLC_L_D2S1,P8,60.0134916534,02,B,2015_Jan_22_1410,Y,
stim/posf.jpg,stim/negf.jpg,stim/3.jpg,stim/2.jpg,stim/latef.jpg,EF,1,2,0,31,31,45,,,,,,,,,,,,,,,,,,2,1,0.849729878723,,,,,,PLC_L_D2S1,P8,60.0134916534,02,B,2015_Jan_22_1410,Y,
stim/posf.jpg,stim/negf.jpg,stim/4.jpg,stim/1.jpg,stim/latef.jpg,AB,1,2,0,32,32,3,,,,,,,,,,,,,,,,,,4,0,0.533134075684,,,,,,PLC_L_D2S1,P8,60.0134916534,02,B,2015_Jan_22_1410,Y,
stim/posf.jpg,stim/negf.jpg,stim/6.jpg,stim/5.jpg,stim/latef.jpg,CD,1,2,0,33,33,23,,,,,,,,,,,,,,,,,,4,0,0.666442483891,,,,,,PLC_L_D2S1,P8,60.0134916534,02,B,2015_Jan_22_1410,Y,
stim/negf.jpg,stim/posf.jpg,stim/5.jpg,stim/6.jpg,stim/latef.jpg,CD,2,4,0,34,34,38,,,,,,,,,,,,,,,,,,2,0,0.599796085744,,,,,,PLC_L_D2S1,P8,60.0134916534,02,B,2015_Jan_22_1410,Y,
stim/negf.jpg,stim/posf.jpg,stim/6.jpg,stim/5.jpg,stim/latef.jpg,CD,1,2,0,35,35,28,,,,,,,,,,,,,,,,,,2,1,0.749763749145,,,,,,PLC_L_D2S1,P8,60.0134916534,02,B,2015_Jan_22_1410,Y,
stim/negf.jpg,stim/posf.jpg,stim/3.jpg,stim/2.jpg,stim/latef.jpg,EF,1,2,0,36,36,46,,,,,,,,,,,,,,,,,,4,0,0.79973970722,,,,,,PLC_L_D2S1,P8,60.0134916534,02,B,2015_Jan_22_1410,Y,
stim/negf.jpg,stim/posf.jpg,stim/3.jpg,stim/2.jpg,stim/latef.jpg,EF,1,2,0,37,37,49,,,,,,,,,,,,,,,,,,2,1,1.19959846618,,,,,,PLC_L_D2S1,P8,60.0134916534,02,B,2015_Jan_22_1410,Y,
stim/posf.jpg,stim/negf.jpg,stim/2.jpg,stim/3.jpg,stim/latef.jpg,EF,2,4,0,38,38,53,,,,,,,,,,,,,,,,,,2,0,0.8330754265,,,,,,PLC_L_D2S1,P8,60.0134916534,02,B,2015_Jan_22_1410,Y,
stim/posf.jpg,stim/negf.jpg,stim/6.jpg,stim/5.jpg,stim/latef.jpg,CD,1,2,0,39,39,24,,,,,,,,,,,,,,,,,,4,0,0.583137561372,,,,,,PLC_L_D2S1,P8,60.0134916534,02,B,2015_Jan_22_1410,Y,
stim/posf.jpg,stim/negf.jpg,stim/4.jpg,stim/1.jpg,stim/latef.jpg,AB,1,2,0,40,40,0,,,,,,,,,,,,,,,,,,2,1,0.7663253359,,,,,,PLC_L_D2S1,P8,60.0134916534,02,B,2015_Jan_22_1410,Y,
stim/posf.jpg,stim/negf.jpg,stim/3.jpg,stim/2.jpg,stim/latef.jpg,EF,1,2,0,41,41,41,,,,,,,,,,,,,,,,,,4,0,0.866369434816,,,,,,PLC_L_D2S1,P8,60.0134916534,02,B,2015_Jan_22_1410,Y,
stim/posf.jpg,stim/negf.jpg,stim/2.jpg,stim/3.jpg,stim/latef.jpg,EF,2,4,0,42,42,52,,,,,,,,,,,,,,,,,,2,0,0.633128716325,,,,,,PLC_L_D2S1,P8,60.0134916534,02,B,2015_Jan_22_1410,Y,
stim/posf.jpg,stim/negf.jpg,stim/2.jpg,stim/3.jpg,stim/latef.jpg,EF,2,4,0,43,43,50,,,,,,,,,,,,,,,,,,2,0,0.883056422132,,,,,,PLC_L_D2S1,P8,60.0134916534,02,B,2015_Jan_22_1410,Y,
stim/negf.jpg,stim/posf.jpg,stim/1.jpg,stim/4.jpg,stim/latef.jpg,AB,2,4,0,44,44,19,,,,,,,,,,,,,,,,,,2,0,0.78309569101,,,,,,PLC_L_D2S1,P8,60.0134916534,02,B,2015_Jan_22_1410,Y,
stim/posf.jpg,stim/negf.jpg,stim/1.jpg,stim/4.jpg,stim/latef.jpg,AB,2,4,0,45,45,12,,,,,,,,,,,,,,,,,,4,1,0.699773300953,,,,,,PLC_L_D2S1,P8,60.0134916534,02,B,2015_Jan_22_1410,Y,
stim/posf.jpg,stim/negf.jpg,stim/6.jpg,stim/5.jpg,stim/latef.jpg,CD,1,2,0,46,46,22,,,,,,,,,,,,,,,,,,4,0,0.766402956369,,,,,,PLC_L_D2S1,P8,60.0134916534,02,B,2015_Jan_22_1410,Y,
stim/posf.jpg,stim/negf.jpg,stim/2.jpg,stim/3.jpg,stim/latef.jpg,EF,2,4,0,47,47,55,,,,,,,,,,,,,,,,,,4,1,0.916337997459,,,,,,PLC_L_D2S1,P8,60.0134916534,02,B,2015_Jan_22_1410,Y,
stim/negf.jpg,stim/posf.jpg,stim/6.jpg,stim/5.jpg,stim/latef.jpg,CD,1,2,0,48,48,29,,,,,,,,,,,,,,,,,,2,1,0.916353819896,,,,,,PLC_L_D2S1,P8,60.0134916534,02,B,2015_Jan_22_1410,Y,
stim/posf.jpg,stim/negf.jpg,stim/5.jpg,stim/6.jpg,stim/latef.jpg,CD,2,4,0,49,49,34,,,,,,,,,,,,,,,,,,2,0,1.1163157871,,,,,,PLC_L_D2S1,P8,60.0134916534,02,B,2015_Jan_22_1410,Y,
stim/posf.jpg,stim/negf.jpg,stim/2.jpg,stim/3.jpg,stim/latef.jpg,EF,2,4,0,50,50,51,,,,,,,,,,,,,,,,,,4,1,0.949707081902,,,,,,PLC_L_D2S1,P8,60.0134916534,02,B,2015_Jan_22_1410,Y,
stim/posf.jpg,stim/negf.jpg,stim/5.jpg,stim/6.jpg,stim/latef.jpg,CD,2,4,0,51,51,36,,,,,,,,,,,,,,,,,,2,0,0.816461602544,,,,,,PLC_L_D2S1,P8,60.0134916534,02,B,2015_Jan_22_1410,Y,
stim/posf.jpg,stim/negf.jpg,stim/6.jpg,stim/5.jpg,stim/latef.jpg,CD,1,2,0,52,52,21,,,,,,,,,,,,,,,,,,4,0,0.883076295667,,,,,,PLC_L_D2S1,P8,60.0134916534,02,B,2015_Jan_22_1410,Y,
stim/negf.jpg,stim/posf.jpg,stim/3.jpg,stim/2.jpg,stim/latef.jpg,EF,1,2,0,53,53,47,,,,,,,,,,,,,,,,,,2,1,0.883103865385,,,,,,PLC_L_D2S1,P8,60.0134916534,02,B,2015_Jan_22_1410,Y,
stim/posf.jpg,stim/negf.jpg,stim/5.jpg,stim/6.jpg,stim/latef.jpg,CD,2,4,0,54,54,31,,,,,,,,,,,,,,,,,,2,0,0.983049417674,,,,,,PLC_L_D2S1,P8,60.0134916534,02,B,2015_Jan_22_1410,Y,
stim/posf.jpg,stim/negf.jpg,stim/1.jpg,stim/4.jpg,stim/latef.jpg,AB,2,4,0,55,55,11,,,,,,,,,,,,,,,,,,4,1,0.549810608943,,,,,,PLC_L_D2S1,P8,60.0134916534,02,B,2015_Jan_22_1410,Y,
stim/posf.jpg,stim/negf.jpg,stim/1.jpg,stim/4.jpg,stim/latef.jpg,AB,2,4,0,56,56,13,,,,,,,,,,,,,,,,,,2,0,0.88303415463,,,,,,PLC_L_D2S1,P8,60.0134916534,02,B,2015_Jan_22_1410,Y,
stim/posf.jpg,stim/negf.jpg,stim/1.jpg,stim/4.jpg,stim/latef.jpg,AB,2,4,0,57,57,15,,,,,,,,,,,,,,,,,,4,1,0.599858722867,,,,,,PLC_L_D2S1,P8,60.0134916534,02,B,2015_Jan_22_1410,Y,
stim/posf.jpg,stim/negf.jpg,stim/4.jpg,stim/1.jpg,stim/latef.jpg,AB,1,2,0,58,58,1,,,,,,,,,,,,,,,,,,2,1,0.766419103616,,,,,,PLC_L_D2S1,P8,60.0134916534,02,B,2015_Jan_22_1410,Y,
stim/negf.jpg,stim/posf.jpg,stim/4.jpg,stim/1.jpg,stim/latef.jpg,AB,1,2,0,59,59,9,,,,,,,,,,,,,,,,,,2,1,0.749753601852,,,,,,PLC_L_D2S1,P8,60.0134916534,02,B,2015_Jan_22_1410,Y,
,,,,,,,,,,,,,,,,,,,,,,,,,,,,,,,,0.99375,1.0,1,0,0,PLC_L_D2S1,P8,60.0134916534,02,B,2015_Jan_22_1410,Y,
stim/posf.jpg,stim/negf.jpg,stim/5.jpg,stim/6.jpg,stim/latef.jpg,CD,2,4,,,,,0,0,0,35,,,,,,,,,,,,,,2,0,0.832990118871,,,,,,PLC_L_D2S1,P8,60.0134916534,02,B,2015_Jan_22_1410,Y,
stim/posf.jpg,stim/negf.jpg,stim/4.jpg,stim/1.jpg,stim/latef.jpg,AB,1,2,,,,,0,1,1,7,,,,,,,,,,,,,,4,0,0.766422664491,,,,,,PLC_L_D2S1,P8,60.0134916534,02,B,2015_Jan_22_1410,Y,
stim/negf.jpg,stim/posf.jpg,stim/6.jpg,stim/5.jpg,stim/latef.jpg,CD,1,2,,,,,0,2,2,27,,,,,,,,,,,,,,2,1,1.1162044135,,,,,,PLC_L_D2S1,P8,60.0134916534,02,B,2015_Jan_22_1410,Y,
stim/negf.jpg,stim/posf.jpg,stim/5.jpg,stim/6.jpg,stim/latef.jpg,CD,2,4,,,,,0,3,3,37,,,,,,,,,,,,,,4,1,1.16626901753,,,,,,PLC_L_D2S1,P8,60.0134916534,02,B,2015_Jan_22_1410,Y,
stim/posf.jpg,stim/negf.jpg,stim/3.jpg,stim/2.jpg,stim/latef.jpg,EF,1,2,,,,,0,4,4,40,,,,,,,,,,,,,,4,0,0.88304587785,,,,,,PLC_L_D2S1,P8,60.0134916534,02,B,2015_Jan_22_1410,Y,
stim/posf.jpg,stim/negf.jpg,stim/3.jpg,stim/2.jpg,stim/latef.jpg,EF,1,2,,,,,0,5,5,45,,,,,,,,,,,,,,4,0,0.766404778911,,,,,,PLC_L_D2S1,P8,60.0134916534,02,B,2015_Jan_22_1410,Y,
stim/posf.jpg,stim/negf.jpg,stim/2.jpg,stim/3.jpg,stim/latef.jpg,EF,2,4,,,,,0,6,6,52,,,,,,,,,,,,,,2,0,0.583117471297,,,,,,PLC_L_D2S1,P8,60.0134916534,02,B,2015_Jan_22_1410,Y,
stim/posf.jpg,stim/negf.jpg,stim/3.jpg,stim/2.jpg,stim/latef.jpg,EF,1,2,,,,,0,7,7,44,,,,,,,,,,,,,,4,0,0.499804392448,,,,,,PLC_L_D2S1,P8,60.0134916534,02,B,2015_Jan_22_1410,Y,
stim/posf.jpg,stim/negf.jpg,stim/6.jpg,stim/5.jpg,stim/latef.jpg,CD,1,2,,,,,0,8,8,26,,,,,,,,,,,,,,4,0,1.01631664424,,,,,,PLC_L_D2S1,P8,60.0134916534,02,B,2015_Jan_22_1410,Y,
stim/posf.jpg,stim/negf.jpg,stim/1.jpg,stim/4.jpg,stim/latef.jpg,AB,2,4,,,,,0,9,9,16,,,,,,,,,,,,,,4,1,0.266569872407,,,,,,PLC_L_D2S1,P8,60.0134916534,02,B,2015_Jan_22_1410,Y,
stim/posf.jpg,stim/negf.jpg,stim/6.jpg,stim/5.jpg,stim/latef.jpg,CD,1,2,,,,,0,10,10,21,,,,,,,,,,,,,,2,1,0.849754377786,,,,,,PLC_L_D2S1,P8,60.0134916534,02,B,2015_Jan_22_1410,Y,
stim/posf.jpg,stim/negf.jpg,stim/1.jpg,stim/4.jpg,stim/latef.jpg,AB,2,4,,,,,0,11,11,17,,,,,,,,,,,,,,2,0,0.966345004925,,,,,,PLC_L_D2S1,P8,60.0134916534,02,B,2015_Jan_22_1410,Y,
stim/posf.jpg,stim/negf.jpg,stim/1.jpg,stim/4.jpg,stim/latef.jpg,AB,2,4,,,,,0,12,12,15,,,,,,,,,,,,,,4,1,0.783066452132,,,,,,PLC_L_D2S1,P8,60.0134916534,02,B,2015_Jan_22_1410,Y,
stim/posf.jpg,stim/negf.jpg,stim/5.jpg,stim/6.jpg,stim/latef.jpg,CD,2,4,,,,,0,13,13,32,,,,,,,,,,,,,,4,1,1.04966663108,,,,,,PLC_L_D2S1,P8,60.0134916534,02,B,2015_Jan_22_1410,Y,
stim/posf.jpg,stim/negf.jpg,stim/2.jpg,stim/3.jpg,stim/latef.jpg,EF,2,4,,,,,0,14,14,51,,,,,,,,,,,,,,2,0,1.19961122999,,,,,,PLC_L_D2S1,P8,60.0134916534,02,B,2015_Jan_22_1410,Y,
stim/negf.jpg,stim/posf.jpg,stim/4.jpg,stim/1.jpg,stim/latef.jpg,AB,1,2,,,,,0,15,15,8,,,,,,,,,,,,,,4,0,1.03293924106,,,,,,PLC_L_D2S1,P8,60.0134916534,02,B,2015_Jan_22_1410,Y,
stim/posf.jpg,stim/negf.jpg,stim/2.jpg,stim/3.jpg,stim/latef.jpg,EF,2,4,,,,,0,16,16,54,,,,,,,,,,,,,,2,0,1.0163226863,,,,,,PLC_L_D2S1,P8,60.0134916534,02,B,2015_Jan_22_1410,Y,
stim/negf.jpg,stim/posf.jpg,stim/1.jpg,stim/4.jpg,stim/latef.jpg,AB,2,4,,,,,0,17,17,18,,,,,,,,,,,,,,2,0,0.99966309727,,,,,,PLC_L_D2S1,P8,60.0134916534,02,B,2015_Jan_22_1410,Y,
stim/posf.jpg,stim/negf.jpg,stim/1.jpg,stim/4.jpg,stim/latef.jpg,AB,2,4,,,,,0,18,18,11,,,,,,,,,,,,,,2,0,0.949707692423,,,,,,PLC_L_D2S1,P8,60.0134916534,02,B,2015_Jan_22_1410,Y,
stim/negf.jpg,stim/posf.jpg,stim/3.jpg,stim/2.jpg,stim/latef.jpg,EF,1,2,,,,,0,19,19,48,,,,,,,,,,,,,,2,1,1.11628733919,,,,,,PLC_L_D2S1,P8,60.0134916534,02,B,2015_Jan_22_1410,Y,
stim/posf.jpg,stim/negf.jpg,stim/2.jpg,stim/3.jpg,stim/latef.jpg,EF,2,4,,,,,0,20,20,55,,,,,,,,,,,,,,4,1,1.01634689363,,,,,,PLC_L_D2S1,P8,60.0134916534,02,B,2015_Jan_22_1410,Y,
stim/negf.jpg,stim/posf.jpg,stim/2.jpg,stim/3.jpg,stim/latef.jpg,EF,2,4,,,,,0,21,21,58,,,,,,,,,,,,,,4,1,0.816381392621,,,,,,PLC_L_D2S1,P8,60.0134916534,02,B,2015_Jan_22_1410,Y,
stim/negf.jpg,stim/posf.jpg,stim/6.jpg,stim/5.jpg,stim/latef.jpg,CD,1,2,,,,,0,22,22,28,,,,,,,,,,,,,,2,1,1.04965739806,,,,,,PLC_L_D2S1,P8,60.0134916534,02,B,2015_Jan_22_1410,Y,
stim/posf.jpg,stim/negf.jpg,stim/5.jpg,stim/6.jpg,stim/latef.jpg,CD,2,4,,,,,0,23,23,31,,,,,,,,,,,,,,2,0,1.18289608048,,,,,,PLC_L_D2S1,P8,60.0134916534,02,B,2015_Jan_22_1410,Y,
stim/posf.jpg,stim/negf.jpg,stim/3.jpg,stim/2.jpg,stim/latef.jpg,EF,1,2,,,,,0,24,24,41,,,,,,,,,,,,,,2,1,0.983005069135,,,,,,PLC_L_D2S1,P8,60.0134916534,02,B,2015_Jan_22_1410,Y,
stim/negf.jpg,stim/posf.jpg,stim/3.jpg,stim/2.jpg,stim/latef.jpg,EF,1,2,,,,,0,25,25,49,,,,,,,,,,,,,,4,0,1.19958995496,,,,,,PLC_L_D2S1,P8,60.0134916534,02,B,2015_Jan_22_1410,Y,
stim/posf.jpg,stim/negf.jpg,stim/4.jpg,stim/1.jpg,stim/latef.jpg,AB,1,2,,,,,0,26,26,1,,,,,,,,,,,,,,4,0,1.28292729228,,,,,,PLC_L_D2S1,P8,60.0134916534,02,B,2015_Jan_22_1410,Y,
stim/posf.jpg,stim/negf.jpg,stim/1.jpg,stim/4.jpg,stim/latef.jpg,AB,2,4,,,,,0,27,27,10,,,,,,,,,,,,,,4,1,0.899697848888,,,,,,PLC_L_D2S1,P8,60.0134916534,02,B,2015_Jan_22_1410,Y,
stim/negf.jpg,stim/posf.jpg,stim/5.jpg,stim/6.jpg,stim/latef.jpg,CD,2,4,,,,,0,28,28,39,,,,,,,,,,,,,,2,0,0.816403236066,,,,,,PLC_L_D2S1,P8,60.0134916534,02,B,2015_Jan_22_1410,Y,
stim/posf.jpg,stim/negf.jpg,stim/4.jpg,stim/1.jpg,stim/latef.jpg,AB,1,2,,,,,0,29,29,2,,,,,,,,,,,,,,2,1,0.599808428508,,,,,,PLC_L_D2S1,P8,60.0134916534,02,B,2015_Jan_22_1410,Y,
stim/posf.jpg,stim/negf.jpg,stim/3.jpg,stim/2.jpg,stim/latef.jpg,EF,1,2,,,,,0,30,30,43,,,,,,,,,,,,,,4,0,0.499729418576,,,,,,PLC_L_D2S1,P8,60.0134916534,02,B,2015_Jan_22_1410,Y,
stim/posf.jpg,stim/negf.jpg,stim/5.jpg,stim/6.jpg,stim/latef.jpg,CD,2,4,,,,,0,31,31,34,,,,,,,,,,,,,,4,1,0.416541235028,,,,,,PLC_L_D2S1,P8,60.0134916534,02,B,2015_Jan_22_1410,Y,
stim/posf.jpg,stim/negf.jpg,stim/5.jpg,stim/6.jpg,stim/latef.jpg,CD,2,4,,,,,0,32,32,36,,,,,,,,,,,,,,2,0,0.433179479853,,,,,,PLC_L_D2S1,P8,60.0134916534,02,B,2015_Jan_22_1410,Y,
stim/negf.jpg,stim/posf.jpg,stim/6.jpg,stim/5.jpg,stim/latef.jpg,CD,1,2,,,,,0,33,33,29,,,,,,,,,,,,,,2,1,0.316552843964,,,,,,PLC_L_D2S1,P8,60.0134916534,02,B,2015_Jan_22_1410,Y,
stim/posf.jpg,stim/negf.jpg,stim/2.jpg,stim/3.jpg,stim/latef.jpg,EF,2,4,,,,,0,34,34,50,,,,,,,,,,,,,,2,0,0.649760852926,,,,,,PLC_L_D2S1,P8,60.0134916534,02,B,2015_Jan_22_1410,Y,
stim/posf.jpg,stim/negf.jpg,stim/3.jpg,stim/2.jpg,stim/latef.jpg,EF,1,2,,,,,0,35,35,42,,,,,,,,,,,,,,2,1,0.366451040218,,,,,,PLC_L_D2S1,P8,60.0134916534,02,B,2015_Jan_22_1410,Y,
stim/posf.jpg,stim/negf.jpg,stim/6.jpg,stim/5.jpg,stim/latef.jpg,CD,1,2,,,,,0,36,36,20,,,,,,,,,,,,,,4,0,0.66649492861,,,,,,PLC_L_D2S1,P8,60.0134916534,02,B,2015_Jan_22_1410,Y,
stim/negf.jpg,stim/posf.jpg,stim/5.jpg,stim/6.jpg,stim/latef.jpg,CD,2,4,,,,,0,37,37,38,,,,,,,,,,,,,,2,0,1.04966403561,,,,,,PLC_L_D2S1,P8,60.0134916534,02,B,2015_Jan_22_1410,Y,
stim/posf.jpg,stim/negf.jpg,stim/4.jpg,stim/1.jpg,stim/latef.jpg,AB,1,2,,,,,0,38,38,3,,,,,,,,,,,,,,4,0,0.8663983549,,,,,,PLC_L_D2S1,P8,60.0134916534,02,B,2015_Jan_22_1410,Y,
stim/negf.jpg,stim/posf.jpg,stim/2.jpg,stim/3.jpg,stim/latef.jpg,EF,2,4,,,,,0,39,39,56,,,,,,,,,,,,,,4,1,0.916338111743,,,,,,PLC_L_D2S1,P8,60.0134916534,02,B,2015_Jan_22_1410,Y,
stim/posf.jpg,stim/negf.jpg,stim/6.jpg,stim/5.jpg,stim/latef.jpg,CD,1,2,,,,,0,40,40,25,,,,,,,,,,,,,,2,1,0.866366956639,,,,,,PLC_L_D2S1,P8,60.0134916534,02,B,2015_Jan_22_1410,Y,
stim/posf.jpg,stim/negf.jpg,stim/5.jpg,stim/6.jpg,stim/latef.jpg,CD,2,4,,,,,0,41,41,30,,,,,,,,,,,,,,4,1,0.999667870167,,,,,,PLC_L_D2S1,P8,60.0134916534,02,B,2015_Jan_22_1410,Y,
stim/negf.jpg,stim/posf.jpg,stim/3.jpg,stim/2.jpg,stim/latef.jpg,EF,1,2,,,,,0,42,42,47,,,,,,,,,,,,,,4,0,1.06631793144,,,,,,PLC_L_D2S1,P8,60.0134916534,02,B,2015_Jan_22_1410,Y,
stim/negf.jpg,stim/posf.jpg,stim/2.jpg,stim/3.jpg,stim/latef.jpg,EF,2,4,,,,,0,43,43,57,,,,,,,,,,,,,,2,0,0.816398339862,,,,,,PLC_L_D2S1,P8,60.0134916534,02,B,2015_Jan_22_1410,Y,
stim/posf.jpg,stim/negf.jpg,stim/6.jpg,stim/5.jpg,stim/latef.jpg,CD,1,2,,,,,0,44,44,22,,,,,,,,,,,,,,4,0,1.31623539372,,,,,,PLC_L_D2S1,P8,60.0134916534,02,B,2015_Jan_22_1410,Y,
stim/posf.jpg,stim/negf.jpg,stim/1.jpg,stim/4.jpg,stim/latef.jpg,AB,2,4,,,,,0,45,45,13,,,,,,,,,,,,,,4,1,1.08297069947,,,,,,PLC_L_D2S1,P8,60.0134916534,02,B,2015_Jan_22_1410,Y,
stim/posf.jpg,stim/negf.jpg,stim/4.jpg,stim/1.jpg,stim/latef.jpg,AB,1,2,,,,,0,46,46,4,,,,,,,,,,,,,,2,1,0.783083053511,,,,,,PLC_L_D2S1,P8,60.0134916534,02,B,2015_Jan_22_1410,Y,
stim/posf.jpg,stim/negf.jpg,stim/4.jpg,stim/1.jpg,stim/latef.jpg,AB,1,2,,,,,0,47,47,6,,,,,,,,,,,,,,2,1,0.899646739498,,,,,,PLC_L_D2S1,P8,60.0134916534,02,B,2015_Jan_22_1410,Y,
stim/posf.jpg,stim/negf.jpg,stim/1.jpg,stim/4.jpg,stim/latef.jpg,AB,2,4,,,,,0,48,48,14,,,,,,,,,,,,,,4,1,0.83306220254,,,,,,PLC_L_D2S1,P8,60.0134916534,02,B,2015_Jan_22_1410,Y,
stim/negf.jpg,stim/posf.jpg,stim/4.jpg,stim/1.jpg,stim/latef.jpg,AB,1,2,,,,,0,49,49,9,,,,,,,,,,,,,,2,1,0.799733803505,,,,,,PLC_L_D2S1,P8,60.0134916534,02,B,2015_Jan_22_1410,Y,
stim/posf.jpg,stim/negf.jpg,stim/1.jpg,stim/4.jpg,stim/latef.jpg,AB,2,4,,,,,0,50,50,12,,,,,,,,,,,,,,2,0,0.849732534342,,,,,,PLC_L_D2S1,P8,60.0134916534,02,B,2015_Jan_22_1410,Y,
stim/posf.jpg,stim/negf.jpg,stim/4.jpg,stim/1.jpg,stim/latef.jpg,AB,1,2,,,,,0,51,51,0,,,,,,,,,,,,,,4,0,0.733052617649,,,,,,PLC_L_D2S1,P8,60.0134916534,02,B,2015_Jan_22_1410,Y,
stim/negf.jpg,stim/posf.jpg,stim/2.jpg,stim/3.jpg,stim/latef.jpg,EF,2,4,,,,,0,52,52,59,,,,,,,,,,,,,,2,0,0.983010037518,,,,,,PLC_L_D2S1,P8,60.0134916534,02,B,2015_Jan_22_1410,Y,
stim/negf.jpg,stim/posf.jpg,stim/3.jpg,stim/2.jpg,stim/latef.jpg,EF,1,2,,,,,0,53,53,46,,,,,,,,,,,,,,4,0,1.01634179292,,,,,,PLC_L_D2S1,P8,60.0134916534,02,B,2015_Jan_22_1410,Y,
stim/posf.jpg,stim/negf.jpg,stim/6.jpg,stim/5.jpg,stim/latef.jpg,CD,1,2,,,,,0,54,54,24,,,,,,,,,,,,,,2,1,1.19860503605,,,,,,PLC_L_D2S1,P8,60.0134916534,02,B,2015_Jan_22_1410,Y,
stim/posf.jpg,stim/negf.jpg,stim/5.jpg,stim/6.jpg,stim/latef.jpg,CD,2,4,,,,,0,55,55,33,,,,,,,,,,,,,,4,1,0.966346054541,,,,,,PLC_L_D2S1,P8,60.0134916534,02,B,2015_Jan_22_1410,Y,
stim/negf.jpg,stim/posf.jpg,stim/1.jpg,stim/4.jpg,stim/latef.jpg,AB,2,4,,,,,0,56,56,19,,,,,,,,,,,,,,2,0,0.733081453523,,,,,,PLC_L_D2S1,P8,60.0134916534,02,B,2015_Jan_22_1410,Y,
stim/posf.jpg,stim/negf.jpg,stim/4.jpg,stim/1.jpg,stim/latef.jpg,AB,1,2,,,,,0,57,57,5,,,,,,,,,,,,,,4,0,0.466508221743,,,,,,PLC_L_D2S1,P8,60.0134916534,02,B,2015_Jan_22_1410,Y,
stim/posf.jpg,stim/negf.jpg,stim/6.jpg,stim/5.jpg,stim/latef.jpg,CD,1,2,,,,,0,58,58,23,,,,,,,,,,,,,,4,0,0.799717120924,,,,,,PLC_L_D2S1,P8,60.0134916534,02,B,2015_Jan_22_1410,Y,
stim/posf.jpg,stim/negf.jpg,stim/2.jpg,stim/3.jpg,stim/latef.jpg,EF,2,4,,,,,0,59,59,53,,,,,,,,,,,,,,2,0,0.516469205495,,,,,,PLC_L_D2S1,P8,60.0134916534,02,B,2015_Jan_22_1410,Y,
,,,,,,,,,,,,,,,,,,,,,,,,,,,,,,,,0.9984375,0.78125,1,0,0,PLC_L_D2S1,P8,60.0134916534,02,B,2015_Jan_22_1410,Y,
stim/posf.jpg,stim/negf.jpg,stim/4.jpg,stim/1.jpg,stim/latef.jpg,AB,1,2,,,,,,,,,0,0,0,3,,,,,,,,,,2,1,0.683117296863,,,,,,PLC_L_D2S1,P8,60.0134916534,02,B,2015_Jan_22_1410,Y,
stim/negf.jpg,stim/posf.jpg,stim/2.jpg,stim/3.jpg,stim/latef.jpg,EF,2,4,,,,,,,,,0,1,1,56,,,,,,,,,,4,1,0.633098424824,,,,,,PLC_L_D2S1,P8,60.0134916534,02,B,2015_Jan_22_1410,Y,
stim/posf.jpg,stim/negf.jpg,stim/3.jpg,stim/2.jpg,stim/latef.jpg,EF,1,2,,,,,,,,,0,2,2,45,,,,,,,,,,4,0,0.433214246509,,,,,,PLC_L_D2S1,P8,60.0134916534,02,B,2015_Jan_22_1410,Y,
stim/posf.jpg,stim/negf.jpg,stim/4.jpg,stim/1.jpg,stim/latef.jpg,AB,1,2,,,,,,,,,0,3,3,7,,,,,,,,,,2,1,0.53320020451,,,,,,PLC_L_D2S1,P8,60.0134916534,02,B,2015_Jan_22_1410,Y,
stim/negf.jpg,stim/posf.jpg,stim/6.jpg,stim/5.jpg,stim/latef.jpg,CD,1,2,,,,,,,,,0,4,4,29,,,,,,,,,,4,0,0.716419076548,,,,,,PLC_L_D2S1,P8,60.0134916534,02,B,2015_Jan_22_1410,Y,
stim/negf.jpg,stim/posf.jpg,stim/1.jpg,stim/4.jpg,stim/latef.jpg,AB,2,4,,,,,,,,,0,5,5,19,,,,,,,,,,2,0,0.783092208329,,,,,,PLC_L_D2S1,P8,60.0134916534,02,B,2015_Jan_22_1410,Y,
stim/posf.jpg,stim/negf.jpg,stim/2.jpg,stim/3.jpg,stim/latef.jpg,EF,2,4,,,,,,,,,0,6,6,55,,,,,,,,,,2,0,0.949679043015,,,,,,PLC_L_D2S1,P8,60.0134916534,02,B,2015_Jan_22_1410,Y,
stim/posf.jpg,stim/negf.jpg,stim/2.jpg,stim/3.jpg,stim/latef.jpg,EF,2,4,,,,,,,,,0,7,7,54,,,,,,,,,,4,1,0.749752224419,,,,,,PLC_L_D2S1,P8,60.0134916534,02,B,2015_Jan_22_1410,Y,
stim/posf.jpg,stim/negf.jpg,stim/3.jpg,stim/2.jpg,stim/latef.jpg,EF,1,2,,,,,,,,,0,8,8,40,,,,,,,,,,2,1,1.11629623537,,,,,,PLC_L_D2S1,P8,60.0134916534,02,B,2015_Jan_22_1410,Y,
stim/posf.jpg,stim/negf.jpg,stim/1.jpg,stim/4.jpg,stim/latef.jpg,AB,2,4,,,,,,,,,0,9,9,15,,,,,,,,,,4,1,0.983059937895,,,,,,PLC_L_D2S1,P8,60.0134916534,02,B,2015_Jan_22_1410,Y,
stim/posf.jpg,stim/negf.jpg,stim/1.jpg,stim/4.jpg,stim/latef.jpg,AB,2,4,,,,,,,,,0,10,10,14,,,,,,,,,,4,1,0.733081002398,,,,,,PLC_L_D2S1,P8,60.0134916534,02,B,2015_Jan_22_1410,Y,
stim/posf.jpg,stim/negf.jpg,stim/6.jpg,stim/5.jpg,stim/latef.jpg,CD,1,2,,,,,,,,,0,11,11,23,,,,,,,,,,2,1,0.633112948023,,,,,,PLC_L_D2S1,P8,60.0134916534,02,B,2015_Jan_22_1410,Y,
stim/negf.jpg,stim/posf.jpg,stim/2.jpg,stim/3.jpg,stim/latef.jpg,EF,2,4,,,,,,,,,0,12,12,58,,,,,,,,,,4,1,0.699751268035,,,,,,PLC_L_D2S1,P8,60.0134916534,02,B,2015_Jan_22_1410,Y,
stim/posf.jpg,stim/negf.jpg,stim/1.jpg,stim/4.jpg,stim/latef.jpg,AB,2,4,,,,,,,,,0,13,13,10,,,,,,,,,,4,1,0.899662339381,,,,,,PLC_L_D2S1,P8,60.0134916534,02,B,2015_Jan_22_1410,Y,
stim/posf.jpg,stim/negf.jpg,stim/4.jpg,stim/1.jpg,stim/latef.jpg,AB,1,2,,,,,,,,,0,14,14,6,,,,,,,,,,2,1,0.466556729649,,,,,,PLC_L_D2S1,P8,60.0134916534,02,B,2015_Jan_22_1410,Y,
stim/posf.jpg,stim/negf.jpg,stim/3.jpg,stim/2.jpg,stim/latef.jpg,EF,1,2,,,,,,,,,0,15,15,43,,,,,,,,,,4,0,0.616422790806,,,,,,PLC_L_D2S1,P8,60.0134916534,02,B,2015_Jan_22_1410,Y,
stim/posf.jpg,stim/negf.jpg,stim/1.jpg,stim/4.jpg,stim/latef.jpg,AB,2,4,,,,,,,,,0,16,16,17,,,,,,,,,,4,1,0.633044650792,,,,,,PLC_L_D2S1,P8,60.0134916534,02,B,2015_Jan_22_1410,Y,
stim/negf.jpg,stim/posf.jpg,stim/6.jpg,stim/5.jpg,stim/latef.jpg,CD,1,2,,,,,,,,,0,17,17,28,,,,,,,,,,2,1,0.783072734791,,,,,,PLC_L_D2S1,P8,60.0134916534,02,B,2015_Jan_22_1410,Y,
stim/posf.jpg,stim/negf.jpg,stim/6.jpg,stim/5.jpg,stim/latef.jpg,CD,1,2,,,,,,,,,0,18,18,22,,,,,,,,,,4,0,0.683111699912,,,,,,PLC_L_D2S1,P8,60.0134916534,02,B,2015_Jan_22_1410,Y,
stim/posf.jpg,stim/negf.jpg,stim/2.jpg,stim/3.jpg,stim/latef.jpg,EF,2,4,,,,,,,,,0,19,19,51,,,,,,,,,,2,0,0.833085008383,,,,,,PLC_L_D2S1,P8,60.0134916534,02,B,2015_Jan_22_1410,Y,
stim/posf.jpg,stim/negf.jpg,stim/5.jpg,stim/6.jpg,stim/latef.jpg,CD,2,4,,,,,,,,,0,20,20,33,,,,,,,,,,4,1,0.566456089804,,,,,,PLC_L_D2S1,P8,60.0134916534,02,B,2015_Jan_22_1410,Y,
stim/negf.jpg,stim/posf.jpg,stim/1.jpg,stim/4.jpg,stim/latef.jpg,AB,2,4,,,,,,,,,0,21,21,18,,,,,,,,,,4,1,0.783100539094,,,,,,PLC_L_D2S1,P8,60.0134916534,02,B,2015_Jan_22_1410,Y,
stim/negf.jpg,stim/posf.jpg,stim/4.jpg,stim/1.jpg,stim/latef.jpg,AB,1,2,,,,,,,,,0,22,22,8,,,,,,,,,,2,1,1.01634910414,,,,,,PLC_L_D2S1,P8,60.0134916534,02,B,2015_Jan_22_1410,Y,
stim/posf.jpg,stim/negf.jpg,stim/5.jpg,stim/6.jpg,stim/latef.jpg,CD,2,4,,,,,,,,,0,23,23,32,,,,,,,,,,2,0,0.766374249818,,,,,,PLC_L_D2S1,P8,60.0134916534,02,B,2015_Jan_22_1410,Y,
stim/negf.jpg,stim/posf.jpg,stim/4.jpg,stim/1.jpg,stim/latef.jpg,AB,1,2,,,,,,,,,0,24,24,9,,,,,,,,,,4,0,0.766430980218,,,,,,PLC_L_D2S1,P8,60.0134916534,02,B,2015_Jan_22_1410,Y,
stim/posf.jpg,stim/negf.jpg,stim/4.jpg,stim/1.jpg,stim/latef.jpg,AB,1,2,,,,,,,,,0,25,25,0,,,,,,,,,,4,0,0.56649260983,,,,,,PLC_L_D2S1,P8,60.0134916534,02,B,2015_Jan_22_1410,Y,
stim/negf.jpg,stim/posf.jpg,stim/5.jpg,stim/6.jpg,stim/latef.jpg,CD,2,4,,,,,,,,,0,26,26,39,,,,,,,,,,2,0,0.766423148698,,,,,,PLC_L_D2S1,P8,60.0134916534,02,B,2015_Jan_22_1410,Y,
stim/negf.jpg,stim/posf.jpg,stim/6.jpg,stim/5.jpg,stim/latef.jpg,CD,1,2,,,,,,,,,0,27,27,27,,,,,,,,,,4,0,0.39986966113,,,,,,PLC_L_D2S1,P8,60.0134916534,02,B,2015_Jan_22_1410,Y,
stim/posf.jpg,stim/negf.jpg,stim/6.jpg,stim/5.jpg,stim/latef.jpg,CD,1,2,,,,,,,,,0,28,28,21,,,,,,,,,,4,0,0.88303052759,,,,,,PLC_L_D2S1,P8,60.0134916534,02,B,2015_Jan_22_1410,Y,
stim/posf.jpg,stim/negf.jpg,stim/1.jpg,stim/4.jpg,stim/latef.jpg,AB,2,4,,,,,,,,,0,29,29,11,,,,,,,,,,2,0,0.833023838918,,,,,,PLC_L_D2S1,P8,60.0134916534,02,B,2015_Jan_22_1410,Y,
stim/negf.jpg,stim/posf.jpg,stim/3.jpg,stim/2.jpg,stim/latef.jpg,EF,1,2,,,,,,,,,0,30,30,48,,,,,,,,,,2,1,0.916339871129,,,,,,PLC_L_D2S1,P8,60.0134916534,02,B,2015_Jan_22_1410,Y,
stim/negf.jpg,stim/posf.jpg,stim/2.jpg,stim/3.jpg,stim/latef.jpg,EF,2,4,,,,,,,,,0,31,31,59,,,,,,,,,,2,0,1.29963324787,,,,,,PLC_L_D2S1,P8,60.0134916534,02,B,2015_Jan_22_1410,Y,
stim/posf.jpg,stim/negf.jpg,stim/2.jpg,stim/3.jpg,stim/latef.jpg,EF,2,4,,,,,,,,,0,32,32,50,,,,,,,,,,4,1,0.849728206555,,,,,,PLC_L_D2S1,P8,60.0134916534,02,B,2015_Jan_22_1410,Y,
stim/negf.jpg,stim/posf.jpg,stim/5.jpg,stim/6.jpg,stim/latef.jpg,CD,2,4,,,,,,,,,0,33,33,38,,,,,,,,,,2,0,0.766402836069,,,,,,PLC_L_D2S1,P8,60.0134916534,02,B,2015_Jan_22_1410,Y,
stim/posf.jpg,stim/negf.jpg,stim/6.jpg,stim/5.jpg,stim/latef.jpg,CD,1,2,,,,,,,,,0,34,34,20,,,,,,,,,,4,0,0.533160499545,,,,,,PLC_L_D2S1,P8,60.0134916534,02,B,2015_Jan_22_1410,Y,
stim/posf.jpg,stim/negf.jpg,stim/4.jpg,stim/1.jpg,stim/latef.jpg,AB,1,2,,,,,,,,,0,35,35,1,,,,,,,,,,2,1,0.899703827791,,,,,,PLC_L_D2S1,P8,60.0134916534,02,B,2015_Jan_22_1410,Y,
stim/posf.jpg,stim/negf.jpg,stim/5.jpg,stim/6.jpg,stim/latef.jpg,CD,2,4,,,,,,,,,0,36,36,30,,,,,,,,,,2,0,0.766428724596,,,,,,PLC_L_D2S1,P8,60.0134916534,02,B,2015_Jan_22_1410,Y,
stim/posf.jpg,stim/negf.jpg,stim/6.jpg,stim/5.jpg,stim/latef.jpg,CD,1,2,,,,,,,,,0,37,37,24,,,,,,,,,,2,1,0.733021902091,,,,,,PLC_L_D2S1,P8,60.0134916534,02,B,2015_Jan_22_1410,Y,
stim/posf.jpg,stim/negf.jpg,stim/1.jpg,stim/4.jpg,stim/latef.jpg,AB,2,4,,,,,,,,,0,38,38,13,,,,,,,,,,2,0,0.749814208916,,,,,,PLC_L_D2S1,P8,60.0134916534,02,B,2015_Jan_22_1410,Y,
stim/posf.jpg,stim/negf.jpg,stim/5.jpg,stim/6.jpg,stim/latef.jpg,CD,2,4,,,,,,,,,0,39,39,35,,,,,,,,,,4,1,0.516578091894,,,,,,PLC_L_D2S1,P8,60.0134916534,02,B,2015_Jan_22_1410,Y,
stim/posf.jpg,stim/negf.jpg,stim/4.jpg,stim/1.jpg,stim/latef.jpg,AB,1,2,,,,,,,,,0,40,40,2,,,,,,,,,,2,1,0.799735725295,,,,,,PLC_L_D2S1,P8,60.0134916534,02,B,2015_Jan_22_1410,Y,
stim/posf.jpg,stim/negf.jpg,stim/1.jpg,stim/4.jpg,stim/latef.jpg,AB,2,4,,,,,,,,,0,41,41,12,,,,,,,,,,2,0,0.599872749829,,,,,,PLC_L_D2S1,P8,60.0134916534,02,B,2015_Jan_22_1410,Y,
stim/posf.jpg,stim/negf.jpg,stim/4.jpg,stim/1.jpg,stim/latef.jpg,AB,1,2,,,,,,,,,0,42,42,4,,,,,,,,,,4,0,0.433200282705,,,,,,PLC_L_D2S1,P8,60.0134916534,02,B,2015_Jan_22_1410,Y,
stim/posf.jpg,stim/negf.jpg,stim/3.jpg,stim/2.jpg,stim/latef.jpg,EF,1,2,,,,,,,,,0,43,43,44,,,,,,,,,,2,1,0.599736077172,,,,,,PLC_L_D2S1,P8,60.0134916534,02,B,2015_Jan_22_1410,Y,
stim/posf.jpg,stim/negf.jpg,stim/2.jpg,stim/3.jpg,stim/latef.jpg,EF,2,4,,,,,,,,,0,44,44,52,,,,,,,,,,2,0,0.783059234141,,,,,,PLC_L_D2S1,P8,60.0134916534,02,B,2015_Jan_22_1410,Y,
stim/posf.jpg,stim/negf.jpg,stim/5.jpg,stim/6.jpg,stim/latef.jpg,CD,2,4,,,,,,,,,0,45,45,31,,,,,,,,,,4,1,0.766492041413,,,,,,PLC_L_D2S1,P8,60.0134916534,02,B,2015_Jan_22_1410,Y,
stim/negf.jpg,stim/posf.jpg,stim/3.jpg,stim/2.jpg,stim/latef.jpg,EF,1,2,,,,,,,,,0,46,46,46,,,,,,,,,,4,0,0.699791544424,,,,,,PLC_L_D2S1,P8,60.0134916534,02,B,2015_Jan_22_1410,Y,
stim/posf.jpg,stim/negf.jpg,stim/5.jpg,stim/6.jpg,stim/latef.jpg,CD,2,4,,,,,,,,,0,47,47,34,,,,,,,,,,4,1,0.833064954399,,,,,,PLC_L_D2S1,P8,60.0134916534,02,B,2015_Jan_22_1410,Y,
stim/posf.jpg,stim/negf.jpg,stim/2.jpg,stim/3.jpg,stim/latef.jpg,EF,2,4,,,,,,,,,0,48,48,53,,,,,,,,,,2,0,0.583141471117,,,,,,PLC_L_D2S1,P8,60.0134916534,02,B,2015_Jan_22_1410,Y,
stim/posf.jpg,stim/negf.jpg,stim/4.jpg,stim/1.jpg,stim/latef.jpg,AB,1,2,,,,,,,,,0,49,49,5,,,,,,,,,,2,1,0.633122984038,,,,,,PLC_L_D2S1,P8,60.0134916534,02,B,2015_Jan_22_1410,Y,
stim/negf.jpg,stim/posf.jpg,stim/5.jpg,stim/6.jpg,stim/latef.jpg,CD,2,4,,,,,,,,,0,50,50,37,,,,,,,,,,4,1,0.633105754092,,,,,,PLC_L_D2S1,P8,60.0134916534,02,B,2015_Jan_22_1410,Y,
stim/posf.jpg,stim/negf.jpg,stim/6.jpg,stim/5.jpg,stim/latef.jpg,CD,1,2,,,,,,,,,0,51,51,25,,,,,,,,,,2,1,0.833055294321,,,,,,PLC_L_D2S1,P8,60.0134916534,02,B,2015_Jan_22_1410,Y,
stim/negf.jpg,stim/posf.jpg,stim/3.jpg,stim/2.jpg,stim/latef.jpg,EF,1,2,,,,,,,,,0,52,52,47,,,,,,,,,,4,0,0.8163824272,,,,,,PLC_L_D2S1,P8,60.0134916534,02,B,2015_Jan_22_1410,Y,
stim/negf.jpg,stim/posf.jpg,stim/2.jpg,stim/3.jpg,stim/latef.jpg,EF,2,4,,,,,,,,,0,53,53,57,,,,,,,,,,4,1,0.933018921662,,,,,,PLC_L_D2S1,P8,60.0134916534,02,B,2015_Jan_22_1410,Y,
stim/posf.jpg,stim/negf.jpg,stim/3.jpg,stim/2.jpg,stim/latef.jpg,EF,1,2,,,,,,,,,0,54,54,41,,,,,,,,,,4,0,0.783064461169,,,,,,PLC_L_D2S1,P8,60.0134916534,02,B,2015_Jan_22_1410,Y,
stim/posf.jpg,stim/negf.jpg,stim/1.jpg,stim/4.jpg,stim/latef.jpg,AB,2,4,,,,,,,,,0,55,55,16,,,,,,,,,,2,0,0.449804807482,,,,,,PLC_L_D2S1,P8,60.0134916534,02,B,2015_Jan_22_1410,Y,
stim/posf.jpg,stim/negf.jpg,stim/5.jpg,stim/6.jpg,stim/latef.jpg,CD,2,4,,,,,,,,,0,56,56,36,,,,,,,,,,2,0,0.833067616033,,,,,,PLC_L_D2S1,P8,60.0134916534,02,B,2015_Jan_22_1410,Y,
stim/negf.jpg,stim/posf.jpg,stim/3.jpg,stim/2.jpg,stim/latef.jpg,EF,1,2,,,,,,,,,0,57,57,49,,,,,,,,,,2,1,1.21630336313,,,,,,PLC_L_D2S1,P8,60.0134916534,02,B,2015_Jan_22_1410,Y,
stim/posf.jpg,stim/negf.jpg,stim/3.jpg,stim/2.jpg,stim/latef.jpg,EF,1,2,,,,,,,,,0,58,58,42,,,,,,,,,,2,1,0.833084855001,,,,,,PLC_L_D2S1,P8,60.0134916534,02,B,2015_Jan_22_1410,Y,
stim/posf.jpg,stim/negf.jpg,stim/6.jpg,stim/5.jpg,stim/latef.jpg,CD,1,2,,,,,,,,,0,59,59,26,,,,,,,,,,4,0,0.833027986256,,,,,,PLC_L_D2S1,P8,60.0134916534,02,B,2015_Jan_22_1410,Y,
,,,,,,,,,,,,,,,,,,,,,,,,,,,,,,,,0.9984375,0.78125,1,0,0,PLC_L_D2S1,P8,60.0134916534,02,B,2015_Jan_22_1410,Y,
stim/posf.jpg,stim/negf.jpg,stim/1.jpg,stim/4.jpg,stim/latef.jpg,AB,2,4,,,,,,,,,,,,,0,0,0,15,,,,,,4,1,0.733087242953,,,,,,PLC_L_D2S1,P8,60.0134916534,02,B,2015_Jan_22_1410,Y,
stim/posf.jpg,stim/negf.jpg,stim/4.jpg,stim/1.jpg,stim/latef.jpg,AB,1,2,,,,,,,,,,,,,0,1,1,2,,,,,,2,1,0.56646854986,,,,,,PLC_L_D2S1,P8,60.0134916534,02,B,2015_Jan_22_1410,Y,
stim/negf.jpg,stim/posf.jpg,stim/2.jpg,stim/3.jpg,stim/latef.jpg,EF,2,4,,,,,,,,,,,,,0,2,2,59,,,,,,2,0,0.766445136503,,,,,,PLC_L_D2S1,P8,60.0134916534,02,B,2015_Jan_22_1410,Y,
stim/posf.jpg,stim/negf.jpg,stim/4.jpg,stim/1.jpg,stim/latef.jpg,AB,1,2,,,,,,,,,,,,,0,3,3,6,,,,,,4,0,1.03298488282,,,,,,PLC_L_D2S1,P8,60.0134916534,02,B,2015_Jan_22_1410,Y,
stim/posf.jpg,stim/negf.jpg,stim/1.jpg,stim/4.jpg,stim/latef.jpg,AB,2,4,,,,,,,,,,,,,0,4,4,14,,,,,,4,1,0.733070355862,,,,,,PLC_L_D2S1,P8,60.0134916534,02,B,2015_Jan_22_1410,Y,
stim/posf.jpg,stim/negf.jpg,stim/3.jpg,stim/2.jpg,stim/latef.jpg,EF,1,2,,,,,,,,,,,,,0,5,5,42,,,,,,2,1,0.616510059323,,,,,,PLC_L_D2S1,P8,60.0134916534,02,B,2015_Jan_22_1410,Y,
stim/posf.jpg,stim/negf.jpg,stim/5.jpg,stim/6.jpg,stim/latef.jpg,CD,2,4,,,,,,,,,,,,,0,6,6,36,,,,,,4,1,0.766405166878,,,,,,PLC_L_D2S1,P8,60.0134916534,02,B,2015_Jan_22_1410,Y,
stim/negf.jpg,stim/posf.jpg,stim/5.jpg,stim/6.jpg,stim/latef.jpg,CD,2,4,,,,,,,,,,,,,0,7,7,39,,,,,,4,1,0.64979526169,,,,,,PLC_L_D2S1,P8,60.0134916534,02,B,2015_Jan_22_1410,Y,
stim/posf.jpg,stim/negf.jpg,stim/4.jpg,stim/1.jpg,stim/latef.jpg,AB,1,2,,,,,,,,,,,,,0,8,8,1,,,,,,2,1,0.749740636537,,,,,,PLC_L_D2S1,P8,60.0134916534,02,B,2015_Jan_22_1410,Y,
stim/posf.jpg,stim/negf.jpg,stim/6.jpg,stim/5.jpg,stim/latef.jpg,CD,1,2,,,,,,,,,,,,,0,9,9,20,,,,,,4,0,1.0996484658,,,,,,PLC_L_D2S1,P8,60.0134916534,02,B,2015_Jan_22_1410,Y,
stim/posf.jpg,stim/negf.jpg,stim/1.jpg,stim/4.jpg,stim/latef.jpg,AB,2,4,,,,,,,,,,,,,0,10,10,10,,,,,,4,1,1.03301756528,,,,,,PLC_L_D2S1,P8,60.0134916534,02,B,2015_Jan_22_1410,Y,
stim/negf.jpg,stim/posf.jpg,stim/3.jpg,stim/2.jpg,stim/latef.jpg,EF,1,2,,,,,,,,,,,,,0,11,11,46,,,,,,2,1,0.816374562597,,,,,,PLC_L_D2S1,P8,60.0134916534,02,B,2015_Jan_22_1410,Y,
stim/negf.jpg,stim/posf.jpg,stim/6.jpg,stim/5.jpg,stim/latef.jpg,CD,1,2,,,,,,,,,,,,,0,12,12,28,,,,,,2,1,1.13299240758,,,,,,PLC_L_D2S1,P8,60.0134916534,02,B,2015_Jan_22_1410,Y,
stim/negf.jpg,stim/posf.jpg,stim/3.jpg,stim/2.jpg,stim/latef.jpg,EF,1,2,,,,,,,,,,,,,0,13,13,48,,,,,,2,1,0.849729728348,,,,,,PLC_L_D2S1,P8,60.0134916534,02,B,2015_Jan_22_1410,Y,
stim/negf.jpg,stim/posf.jpg,stim/5.jpg,stim/6.jpg,stim/latef.jpg,CD,2,4,,,,,,,,,,,,,0,14,14,37,,,,,,4,1,0.783073212983,,,,,,PLC_L_D2S1,P8,60.0134916534,02,B,2015_Jan_22_1410,Y,
stim/posf.jpg,stim/negf.jpg,stim/6.jpg,stim/5.jpg,stim/latef.jpg,CD,1,2,,,,,,,,,,,,,0,15,15,22,,,,,,2,1,0.749782191111,,,,,,PLC_L_D2S1,P8,60.0134916534,02,B,2015_Jan_22_1410,Y,
stim/negf.jpg,stim/posf.jpg,stim/5.jpg,stim/6.jpg,stim/latef.jpg,CD,2,4,,,,,,,,,,,,,0,16,16,38,,,,,,2,0,0.966322893813,,,,,,PLC_L_D2S1,P8,60.0134916534,02,B,2015_Jan_22_1410,Y,
stim/posf.jpg,stim/negf.jpg,stim/6.jpg,stim/5.jpg,stim/latef.jpg,CD,1,2,,,,,,,,,,,,,0,17,17,25,,,,,,4,0,0.766311320967,,,,,,PLC_L_D2S1,P8,60.0134916534,02,B,2015_Jan_22_1410,Y,
stim/negf.jpg,stim/posf.jpg,stim/4.jpg,stim/1.jpg,stim/latef.jpg,AB,1,2,,,,,,,,,,,,,0,18,18,9,,,,,,2,1,1.09966313336,,,,,,PLC_L_D2S1,P8,60.0134916534,02,B,2015_Jan_22_1410,Y,
stim/posf.jpg,stim/negf.jpg,stim/1.jpg,stim/4.jpg,stim/latef.jpg,AB,2,4,,,,,,,,,,,,,0,19,19,16,,,,,,2,0,0.883034223803,,,,,,PLC_L_D2S1,P8,60.0134916534,02,B,2015_Jan_22_1410,Y,
stim/posf.jpg,stim/negf.jpg,stim/4.jpg,stim/1.jpg,stim/latef.jpg,AB,1,2,,,,,,,,,,,,,0,20,20,5,,,,,,2,1,0.816414429967,,,,,,PLC_L_D2S1,P8,60.0134916534,02,B,2015_Jan_22_1410,Y,
stim/negf.jpg,stim/posf.jpg,stim/4.jpg,stim/1.jpg,stim/latef.jpg,AB,1,2,,,,,,,,,,,,,0,21,21,8,,,,,,4,0,1.08295086202,,,,,,PLC_L_D2S1,P8,60.0134916534,02,B,2015_Jan_22_1410,Y,
stim/posf.jpg,stim/negf.jpg,stim/6.jpg,stim/5.jpg,stim/latef.jpg,CD,1,2,,,,,,,,,,,,,0,22,22,24,,,,,,4,0,0.799743656063,,,,,,PLC_L_D2S1,P8,60.0134916534,02,B,2015_Jan_22_1410,Y,
stim/posf.jpg,stim/negf.jpg,stim/4.jpg,stim/1.jpg,stim/latef.jpg,AB,1,2,,,,,,,,,,,,,0,23,23,4,,,,,,2,1,0.999711123977,,,,,,PLC_L_D2S1,P8,60.0134916534,02,B,2015_Jan_22_1410,Y,
stim/negf.jpg,stim/posf.jpg,stim/3.jpg,stim/2.jpg,stim/latef.jpg,EF,1,2,,,,,,,,,,,,,0,24,24,47,,,,,,2,1,0.966283128698,,,,,,PLC_L_D2S1,P8,60.0134916534,02,B,2015_Jan_22_1410,Y,
stim/posf.jpg,stim/negf.jpg,stim/5.jpg,stim/6.jpg,stim/latef.jpg,CD,2,4,,,,,,,,,,,,,0,25,25,35,,,,,,4,1,1.04966761453,,,,,,PLC_L_D2S1,P8,60.0134916534,02,B,2015_Jan_22_1410,Y,
stim/posf.jpg,stim/negf.jpg,stim/4.jpg,stim/1.jpg,stim/latef.jpg,AB,1,2,,,,,,,,,,,,,0,26,26,0,,,,,,4,0,1.04963328095,,,,,,PLC_L_D2S1,P8,60.0134916534,02,B,2015_Jan_22_1410,Y,
stim/posf.jpg,stim/negf.jpg,stim/3.jpg,stim/2.jpg,stim/latef.jpg,EF,1,2,,,,,,,,,,,,,0,27,27,41,,,,,,4,0,1.28286898294,,,,,,PLC_L_D2S1,P8,60.0134916534,02,B,2015_Jan_22_1410,Y,
stim/negf.jpg,stim/posf.jpg,stim/6.jpg,stim/5.jpg,stim/latef.jpg,CD,1,2,,,,,,,,,,,,,0,28,28,29,,,,,,4,0,0.649780672326,,,,,,PLC_L_D2S1,P8,60.0134916534,02,B,2015_Jan_22_1410,Y,
stim/posf.jpg,stim/negf.jpg,stim/6.jpg,stim/5.jpg,stim/latef.jpg,CD,1,2,,,,,,,,,,,,,0,29,29,23,,,,,,2,1,0.866350045488,,,,,,PLC_L_D2S1,P8,60.0134916534,02,B,2015_Jan_22_1410,Y,
stim/negf.jpg,stim/posf.jpg,stim/2.jpg,stim/3.jpg,stim/latef.jpg,EF,2,4,,,,,,,,,,,,,0,30,30,57,,,,,,2,0,0.899698345125,,,,,,PLC_L_D2S1,P8,60.0134916534,02,B,2015_Jan_22_1410,Y,
stim/posf.jpg,stim/negf.jpg,stim/2.jpg,stim/3.jpg,stim/latef.jpg,EF,2,4,,,,,,,,,,,,,0,31,31,52,,,,,,4,1,0.899674934775,,,,,,PLC_L_D2S1,P8,60.0134916534,02,B,2015_Jan_22_1410,Y,
stim/posf.jpg,stim/negf.jpg,stim/4.jpg,stim/1.jpg,stim/latef.jpg,AB,1,2,,,,,,,,,,,,,0,32,32,3,,,,,,2,1,0.666441834272,,,,,,PLC_L_D2S1,P8,60.0134916534,02,B,2015_Jan_22_1410,Y,
stim/posf.jpg,stim/negf.jpg,stim/3.jpg,stim/2.jpg,stim/latef.jpg,EF,1,2,,,,,,,,,,,,,0,33,33,45,,,,,,2,1,0.866385924918,,,,,,PLC_L_D2S1,P8,60.0134916534,02,B,2015_Jan_22_1410,Y,
stim/posf.jpg,stim/negf.jpg,stim/2.jpg,stim/3.jpg,stim/latef.jpg,EF,2,4,,,,,,,,,,,,,0,34,34,55,,,,,,4,1,0.799730633604,,,,,,PLC_L_D2S1,P8,60.0134916534,02,B,2015_Jan_22_1410,Y,
stim/posf.jpg,stim/negf.jpg,stim/2.jpg,stim/3.jpg,stim/latef.jpg,EF,2,4,,,,,,,,,,,,,0,35,35,53,,,,,,4,1,0.683098653394,,,,,,PLC_L_D2S1,P8,60.0134916534,02,B,2015_Jan_22_1410,Y,
stim/posf.jpg,stim/negf.jpg,stim/3.jpg,stim/2.jpg,stim/latef.jpg,EF,1,2,,,,,,,,,,,,,0,36,36,43,,,,,,2,1,0.866426249427,,,,,,PLC_L_D2S1,P8,60.0134916534,02,B,2015_Jan_22_1410,Y,
stim/posf.jpg,stim/negf.jpg,stim/3.jpg,stim/2.jpg,stim/latef.jpg,EF,1,2,,,,,,,,,,,,,0,37,37,44,,,,,,2,1,0.683097663927,,,,,,PLC_L_D2S1,P8,60.0134916534,02,B,2015_Jan_22_1410,Y,
stim/posf.jpg,stim/negf.jpg,stim/1.jpg,stim/4.jpg,stim/latef.jpg,AB,2,4,,,,,,,,,,,,,0,38,38,13,,,,,,4,1,0.799692922609,,,,,,PLC_L_D2S1,P8,60.0134916534,02,B,2015_Jan_22_1410,Y,
stim/negf.jpg,stim/posf.jpg,stim/1.jpg,stim/4.jpg,stim/latef.jpg,AB,2,4,,,,,,,,,,,,,0,39,39,18,,,,,,2,0,0.949690101578,,,,,,PLC_L_D2S1,P8,60.0134916534,02,B,2015_Jan_22_1410,Y,
stim/posf.jpg,stim/negf.jpg,stim/5.jpg,stim/6.jpg,stim/latef.jpg,CD,2,4,,,,,,,,,,,,,0,40,40,32,,,,,,2,0,1.04969977068,,,,,,PLC_L_D2S1,P8,60.0134916534,02,B,2015_Jan_22_1410,Y,
stim/posf.jpg,stim/negf.jpg,stim/5.jpg,stim/6.jpg,stim/latef.jpg,CD,2,4,,,,,,,,,,,,,0,41,41,33,,,,,,2,0,0.816452243216,,,,,,PLC_L_D2S1,P8,60.0134916534,02,B,2015_Jan_22_1410,Y,
stim/negf.jpg,stim/posf.jpg,stim/2.jpg,stim/3.jpg,stim/latef.jpg,EF,2,4,,,,,,,,,,,,,0,42,42,56,,,,,,4,1,0.882950994353,,,,,,PLC_L_D2S1,P8,60.0134916534,02,B,2015_Jan_22_1410,Y,
stim/posf.jpg,stim/negf.jpg,stim/5.jpg,stim/6.jpg,stim/latef.jpg,CD,2,4,,,,,,,,,,,,,0,43,43,34,,,,,,4,1,0.966351534199,,,,,,PLC_L_D2S1,P8,60.0134916534,02,B,2015_Jan_22_1410,Y,
stim/posf.jpg,stim/negf.jpg,stim/1.jpg,stim/4.jpg,stim/latef.jpg,AB,2,4,,,,,,,,,,,,,0,44,44,12,,,,,,4,1,1.11631934797,,,,,,PLC_L_D2S1,P8,60.0134916534,02,B,2015_Jan_22_1410,Y,
stim/posf.jpg,stim/negf.jpg,stim/2.jpg,stim/3.jpg,stim/latef.jpg,EF,2,4,,,,,,,,,,,,,0,45,45,50,,,,,,4,1,0.749644904925,,,,,,PLC_L_D2S1,P8,60.0134916534,02,B,2015_Jan_22_1410,Y,
stim/posf.jpg,stim/negf.jpg,stim/2.jpg,stim/3.jpg,stim/latef.jpg,EF,2,4,,,,,,,,,,,,,0,46,46,51,,,,,,4,1,0.633131254652,,,,,,PLC_L_D2S1,P8,60.0134916534,02,B,2015_Jan_22_1410,Y,
stim/posf.jpg,stim/negf.jpg,stim/5.jpg,stim/6.jpg,stim/latef.jpg,CD,2,4,,,,,,,,,,,,,0,47,47,30,,,,,,4,1,0.983013054037,,,,,,PLC_L_D2S1,P8,60.0134916534,02,B,2015_Jan_22_1410,Y,
stim/posf.jpg,stim/negf.jpg,stim/6.jpg,stim/5.jpg,stim/latef.jpg,CD,1,2,,,,,,,,,,,,,0,48,48,21,,,,,,2,1,0.799722131412,,,,,,PLC_L_D2S1,P8,60.0134916534,02,B,2015_Jan_22_1410,Y,
stim/negf.jpg,stim/posf.jpg,stim/3.jpg,stim/2.jpg,stim/latef.jpg,EF,1,2,,,,,,,,,,,,,0,49,49,49,,,,,,2,1,0.849733728318,,,,,,PLC_L_D2S1,P8,60.0134916534,02,B,2015_Jan_22_1410,Y,
stim/negf.jpg,stim/posf.jpg,stim/6.jpg,stim/5.jpg,stim/latef.jpg,CD,1,2,,,,,,,,,,,,,0,50,50,27,,,,,,2,1,1.0329869219,,,,,,PLC_L_D2S1,P8,60.0134916534,02,B,2015_Jan_22_1410,Y,
stim/posf.jpg,stim/negf.jpg,stim/2.jpg,stim/3.jpg,stim/latef.jpg,EF,2,4,,,,,,,,,,,,,0,51,51,54,,,,,,4,1,0.833067179946,,,,,,PLC_L_D2S1,P8,60.0134916534,02,B,2015_Jan_22_1410,Y,
stim/negf.jpg,stim/posf.jpg,stim/2.jpg,stim/3.jpg,stim/latef.jpg,EF,2,4,,,,,,,,,,,,,0,52,52,58,,,,,,4,1,0.816339407974,,,,,,PLC_L_D2S1,P8,60.0134916534,02,B,2015_Jan_22_1410,Y,
stim/posf.jpg,stim/negf.jpg,stim/4.jpg,stim/1.jpg,stim/latef.jpg,AB,1,2,,,,,,,,,,,,,0,53,53,7,,,,,,2,1,0.716431629837,,,,,,PLC_L_D2S1,P8,60.0134916534,02,B,2015_Jan_22_1410,Y,
stim/posf.jpg,stim/negf.jpg,stim/1.jpg,stim/4.jpg,stim/latef.jpg,AB,2,4,,,,,,,,,,,,,0,54,54,11,,,,,,4,1,0.766432784716,,,,,,PLC_L_D2S1,P8,60.0134916534,02,B,2015_Jan_22_1410,Y,
stim/posf.jpg,stim/negf.jpg,stim/5.jpg,stim/6.jpg,stim/latef.jpg,CD,2,4,,,,,,,,,,,,,0,55,55,31,,,,,,2,0,0.716422475019,,,,,,PLC_L_D2S1,P8,60.0134916534,02,B,2015_Jan_22_1410,Y,
stim/posf.jpg,stim/negf.jpg,stim/3.jpg,stim/2.jpg,stim/latef.jpg,EF,1,2,,,,,,,,,,,,,0,56,56,40,,,,,,2,1,0.749744059067,,,,,,PLC_L_D2S1,P8,60.0134916534,02,B,2015_Jan_22_1410,Y,
stim/negf.jpg,stim/posf.jpg,stim/1.jpg,stim/4.jpg,stim/latef.jpg,AB,2,4,,,,,,,,,,,,,0,57,57,19,,,,,,4,1,0.66643781325,,,,,,PLC_L_D2S1,P8,60.0134916534,02,B,2015_Jan_22_1410,Y,
stim/posf.jpg,stim/negf.jpg,stim/1.jpg,stim/4.jpg,stim/latef.jpg,AB,2,4,,,,,,,,,,,,,0,58,58,17,,,,,,2,0,0.966359579251,,,,,,PLC_L_D2S1,P8,60.0134916534,02,B,2015_Jan_22_1410,Y,
stim/posf.jpg,stim/negf.jpg,stim/6.jpg,stim/5.jpg,stim/latef.jpg,CD,1,2,,,,,,,,,,,,,0,59,59,26,,,,,,4,0,0.783022157728,,,,,,PLC_L_D2S1,P8,60.0134916534,02,B,2015_Jan_22_1410,Y,
