fb_corr,fb_incorr,symbol2,symbol1,fb_late,pair,position,correct,block_01.thisRepN,block_01.thisTrialN,block_01.thisN,block_01.thisIndex,block_02.thisRepN,block_02.thisTrialN,block_02.thisN,block_02.thisIndex,block_03.thisRepN,block_03.thisTrialN,block_03.thisN,block_03.thisIndex,block_04.thisRepN,block_04.thisTrialN,block_04.thisN,block_04.thisIndex,mouse.x,mouse.y,mouse.leftButton,mouse.midButton,mouse.rightButton,buttonBox_2.keys,buttonBox_2.corr,buttonBox_2.rt,mouse_2.x,mouse_2.y,mouse_2.leftButton,mouse_2.midButton,mouse_2.rightButton,expName,Participant,frameRate,SessionNumber,Version,date,Group,
,,,,,,,,,,,,,,,,,,,,,,,,0.9984375,1.0,1,0,0,,,,,,,,,PLC_L_D2S1,P9,60.0225584796,02,C,2015_Jan_23_1427,Y,
stim/posf.jpg,stim/negf.jpg,stim/6.jpg,stim/2.jpg,stim/latef.jpg,EF,1,2,0,0,0,44,,,,,,,,,,,,,,,,,,4,0,1.4329577907,,,,,,PLC_L_D2S1,P9,60.0225584796,02,C,2015_Jan_23_1427,Y,
stim/posf.jpg,stim/negf.jpg,stim/5.jpg,stim/4.jpg,stim/latef.jpg,CD,2,4,0,1,1,36,,,,,,,,,,,,,,,,,,4,1,1.38284047022,,,,,,PLC_L_D2S1,P9,60.0225584796,02,C,2015_Jan_23_1427,Y,
stim/posf.jpg,stim/negf.jpg,stim/5.jpg,stim/4.jpg,stim/latef.jpg,CD,2,4,0,2,2,30,,,,,,,,,,,,,,,,,,4,1,1.06636872516,,,,,,PLC_L_D2S1,P9,60.0225584796,02,C,2015_Jan_23_1427,Y,
stim/posf.jpg,stim/negf.jpg,stim/3.jpg,stim/1.jpg,stim/latef.jpg,AB,1,2,0,3,3,4,,,,,,,,,,,,,,,,,,2,1,1.34953421127,,,,,,PLC_L_D2S1,P9,60.0225584796,02,C,2015_Jan_23_1427,Y,
stim/negf.jpg,stim/posf.jpg,stim/4.jpg,stim/5.jpg,stim/latef.jpg,CD,1,2,0,4,4,29,,,,,,,,,,,,,,,,,,2,1,1.08298346109,,,,,,PLC_L_D2S1,P9,60.0225584796,02,C,2015_Jan_23_1427,Y,
stim/negf.jpg,stim/posf.jpg,stim/3.jpg,stim/1.jpg,stim/latef.jpg,AB,1,2,0,5,5,9,,,,,,,,,,,,,,,,,,2,1,1.2328540445,,,,,,PLC_L_D2S1,P9,60.0225584796,02,C,2015_Jan_23_1427,Y,
stim/posf.jpg,stim/negf.jpg,stim/2.jpg,stim/6.jpg,stim/latef.jpg,EF,2,4,0,6,6,52,,,,,,,,,,,,,,,,,,2,0,1.4828617181,,,,,,PLC_L_D2S1,P9,60.0225584796,02,C,2015_Jan_23_1427,Y,
stim/posf.jpg,stim/negf.jpg,stim/1.jpg,stim/3.jpg,stim/latef.jpg,AB,2,4,0,7,7,16,,,,,,,,,,,,,,,,,,None,0,,,,,,,PLC_L_D2S1,P9,60.0225584796,02,C,2015_Jan_23_1427,Y,
stim/negf.jpg,stim/posf.jpg,stim/5.jpg,stim/4.jpg,stim/latef.jpg,CD,2,4,0,8,8,38,,,,,,,,,,,,,,,,,,4,1,0.41647532697,,,,,,PLC_L_D2S1,P9,60.0225584796,02,C,2015_Jan_23_1427,Y,
stim/posf.jpg,stim/negf.jpg,stim/3.jpg,stim/1.jpg,stim/latef.jpg,AB,1,2,0,9,9,5,,,,,,,,,,,,,,,,,,2,1,0.649780319771,,,,,,PLC_L_D2S1,P9,60.0225584796,02,C,2015_Jan_23_1427,Y,
stim/posf.jpg,stim/negf.jpg,stim/1.jpg,stim/3.jpg,stim/latef.jpg,AB,2,4,0,10,10,10,,,,,,,,,,,,,,,,,,4,1,0.866373329624,,,,,,PLC_L_D2S1,P9,60.0225584796,02,C,2015_Jan_23_1427,Y,
stim/posf.jpg,stim/negf.jpg,stim/3.jpg,stim/1.jpg,stim/latef.jpg,AB,1,2,0,11,11,2,,,,,,,,,,,,,,,,,,2,1,0.899698015436,,,,,,PLC_L_D2S1,P9,60.0225584796,02,C,2015_Jan_23_1427,Y,
stim/posf.jpg,stim/negf.jpg,stim/2.jpg,stim/6.jpg,stim/latef.jpg,EF,2,4,0,12,12,51,,,,,,,,,,,,,,,,,,2,0,0.983006468348,,,,,,PLC_L_D2S1,P9,60.0225584796,02,C,2015_Jan_23_1427,Y,
stim/posf.jpg,stim/negf.jpg,stim/1.jpg,stim/3.jpg,stim/latef.jpg,AB,2,4,0,13,13,14,,,,,,,,,,,,,,,,,,4,1,1.13299228956,,,,,,PLC_L_D2S1,P9,60.0225584796,02,C,2015_Jan_23_1427,Y,
stim/posf.jpg,stim/negf.jpg,stim/6.jpg,stim/2.jpg,stim/latef.jpg,EF,1,2,0,14,14,45,,,,,,,,,,,,,,,,,,2,1,0.899706541655,,,,,,PLC_L_D2S1,P9,60.0225584796,02,C,2015_Jan_23_1427,Y,
stim/negf.jpg,stim/posf.jpg,stim/3.jpg,stim/1.jpg,stim/latef.jpg,AB,1,2,0,15,15,8,,,,,,,,,,,,,,,,,,2,1,1.04958098668,,,,,,PLC_L_D2S1,P9,60.0225584796,02,C,2015_Jan_23_1427,Y,
stim/posf.jpg,stim/negf.jpg,stim/4.jpg,stim/5.jpg,stim/latef.jpg,CD,1,2,0,16,16,20,,,,,,,,,,,,,,,,,,2,1,1.01631007771,,,,,,PLC_L_D2S1,P9,60.0225584796,02,C,2015_Jan_23_1427,Y,
stim/posf.jpg,stim/negf.jpg,stim/6.jpg,stim/2.jpg,stim/latef.jpg,EF,1,2,0,17,17,40,,,,,,,,,,,,,,,,,,2,1,1.04962509445,,,,,,PLC_L_D2S1,P9,60.0225584796,02,C,2015_Jan_23_1427,Y,
stim/negf.jpg,stim/posf.jpg,stim/5.jpg,stim/4.jpg,stim/latef.jpg,CD,2,4,0,18,18,39,,,,,,,,,,,,,,,,,,4,1,1.04969234783,,,,,,PLC_L_D2S1,P9,60.0225584796,02,C,2015_Jan_23_1427,Y,
stim/posf.jpg,stim/negf.jpg,stim/4.jpg,stim/5.jpg,stim/latef.jpg,CD,1,2,0,19,19,25,,,,,,,,,,,,,,,,,,4,0,1.01631728965,,,,,,PLC_L_D2S1,P9,60.0225584796,02,C,2015_Jan_23_1427,Y,
stim/posf.jpg,stim/negf.jpg,stim/4.jpg,stim/5.jpg,stim/latef.jpg,CD,1,2,0,20,20,26,,,,,,,,,,,,,,,,,,2,1,0.966347513374,,,,,,PLC_L_D2S1,P9,60.0225584796,02,C,2015_Jan_23_1427,Y,
stim/negf.jpg,stim/posf.jpg,stim/2.jpg,stim/6.jpg,stim/latef.jpg,EF,2,4,0,21,21,58,,,,,,,,,,,,,,,,,,4,1,1.13296086134,,,,,,PLC_L_D2S1,P9,60.0225584796,02,C,2015_Jan_23_1427,Y,
stim/posf.jpg,stim/negf.jpg,stim/2.jpg,stim/6.jpg,stim/latef.jpg,EF,2,4,0,22,22,54,,,,,,,,,,,,,,,,,,2,0,0.883014429161,,,,,,PLC_L_D2S1,P9,60.0225584796,02,C,2015_Jan_23_1427,Y,
stim/posf.jpg,stim/negf.jpg,stim/2.jpg,stim/6.jpg,stim/latef.jpg,EF,2,4,0,23,23,53,,,,,,,,,,,,,,,,,,4,1,0.799739470608,,,,,,PLC_L_D2S1,P9,60.0225584796,02,C,2015_Jan_23_1427,Y,
stim/posf.jpg,stim/negf.jpg,stim/3.jpg,stim/1.jpg,stim/latef.jpg,AB,1,2,0,24,24,6,,,,,,,,,,,,,,,,,,2,1,0.966349332902,,,,,,PLC_L_D2S1,P9,60.0225584796,02,C,2015_Jan_23_1427,Y,
stim/negf.jpg,stim/posf.jpg,stim/1.jpg,stim/3.jpg,stim/latef.jpg,AB,2,4,0,25,25,19,,,,,,,,,,,,,,,,,,4,1,0.933032971809,,,,,,PLC_L_D2S1,P9,60.0225584796,02,C,2015_Jan_23_1427,Y,
stim/posf.jpg,stim/negf.jpg,stim/3.jpg,stim/1.jpg,stim/latef.jpg,AB,1,2,0,26,26,3,,,,,,,,,,,,,,,,,,4,0,1.19960048872,,,,,,PLC_L_D2S1,P9,60.0225584796,02,C,2015_Jan_23_1427,Y,
stim/posf.jpg,stim/negf.jpg,stim/2.jpg,stim/6.jpg,stim/latef.jpg,EF,2,4,0,27,27,50,,,,,,,,,,,,,,,,,,4,1,1.14961893813,,,,,,PLC_L_D2S1,P9,60.0225584796,02,C,2015_Jan_23_1427,Y,
stim/posf.jpg,stim/negf.jpg,stim/2.jpg,stim/6.jpg,stim/latef.jpg,EF,2,4,0,28,28,55,,,,,,,,,,,,,,,,,,4,1,0.816381216753,,,,,,PLC_L_D2S1,P9,60.0225584796,02,C,2015_Jan_23_1427,Y,
stim/negf.jpg,stim/posf.jpg,stim/2.jpg,stim/6.jpg,stim/latef.jpg,EF,2,4,0,29,29,57,,,,,,,,,,,,,,,,,,4,1,0.932939063093,,,,,,PLC_L_D2S1,P9,60.0225584796,02,C,2015_Jan_23_1427,Y,
stim/negf.jpg,stim/posf.jpg,stim/4.jpg,stim/5.jpg,stim/latef.jpg,CD,1,2,0,30,30,28,,,,,,,,,,,,,,,,,,4,0,1.08295948843,,,,,,PLC_L_D2S1,P9,60.0225584796,02,C,2015_Jan_23_1427,Y,
stim/negf.jpg,stim/posf.jpg,stim/6.jpg,stim/2.jpg,stim/latef.jpg,EF,1,2,0,31,31,46,,,,,,,,,,,,,,,,,,2,1,1.06637892355,,,,,,PLC_L_D2S1,P9,60.0225584796,02,C,2015_Jan_23_1427,Y,
stim/posf.jpg,stim/negf.jpg,stim/3.jpg,stim/1.jpg,stim/latef.jpg,AB,1,2,0,32,32,7,,,,,,,,,,,,,,,,,,4,0,0.999676593121,,,,,,PLC_L_D2S1,P9,60.0225584796,02,C,2015_Jan_23_1427,Y,
stim/posf.jpg,stim/negf.jpg,stim/1.jpg,stim/3.jpg,stim/latef.jpg,AB,2,4,0,33,33,13,,,,,,,,,,,,,,,,,,2,0,0.966331224836,,,,,,PLC_L_D2S1,P9,60.0225584796,02,C,2015_Jan_23_1427,Y,
stim/negf.jpg,stim/posf.jpg,stim/2.jpg,stim/6.jpg,stim/latef.jpg,EF,2,4,0,34,34,56,,,,,,,,,,,,,,,,,,4,1,1.08296726278,,,,,,PLC_L_D2S1,P9,60.0225584796,02,C,2015_Jan_23_1427,Y,
stim/posf.jpg,stim/negf.jpg,stim/5.jpg,stim/4.jpg,stim/latef.jpg,CD,2,4,0,35,35,34,,,,,,,,,,,,,,,,,,2,0,1.18292818352,,,,,,PLC_L_D2S1,P9,60.0225584796,02,C,2015_Jan_23_1427,Y,
stim/posf.jpg,stim/negf.jpg,stim/1.jpg,stim/3.jpg,stim/latef.jpg,AB,2,4,0,36,36,15,,,,,,,,,,,,,,,,,,4,1,1.21619863836,,,,,,PLC_L_D2S1,P9,60.0225584796,02,C,2015_Jan_23_1427,Y,
stim/posf.jpg,stim/negf.jpg,stim/4.jpg,stim/5.jpg,stim/latef.jpg,CD,1,2,0,37,37,21,,,,,,,,,,,,,,,,,,4,0,1.03300239471,,,,,,PLC_L_D2S1,P9,60.0225584796,02,C,2015_Jan_23_1427,Y,
stim/posf.jpg,stim/negf.jpg,stim/5.jpg,stim/4.jpg,stim/latef.jpg,CD,2,4,0,38,38,33,,,,,,,,,,,,,,,,,,4,1,1.01632919629,,,,,,PLC_L_D2S1,P9,60.0225584796,02,C,2015_Jan_23_1427,Y,
stim/negf.jpg,stim/posf.jpg,stim/4.jpg,stim/5.jpg,stim/latef.jpg,CD,1,2,0,39,39,27,,,,,,,,,,,,,,,,,,2,1,0.849712161141,,,,,,PLC_L_D2S1,P9,60.0225584796,02,C,2015_Jan_23_1427,Y,
stim/posf.jpg,stim/negf.jpg,stim/5.jpg,stim/4.jpg,stim/latef.jpg,CD,2,4,0,40,40,31,,,,,,,,,,,,,,,,,,2,0,1.1662867321,,,,,,PLC_L_D2S1,P9,60.0225584796,02,C,2015_Jan_23_1427,Y,
stim/posf.jpg,stim/negf.jpg,stim/4.jpg,stim/5.jpg,stim/latef.jpg,CD,1,2,0,41,41,23,,,,,,,,,,,,,,,,,,4,0,0.982994321117,,,,,,PLC_L_D2S1,P9,60.0225584796,02,C,2015_Jan_23_1427,Y,
stim/posf.jpg,stim/negf.jpg,stim/6.jpg,stim/2.jpg,stim/latef.jpg,EF,1,2,0,42,42,42,,,,,,,,,,,,,,,,,,4,0,1.09963011545,,,,,,PLC_L_D2S1,P9,60.0225584796,02,C,2015_Jan_23_1427,Y,
stim/posf.jpg,stim/negf.jpg,stim/5.jpg,stim/4.jpg,stim/latef.jpg,CD,2,4,0,43,43,35,,,,,,,,,,,,,,,,,,2,0,1.26618245659,,,,,,PLC_L_D2S1,P9,60.0225584796,02,C,2015_Jan_23_1427,Y,
stim/negf.jpg,stim/posf.jpg,stim/6.jpg,stim/2.jpg,stim/latef.jpg,EF,1,2,0,44,44,49,,,,,,,,,,,,,,,,,,2,1,0.982993689545,,,,,,PLC_L_D2S1,P9,60.0225584796,02,C,2015_Jan_23_1427,Y,
stim/posf.jpg,stim/negf.jpg,stim/1.jpg,stim/3.jpg,stim/latef.jpg,AB,2,4,0,45,45,17,,,,,,,,,,,,,,,,,,4,1,1.03297526118,,,,,,PLC_L_D2S1,P9,60.0225584796,02,C,2015_Jan_23_1427,Y,
stim/posf.jpg,stim/negf.jpg,stim/1.jpg,stim/3.jpg,stim/latef.jpg,AB,2,4,0,46,46,11,,,,,,,,,,,,,,,,,,4,1,0.983003674394,,,,,,PLC_L_D2S1,P9,60.0225584796,02,C,2015_Jan_23_1427,Y,
stim/posf.jpg,stim/negf.jpg,stim/4.jpg,stim/5.jpg,stim/latef.jpg,CD,1,2,0,47,47,24,,,,,,,,,,,,,,,,,,2,1,0.899664854908,,,,,,PLC_L_D2S1,P9,60.0225584796,02,C,2015_Jan_23_1427,Y,
stim/negf.jpg,stim/posf.jpg,stim/5.jpg,stim/4.jpg,stim/latef.jpg,CD,2,4,0,48,48,37,,,,,,,,,,,,,,,,,,2,0,0.933008433739,,,,,,PLC_L_D2S1,P9,60.0225584796,02,C,2015_Jan_23_1427,Y,
stim/posf.jpg,stim/negf.jpg,stim/4.jpg,stim/5.jpg,stim/latef.jpg,CD,1,2,0,49,49,22,,,,,,,,,,,,,,,,,,4,0,1.01630898599,,,,,,PLC_L_D2S1,P9,60.0225584796,02,C,2015_Jan_23_1427,Y,
stim/negf.jpg,stim/posf.jpg,stim/2.jpg,stim/6.jpg,stim/latef.jpg,EF,2,4,0,50,50,59,,,,,,,,,,,,,,,,,,4,1,1.14960998786,,,,,,PLC_L_D2S1,P9,60.0225584796,02,C,2015_Jan_23_1427,Y,
stim/posf.jpg,stim/negf.jpg,stim/3.jpg,stim/1.jpg,stim/latef.jpg,AB,1,2,0,51,51,1,,,,,,,,,,,,,,,,,,2,1,0.949673223234,,,,,,PLC_L_D2S1,P9,60.0225584796,02,C,2015_Jan_23_1427,Y,
stim/posf.jpg,stim/negf.jpg,stim/1.jpg,stim/3.jpg,stim/latef.jpg,AB,2,4,0,52,52,12,,,,,,,,,,,,,,,,,,4,1,1.11629098619,,,,,,PLC_L_D2S1,P9,60.0225584796,02,C,2015_Jan_23_1427,Y,
stim/posf.jpg,stim/negf.jpg,stim/5.jpg,stim/4.jpg,stim/latef.jpg,CD,2,4,0,53,53,32,,,,,,,,,,,,,,,,,,2,0,1.11629470344,,,,,,PLC_L_D2S1,P9,60.0225584796,02,C,2015_Jan_23_1427,Y,
stim/posf.jpg,stim/negf.jpg,stim/3.jpg,stim/1.jpg,stim/latef.jpg,AB,1,2,0,54,54,0,,,,,,,,,,,,,,,,,,2,1,1.06631825957,,,,,,PLC_L_D2S1,P9,60.0225584796,02,C,2015_Jan_23_1427,Y,
stim/posf.jpg,stim/negf.jpg,stim/6.jpg,stim/2.jpg,stim/latef.jpg,EF,1,2,0,55,55,43,,,,,,,,,,,,,,,,,,4,0,1.26629289444,,,,,,PLC_L_D2S1,P9,60.0225584796,02,C,2015_Jan_23_1427,Y,
stim/posf.jpg,stim/negf.jpg,stim/6.jpg,stim/2.jpg,stim/latef.jpg,EF,1,2,0,56,56,41,,,,,,,,,,,,,,,,,,2,1,0.983005024755,,,,,,PLC_L_D2S1,P9,60.0225584796,02,C,2015_Jan_23_1427,Y,
stim/negf.jpg,stim/posf.jpg,stim/6.jpg,stim/2.jpg,stim/latef.jpg,EF,1,2,0,57,57,48,,,,,,,,,,,,,,,,,,2,1,0.81638236862,,,,,,PLC_L_D2S1,P9,60.0225584796,02,C,2015_Jan_23_1427,Y,
stim/negf.jpg,stim/posf.jpg,stim/6.jpg,stim/2.jpg,stim/latef.jpg,EF,1,2,0,58,58,47,,,,,,,,,,,,,,,,,,2,1,0.999671630771,,,,,,PLC_L_D2S1,P9,60.0225584796,02,C,2015_Jan_23_1427,Y,
stim/negf.jpg,stim/posf.jpg,stim/1.jpg,stim/3.jpg,stim/latef.jpg,AB,2,4,0,59,59,18,,,,,,,,,,,,,,,,,,4,1,0.983002660872,,,,,,PLC_L_D2S1,P9,60.0225584796,02,C,2015_Jan_23_1427,Y,
,,,,,,,,,,,,,,,,,,,,,,,,,,,,,,,,0.9984375,1.0,1,0,0,PLC_L_D2S1,P9,60.0225584796,02,C,2015_Jan_23_1427,Y,
stim/posf.jpg,stim/negf.jpg,stim/1.jpg,stim/3.jpg,stim/latef.jpg,AB,2,4,,,,,0,0,0,17,,,,,,,,,,,,,,4,1,1.03296601918,,,,,,PLC_L_D2S1,P9,60.0225584796,02,C,2015_Jan_23_1427,Y,
stim/posf.jpg,stim/negf.jpg,stim/5.jpg,stim/4.jpg,stim/latef.jpg,CD,2,4,,,,,0,1,1,30,,,,,,,,,,,,,,2,0,0.799730806043,,,,,,PLC_L_D2S1,P9,60.0225584796,02,C,2015_Jan_23_1427,Y,
stim/negf.jpg,stim/posf.jpg,stim/6.jpg,stim/2.jpg,stim/latef.jpg,EF,1,2,,,,,0,2,2,46,,,,,,,,,,,,,,2,1,0.982971536411,,,,,,PLC_L_D2S1,P9,60.0225584796,02,C,2015_Jan_23_1427,Y,
stim/posf.jpg,stim/negf.jpg,stim/1.jpg,stim/3.jpg,stim/latef.jpg,AB,2,4,,,,,0,3,3,10,,,,,,,,,,,,,,4,1,0.783063733868,,,,,,PLC_L_D2S1,P9,60.0225584796,02,C,2015_Jan_23_1427,Y,
stim/posf.jpg,stim/negf.jpg,stim/2.jpg,stim/6.jpg,stim/latef.jpg,EF,2,4,,,,,0,4,4,55,,,,,,,,,,,,,,4,1,0.866386610678,,,,,,PLC_L_D2S1,P9,60.0225584796,02,C,2015_Jan_23_1427,Y,
stim/posf.jpg,stim/negf.jpg,stim/4.jpg,stim/5.jpg,stim/latef.jpg,CD,1,2,,,,,0,5,5,26,,,,,,,,,,,,,,2,1,0.833043004778,,,,,,PLC_L_D2S1,P9,60.0225584796,02,C,2015_Jan_23_1427,Y,
stim/posf.jpg,stim/negf.jpg,stim/3.jpg,stim/1.jpg,stim/latef.jpg,AB,1,2,,,,,0,6,6,1,,,,,,,,,,,,,,2,1,0.883049818235,,,,,,PLC_L_D2S1,P9,60.0225584796,02,C,2015_Jan_23_1427,Y,
stim/posf.jpg,stim/negf.jpg,stim/6.jpg,stim/2.jpg,stim/latef.jpg,EF,1,2,,,,,0,7,7,44,,,,,,,,,,,,,,2,1,1.08303406804,,,,,,PLC_L_D2S1,P9,60.0225584796,02,C,2015_Jan_23_1427,Y,
stim/negf.jpg,stim/posf.jpg,stim/3.jpg,stim/1.jpg,stim/latef.jpg,AB,1,2,,,,,0,8,8,8,,,,,,,,,,,,,,4,0,1.24958826479,,,,,,PLC_L_D2S1,P9,60.0225584796,02,C,2015_Jan_23_1427,Y,
stim/posf.jpg,stim/negf.jpg,stim/6.jpg,stim/2.jpg,stim/latef.jpg,EF,1,2,,,,,0,9,9,43,,,,,,,,,,,,,,2,1,0.799732697752,,,,,,PLC_L_D2S1,P9,60.0225584796,02,C,2015_Jan_23_1427,Y,
stim/posf.jpg,stim/negf.jpg,stim/5.jpg,stim/4.jpg,stim/latef.jpg,CD,2,4,,,,,0,10,10,33,,,,,,,,,,,,,,4,1,0.883019704289,,,,,,PLC_L_D2S1,P9,60.0225584796,02,C,2015_Jan_23_1427,Y,
stim/posf.jpg,stim/negf.jpg,stim/1.jpg,stim/3.jpg,stim/latef.jpg,AB,2,4,,,,,0,11,11,12,,,,,,,,,,,,,,4,1,1.06630619655,,,,,,PLC_L_D2S1,P9,60.0225584796,02,C,2015_Jan_23_1427,Y,
stim/negf.jpg,stim/posf.jpg,stim/4.jpg,stim/5.jpg,stim/latef.jpg,CD,1,2,,,,,0,12,12,28,,,,,,,,,,,,,,2,1,1.18287394954,,,,,,PLC_L_D2S1,P9,60.0225584796,02,C,2015_Jan_23_1427,Y,
stim/posf.jpg,stim/negf.jpg,stim/3.jpg,stim/1.jpg,stim/latef.jpg,AB,1,2,,,,,0,13,13,4,,,,,,,,,,,,,,4,0,1.11628944034,,,,,,PLC_L_D2S1,P9,60.0225584796,02,C,2015_Jan_23_1427,Y,
stim/posf.jpg,stim/negf.jpg,stim/5.jpg,stim/4.jpg,stim/latef.jpg,CD,2,4,,,,,0,14,14,34,,,,,,,,,,,,,,4,1,0.649741153295,,,,,,PLC_L_D2S1,P9,60.0225584796,02,C,2015_Jan_23_1427,Y,
stim/posf.jpg,stim/negf.jpg,stim/4.jpg,stim/5.jpg,stim/latef.jpg,CD,1,2,,,,,0,15,15,24,,,,,,,,,,,,,,2,1,0.749732600008,,,,,,PLC_L_D2S1,P9,60.0225584796,02,C,2015_Jan_23_1427,Y,
stim/posf.jpg,stim/negf.jpg,stim/1.jpg,stim/3.jpg,stim/latef.jpg,AB,2,4,,,,,0,16,16,14,,,,,,,,,,,,,,4,1,0.866388171562,,,,,,PLC_L_D2S1,P9,60.0225584796,02,C,2015_Jan_23_1427,Y,
stim/posf.jpg,stim/negf.jpg,stim/4.jpg,stim/5.jpg,stim/latef.jpg,CD,1,2,,,,,0,17,17,25,,,,,,,,,,,,,,2,1,0.766422730571,,,,,,PLC_L_D2S1,P9,60.0225584796,02,C,2015_Jan_23_1427,Y,
stim/posf.jpg,stim/negf.jpg,stim/2.jpg,stim/6.jpg,stim/latef.jpg,EF,2,4,,,,,0,18,18,53,,,,,,,,,,,,,,2,0,0.833062207569,,,,,,PLC_L_D2S1,P9,60.0225584796,02,C,2015_Jan_23_1427,Y,
stim/posf.jpg,stim/negf.jpg,stim/6.jpg,stim/2.jpg,stim/latef.jpg,EF,1,2,,,,,0,19,19,42,,,,,,,,,,,,,,2,1,0.783009250272,,,,,,PLC_L_D2S1,P9,60.0225584796,02,C,2015_Jan_23_1427,Y,
stim/negf.jpg,stim/posf.jpg,stim/4.jpg,stim/5.jpg,stim/latef.jpg,CD,1,2,,,,,0,20,20,27,,,,,,,,,,,,,,2,1,0.86646075721,,,,,,PLC_L_D2S1,P9,60.0225584796,02,C,2015_Jan_23_1427,Y,
stim/posf.jpg,stim/negf.jpg,stim/3.jpg,stim/1.jpg,stim/latef.jpg,AB,1,2,,,,,0,21,21,6,,,,,,,,,,,,,,2,1,1.16626870223,,,,,,PLC_L_D2S1,P9,60.0225584796,02,C,2015_Jan_23_1427,Y,
stim/posf.jpg,stim/negf.jpg,stim/3.jpg,stim/1.jpg,stim/latef.jpg,AB,1,2,,,,,0,22,22,5,,,,,,,,,,,,,,2,1,0.966369549215,,,,,,PLC_L_D2S1,P9,60.0225584796,02,C,2015_Jan_23_1427,Y,
stim/posf.jpg,stim/negf.jpg,stim/2.jpg,stim/6.jpg,stim/latef.jpg,EF,2,4,,,,,0,23,23,52,,,,,,,,,,,,,,4,1,1.13294335778,,,,,,PLC_L_D2S1,P9,60.0225584796,02,C,2015_Jan_23_1427,Y,
stim/posf.jpg,stim/negf.jpg,stim/3.jpg,stim/1.jpg,stim/latef.jpg,AB,1,2,,,,,0,24,24,0,,,,,,,,,,,,,,4,0,1.516159517,,,,,,PLC_L_D2S1,P9,60.0225584796,02,C,2015_Jan_23_1427,Y,
stim/posf.jpg,stim/negf.jpg,stim/4.jpg,stim/5.jpg,stim/latef.jpg,CD,1,2,,,,,0,25,25,20,,,,,,,,,,,,,,4,0,0.883023394473,,,,,,PLC_L_D2S1,P9,60.0225584796,02,C,2015_Jan_23_1427,Y,
stim/posf.jpg,stim/negf.jpg,stim/5.jpg,stim/4.jpg,stim/latef.jpg,CD,2,4,,,,,0,26,26,35,,,,,,,,,,,,,,2,0,1.16624767991,,,,,,PLC_L_D2S1,P9,60.0225584796,02,C,2015_Jan_23_1427,Y,
stim/posf.jpg,stim/negf.jpg,stim/3.jpg,stim/1.jpg,stim/latef.jpg,AB,1,2,,,,,0,27,27,7,,,,,,,,,,,,,,2,1,0.816387406157,,,,,,PLC_L_D2S1,P9,60.0225584796,02,C,2015_Jan_23_1427,Y,
stim/negf.jpg,stim/posf.jpg,stim/1.jpg,stim/3.jpg,stim/latef.jpg,AB,2,4,,,,,0,28,28,19,,,,,,,,,,,,,,4,1,0.816405977376,,,,,,PLC_L_D2S1,P9,60.0225584796,02,C,2015_Jan_23_1427,Y,
stim/negf.jpg,stim/posf.jpg,stim/6.jpg,stim/2.jpg,stim/latef.jpg,EF,1,2,,,,,0,29,29,48,,,,,,,,,,,,,,2,1,0.799706701052,,,,,,PLC_L_D2S1,P9,60.0225584796,02,C,2015_Jan_23_1427,Y,
stim/posf.jpg,stim/negf.jpg,stim/2.jpg,stim/6.jpg,stim/latef.jpg,EF,2,4,,,,,0,30,30,50,,,,,,,,,,,,,,2,0,0.816399932331,,,,,,PLC_L_D2S1,P9,60.0225584796,02,C,2015_Jan_23_1427,Y,
stim/negf.jpg,stim/posf.jpg,stim/2.jpg,stim/6.jpg,stim/latef.jpg,EF,2,4,,,,,0,31,31,59,,,,,,,,,,,,,,2,0,0.866446567896,,,,,,PLC_L_D2S1,P9,60.0225584796,02,C,2015_Jan_23_1427,Y,
stim/posf.jpg,stim/negf.jpg,stim/4.jpg,stim/5.jpg,stim/latef.jpg,CD,1,2,,,,,0,32,32,22,,,,,,,,,,,,,,4,0,0.933027627508,,,,,,PLC_L_D2S1,P9,60.0225584796,02,C,2015_Jan_23_1427,Y,
stim/posf.jpg,stim/negf.jpg,stim/1.jpg,stim/3.jpg,stim/latef.jpg,AB,2,4,,,,,0,33,33,13,,,,,,,,,,,,,,4,1,0.916337454841,,,,,,PLC_L_D2S1,P9,60.0225584796,02,C,2015_Jan_23_1427,Y,
stim/negf.jpg,stim/posf.jpg,stim/2.jpg,stim/6.jpg,stim/latef.jpg,EF,2,4,,,,,0,34,34,57,,,,,,,,,,,,,,4,1,0.982997933106,,,,,,PLC_L_D2S1,P9,60.0225584796,02,C,2015_Jan_23_1427,Y,
stim/posf.jpg,stim/negf.jpg,stim/1.jpg,stim/3.jpg,stim/latef.jpg,AB,2,4,,,,,0,35,35,15,,,,,,,,,,,,,,4,1,1.08296395153,,,,,,PLC_L_D2S1,P9,60.0225584796,02,C,2015_Jan_23_1427,Y,
stim/negf.jpg,stim/posf.jpg,stim/5.jpg,stim/4.jpg,stim/latef.jpg,CD,2,4,,,,,0,36,36,38,,,,,,,,,,,,,,2,0,0.966343820182,,,,,,PLC_L_D2S1,P9,60.0225584796,02,C,2015_Jan_23_1427,Y,
stim/negf.jpg,stim/posf.jpg,stim/2.jpg,stim/6.jpg,stim/latef.jpg,EF,2,4,,,,,0,37,37,56,,,,,,,,,,,,,,2,0,0.966346902855,,,,,,PLC_L_D2S1,P9,60.0225584796,02,C,2015_Jan_23_1427,Y,
stim/negf.jpg,stim/posf.jpg,stim/6.jpg,stim/2.jpg,stim/latef.jpg,EF,1,2,,,,,0,38,38,47,,,,,,,,,,,,,,4,0,1.34957579576,,,,,,PLC_L_D2S1,P9,60.0225584796,02,C,2015_Jan_23_1427,Y,
stim/posf.jpg,stim/negf.jpg,stim/5.jpg,stim/4.jpg,stim/latef.jpg,CD,2,4,,,,,0,39,39,36,,,,,,,,,,,,,,2,0,0.949702254486,,,,,,PLC_L_D2S1,P9,60.0225584796,02,C,2015_Jan_23_1427,Y,
stim/posf.jpg,stim/negf.jpg,stim/4.jpg,stim/5.jpg,stim/latef.jpg,CD,1,2,,,,,0,40,40,23,,,,,,,,,,,,,,2,1,0.916346916388,,,,,,PLC_L_D2S1,P9,60.0225584796,02,C,2015_Jan_23_1427,Y,
stim/posf.jpg,stim/negf.jpg,stim/5.jpg,stim/4.jpg,stim/latef.jpg,CD,2,4,,,,,0,41,41,31,,,,,,,,,,,,,,4,1,0.89969471021,,,,,,PLC_L_D2S1,P9,60.0225584796,02,C,2015_Jan_23_1427,Y,
stim/negf.jpg,stim/posf.jpg,stim/4.jpg,stim/5.jpg,stim/latef.jpg,CD,1,2,,,,,0,42,42,29,,,,,,,,,,,,,,2,1,0.649792142194,,,,,,PLC_L_D2S1,P9,60.0225584796,02,C,2015_Jan_23_1427,Y,
stim/negf.jpg,stim/posf.jpg,stim/5.jpg,stim/4.jpg,stim/latef.jpg,CD,2,4,,,,,0,43,43,37,,,,,,,,,,,,,,4,1,0.783044988214,,,,,,PLC_L_D2S1,P9,60.0225584796,02,C,2015_Jan_23_1427,Y,
stim/posf.jpg,stim/negf.jpg,stim/6.jpg,stim/2.jpg,stim/latef.jpg,EF,1,2,,,,,0,44,44,41,,,,,,,,,,,,,,2,1,0.933023795972,,,,,,PLC_L_D2S1,P9,60.0225584796,02,C,2015_Jan_23_1427,Y,
stim/posf.jpg,stim/negf.jpg,stim/5.jpg,stim/4.jpg,stim/latef.jpg,CD,2,4,,,,,0,45,45,32,,,,,,,,,,,,,,4,1,1.16627094281,,,,,,PLC_L_D2S1,P9,60.0225584796,02,C,2015_Jan_23_1427,Y,
stim/posf.jpg,stim/negf.jpg,stim/3.jpg,stim/1.jpg,stim/latef.jpg,AB,1,2,,,,,0,46,46,3,,,,,,,,,,,,,,2,1,0.899674033751,,,,,,PLC_L_D2S1,P9,60.0225584796,02,C,2015_Jan_23_1427,Y,
stim/negf.jpg,stim/posf.jpg,stim/3.jpg,stim/1.jpg,stim/latef.jpg,AB,1,2,,,,,0,47,47,9,,,,,,,,,,,,,,2,1,1.14955514637,,,,,,PLC_L_D2S1,P9,60.0225584796,02,C,2015_Jan_23_1427,Y,
stim/posf.jpg,stim/negf.jpg,stim/1.jpg,stim/3.jpg,stim/latef.jpg,AB,2,4,,,,,0,48,48,11,,,,,,,,,,,,,,2,0,1.2828753811,,,,,,PLC_L_D2S1,P9,60.0225584796,02,C,2015_Jan_23_1427,Y,
stim/negf.jpg,stim/posf.jpg,stim/1.jpg,stim/3.jpg,stim/latef.jpg,AB,2,4,,,,,0,49,49,18,,,,,,,,,,,,,,4,1,1.31619692109,,,,,,PLC_L_D2S1,P9,60.0225584796,02,C,2015_Jan_23_1427,Y,
stim/posf.jpg,stim/negf.jpg,stim/6.jpg,stim/2.jpg,stim/latef.jpg,EF,1,2,,,,,0,50,50,40,,,,,,,,,,,,,,2,1,0.733140248794,,,,,,PLC_L_D2S1,P9,60.0225584796,02,C,2015_Jan_23_1427,Y,
stim/negf.jpg,stim/posf.jpg,stim/6.jpg,stim/2.jpg,stim/latef.jpg,EF,1,2,,,,,0,51,51,49,,,,,,,,,,,,,,2,1,0.816461218858,,,,,,PLC_L_D2S1,P9,60.0225584796,02,C,2015_Jan_23_1427,Y,
stim/posf.jpg,stim/negf.jpg,stim/3.jpg,stim/1.jpg,stim/latef.jpg,AB,1,2,,,,,0,52,52,2,,,,,,,,,,,,,,4,0,1.266253743,,,,,,PLC_L_D2S1,P9,60.0225584796,02,C,2015_Jan_23_1427,Y,
stim/posf.jpg,stim/negf.jpg,stim/6.jpg,stim/2.jpg,stim/latef.jpg,EF,1,2,,,,,0,53,53,45,,,,,,,,,,,,,,2,1,0.816384645286,,,,,,PLC_L_D2S1,P9,60.0225584796,02,C,2015_Jan_23_1427,Y,
stim/negf.jpg,stim/posf.jpg,stim/2.jpg,stim/6.jpg,stim/latef.jpg,EF,2,4,,,,,0,54,54,58,,,,,,,,,,,,,,2,0,0.966358818509,,,,,,PLC_L_D2S1,P9,60.0225584796,02,C,2015_Jan_23_1427,Y,
stim/posf.jpg,stim/negf.jpg,stim/4.jpg,stim/5.jpg,stim/latef.jpg,CD,1,2,,,,,0,55,55,21,,,,,,,,,,,,,,2,1,0.866279908121,,,,,,PLC_L_D2S1,P9,60.0225584796,02,C,2015_Jan_23_1427,Y,
stim/negf.jpg,stim/posf.jpg,stim/5.jpg,stim/4.jpg,stim/latef.jpg,CD,2,4,,,,,0,56,56,39,,,,,,,,,,,,,,4,1,0.949664513558,,,,,,PLC_L_D2S1,P9,60.0225584796,02,C,2015_Jan_23_1427,Y,
stim/posf.jpg,stim/negf.jpg,stim/2.jpg,stim/6.jpg,stim/latef.jpg,EF,2,4,,,,,0,57,57,54,,,,,,,,,,,,,,2,0,0.783074275102,,,,,,PLC_L_D2S1,P9,60.0225584796,02,C,2015_Jan_23_1427,Y,
stim/posf.jpg,stim/negf.jpg,stim/1.jpg,stim/3.jpg,stim/latef.jpg,AB,2,4,,,,,0,58,58,16,,,,,,,,,,,,,,4,1,0.999639255196,,,,,,PLC_L_D2S1,P9,60.0225584796,02,C,2015_Jan_23_1427,Y,
stim/posf.jpg,stim/negf.jpg,stim/2.jpg,stim/6.jpg,stim/latef.jpg,EF,2,4,,,,,0,59,59,51,,,,,,,,,,,,,,4,1,0.933024286192,,,,,,PLC_L_D2S1,P9,60.0225584796,02,C,2015_Jan_23_1427,Y,
,,,,,,,,,,,,,,,,,,,,,,,,,,,,,,,,0.9984375,1.0,1,0,0,PLC_L_D2S1,P9,60.0225584796,02,C,2015_Jan_23_1427,Y,
stim/negf.jpg,stim/posf.jpg,stim/2.jpg,stim/6.jpg,stim/latef.jpg,EF,2,4,,,,,,,,,0,0,0,58,,,,,,,,,,4,1,0.999653137746,,,,,,PLC_L_D2S1,P9,60.0225584796,02,C,2015_Jan_23_1427,Y,
stim/posf.jpg,stim/negf.jpg,stim/3.jpg,stim/1.jpg,stim/latef.jpg,AB,1,2,,,,,,,,,0,1,1,3,,,,,,,,,,2,1,0.799714520513,,,,,,PLC_L_D2S1,P9,60.0225584796,02,C,2015_Jan_23_1427,Y,
stim/negf.jpg,stim/posf.jpg,stim/4.jpg,stim/5.jpg,stim/latef.jpg,CD,1,2,,,,,,,,,0,2,2,29,,,,,,,,,,2,1,0.883031776333,,,,,,PLC_L_D2S1,P9,60.0225584796,02,C,2015_Jan_23_1427,Y,
stim/negf.jpg,stim/posf.jpg,stim/4.jpg,stim/5.jpg,stim/latef.jpg,CD,1,2,,,,,,,,,0,3,3,28,,,,,,,,,,4,0,1.0995558817,,,,,,PLC_L_D2S1,P9,60.0225584796,02,C,2015_Jan_23_1427,Y,
stim/posf.jpg,stim/negf.jpg,stim/4.jpg,stim/5.jpg,stim/latef.jpg,CD,1,2,,,,,,,,,0,4,4,22,,,,,,,,,,4,0,1.09963486427,,,,,,PLC_L_D2S1,P9,60.0225584796,02,C,2015_Jan_23_1427,Y,
stim/negf.jpg,stim/posf.jpg,stim/6.jpg,stim/2.jpg,stim/latef.jpg,EF,1,2,,,,,,,,,0,5,5,48,,,,,,,,,,4,0,1.24958541971,,,,,,PLC_L_D2S1,P9,60.0225584796,02,C,2015_Jan_23_1427,Y,
stim/posf.jpg,stim/negf.jpg,stim/4.jpg,stim/5.jpg,stim/latef.jpg,CD,1,2,,,,,,,,,0,6,6,23,,,,,,,,,,2,1,1.4495093905,,,,,,PLC_L_D2S1,P9,60.0225584796,02,C,2015_Jan_23_1427,Y,
stim/posf.jpg,stim/negf.jpg,stim/3.jpg,stim/1.jpg,stim/latef.jpg,AB,1,2,,,,,,,,,0,7,7,1,,,,,,,,,,2,1,0.982993442931,,,,,,PLC_L_D2S1,P9,60.0225584796,02,C,2015_Jan_23_1427,Y,
stim/negf.jpg,stim/posf.jpg,stim/6.jpg,stim/2.jpg,stim/latef.jpg,EF,1,2,,,,,,,,,0,8,8,46,,,,,,,,,,4,0,1.14959164521,,,,,,PLC_L_D2S1,P9,60.0225584796,02,C,2015_Jan_23_1427,Y,
stim/negf.jpg,stim/posf.jpg,stim/1.jpg,stim/3.jpg,stim/latef.jpg,AB,2,4,,,,,,,,,0,9,9,19,,,,,,,,,,4,1,1.19955408924,,,,,,PLC_L_D2S1,P9,60.0225584796,02,C,2015_Jan_23_1427,Y,
stim/negf.jpg,stim/posf.jpg,stim/5.jpg,stim/4.jpg,stim/latef.jpg,CD,2,4,,,,,,,,,0,10,10,39,,,,,,,,,,2,0,1.0830439356,,,,,,PLC_L_D2S1,P9,60.0225584796,02,C,2015_Jan_23_1427,Y,
stim/posf.jpg,stim/negf.jpg,stim/4.jpg,stim/5.jpg,stim/latef.jpg,CD,1,2,,,,,,,,,0,11,11,25,,,,,,,,,,4,0,0.933013853227,,,,,,PLC_L_D2S1,P9,60.0225584796,02,C,2015_Jan_23_1427,Y,
stim/negf.jpg,stim/posf.jpg,stim/2.jpg,stim/6.jpg,stim/latef.jpg,EF,2,4,,,,,,,,,0,12,12,59,,,,,,,,,,2,0,0.982997596268,,,,,,PLC_L_D2S1,P9,60.0225584796,02,C,2015_Jan_23_1427,Y,
stim/posf.jpg,stim/negf.jpg,stim/3.jpg,stim/1.jpg,stim/latef.jpg,AB,1,2,,,,,,,,,0,13,13,7,,,,,,,,,,2,1,1.23191210625,,,,,,PLC_L_D2S1,P9,60.0225584796,02,C,2015_Jan_23_1427,Y,
stim/posf.jpg,stim/negf.jpg,stim/2.jpg,stim/6.jpg,stim/latef.jpg,EF,2,4,,,,,,,,,0,14,14,52,,,,,,,,,,2,0,0.966332815795,,,,,,PLC_L_D2S1,P9,60.0225584796,02,C,2015_Jan_23_1427,Y,
stim/posf.jpg,stim/negf.jpg,stim/6.jpg,stim/2.jpg,stim/latef.jpg,EF,1,2,,,,,,,,,0,15,15,42,,,,,,,,,,4,0,0.933038439416,,,,,,PLC_L_D2S1,P9,60.0225584796,02,C,2015_Jan_23_1427,Y,
stim/posf.jpg,stim/negf.jpg,stim/3.jpg,stim/1.jpg,stim/latef.jpg,AB,1,2,,,,,,,,,0,16,16,6,,,,,,,,,,4,0,0.949614646451,,,,,,PLC_L_D2S1,P9,60.0225584796,02,C,2015_Jan_23_1427,Y,
stim/negf.jpg,stim/posf.jpg,stim/6.jpg,stim/2.jpg,stim/latef.jpg,EF,1,2,,,,,,,,,0,17,17,49,,,,,,,,,,2,1,1.04963211994,,,,,,PLC_L_D2S1,P9,60.0225584796,02,C,2015_Jan_23_1427,Y,
stim/negf.jpg,stim/posf.jpg,stim/5.jpg,stim/4.jpg,stim/latef.jpg,CD,2,4,,,,,,,,,0,18,18,38,,,,,,,,,,4,1,1.03298544152,,,,,,PLC_L_D2S1,P9,60.0225584796,02,C,2015_Jan_23_1427,Y,
stim/posf.jpg,stim/negf.jpg,stim/5.jpg,stim/4.jpg,stim/latef.jpg,CD,2,4,,,,,,,,,0,19,19,34,,,,,,,,,,2,0,0.699757948594,,,,,,PLC_L_D2S1,P9,60.0225584796,02,C,2015_Jan_23_1427,Y,
stim/negf.jpg,stim/posf.jpg,stim/4.jpg,stim/5.jpg,stim/latef.jpg,CD,1,2,,,,,,,,,0,20,20,27,,,,,,,,,,2,1,0.88302993876,,,,,,PLC_L_D2S1,P9,60.0225584796,02,C,2015_Jan_23_1427,Y,
stim/posf.jpg,stim/negf.jpg,stim/3.jpg,stim/1.jpg,stim/latef.jpg,AB,1,2,,,,,,,,,0,21,21,5,,,,,,,,,,2,1,0.816372870982,,,,,,PLC_L_D2S1,P9,60.0225584796,02,C,2015_Jan_23_1427,Y,
stim/posf.jpg,stim/negf.jpg,stim/1.jpg,stim/3.jpg,stim/latef.jpg,AB,2,4,,,,,,,,,0,22,22,12,,,,,,,,,,4,1,0.883038660466,,,,,,PLC_L_D2S1,P9,60.0225584796,02,C,2015_Jan_23_1427,Y,
stim/posf.jpg,stim/negf.jpg,stim/4.jpg,stim/5.jpg,stim/latef.jpg,CD,1,2,,,,,,,,,0,23,23,21,,,,,,,,,,4,0,1.08295439976,,,,,,PLC_L_D2S1,P9,60.0225584796,02,C,2015_Jan_23_1427,Y,
stim/posf.jpg,stim/negf.jpg,stim/6.jpg,stim/2.jpg,stim/latef.jpg,EF,1,2,,,,,,,,,0,24,24,43,,,,,,,,,,2,1,0.966277165295,,,,,,PLC_L_D2S1,P9,60.0225584796,02,C,2015_Jan_23_1427,Y,
stim/posf.jpg,stim/negf.jpg,stim/4.jpg,stim/5.jpg,stim/latef.jpg,CD,1,2,,,,,,,,,0,25,25,26,,,,,,,,,,4,0,1.2329336406,,,,,,PLC_L_D2S1,P9,60.0225584796,02,C,2015_Jan_23_1427,Y,
stim/posf.jpg,stim/negf.jpg,stim/3.jpg,stim/1.jpg,stim/latef.jpg,AB,1,2,,,,,,,,,0,26,26,2,,,,,,,,,,4,0,1.39954803517,,,,,,PLC_L_D2S1,P9,60.0225584796,02,C,2015_Jan_23_1427,Y,
stim/posf.jpg,stim/negf.jpg,stim/5.jpg,stim/4.jpg,stim/latef.jpg,CD,2,4,,,,,,,,,0,27,27,33,,,,,,,,,,2,0,1.28291695357,,,,,,PLC_L_D2S1,P9,60.0225584796,02,C,2015_Jan_23_1427,Y,
stim/posf.jpg,stim/negf.jpg,stim/2.jpg,stim/6.jpg,stim/latef.jpg,EF,2,4,,,,,,,,,0,28,28,53,,,,,,,,,,4,1,1.13297191987,,,,,,PLC_L_D2S1,P9,60.0225584796,02,C,2015_Jan_23_1427,Y,
stim/posf.jpg,stim/negf.jpg,stim/5.jpg,stim/4.jpg,stim/latef.jpg,CD,2,4,,,,,,,,,0,29,29,36,,,,,,,,,,2,0,1.14962110653,,,,,,PLC_L_D2S1,P9,60.0225584796,02,C,2015_Jan_23_1427,Y,
stim/posf.jpg,stim/negf.jpg,stim/3.jpg,stim/1.jpg,stim/latef.jpg,AB,1,2,,,,,,,,,0,30,30,0,,,,,,,,,,2,1,0.83306710977,,,,,,PLC_L_D2S1,P9,60.0225584796,02,C,2015_Jan_23_1427,Y,
stim/posf.jpg,stim/negf.jpg,stim/1.jpg,stim/3.jpg,stim/latef.jpg,AB,2,4,,,,,,,,,0,31,31,13,,,,,,,,,,4,1,0.766344328448,,,,,,PLC_L_D2S1,P9,60.0225584796,02,C,2015_Jan_23_1427,Y,
stim/posf.jpg,stim/negf.jpg,stim/1.jpg,stim/3.jpg,stim/latef.jpg,AB,2,4,,,,,,,,,0,32,32,17,,,,,,,,,,4,1,0.833047122025,,,,,,PLC_L_D2S1,P9,60.0225584796,02,C,2015_Jan_23_1427,Y,
stim/negf.jpg,stim/posf.jpg,stim/6.jpg,stim/2.jpg,stim/latef.jpg,EF,1,2,,,,,,,,,0,33,33,47,,,,,,,,,,4,0,0.966329432375,,,,,,PLC_L_D2S1,P9,60.0225584796,02,C,2015_Jan_23_1427,Y,
stim/posf.jpg,stim/negf.jpg,stim/5.jpg,stim/4.jpg,stim/latef.jpg,CD,2,4,,,,,,,,,0,34,34,31,,,,,,,,,,4,1,0.983003872889,,,,,,PLC_L_D2S1,P9,60.0225584796,02,C,2015_Jan_23_1427,Y,
stim/negf.jpg,stim/posf.jpg,stim/2.jpg,stim/6.jpg,stim/latef.jpg,EF,2,4,,,,,,,,,0,35,35,57,,,,,,,,,,4,1,0.816389574554,,,,,,PLC_L_D2S1,P9,60.0225584796,02,C,2015_Jan_23_1427,Y,
stim/posf.jpg,stim/negf.jpg,stim/1.jpg,stim/3.jpg,stim/latef.jpg,AB,2,4,,,,,,,,,0,36,36,14,,,,,,,,,,4,1,1.09961244347,,,,,,PLC_L_D2S1,P9,60.0225584796,02,C,2015_Jan_23_1427,Y,
stim/posf.jpg,stim/negf.jpg,stim/1.jpg,stim/3.jpg,stim/latef.jpg,AB,2,4,,,,,,,,,0,37,37,10,,,,,,,,,,4,1,0.883099712409,,,,,,PLC_L_D2S1,P9,60.0225584796,02,C,2015_Jan_23_1427,Y,
stim/negf.jpg,stim/posf.jpg,stim/2.jpg,stim/6.jpg,stim/latef.jpg,EF,2,4,,,,,,,,,0,38,38,56,,,,,,,,,,2,0,1.26617260708,,,,,,PLC_L_D2S1,P9,60.0225584796,02,C,2015_Jan_23_1427,Y,
stim/negf.jpg,stim/posf.jpg,stim/3.jpg,stim/1.jpg,stim/latef.jpg,AB,1,2,,,,,,,,,0,39,39,9,,,,,,,,,,2,1,1.1495841686,,,,,,PLC_L_D2S1,P9,60.0225584796,02,C,2015_Jan_23_1427,Y,
stim/posf.jpg,stim/negf.jpg,stim/4.jpg,stim/5.jpg,stim/latef.jpg,CD,1,2,,,,,,,,,0,40,40,24,,,,,,,,,,4,0,1.11627902542,,,,,,PLC_L_D2S1,P9,60.0225584796,02,C,2015_Jan_23_1427,Y,
stim/negf.jpg,stim/posf.jpg,stim/1.jpg,stim/3.jpg,stim/latef.jpg,AB,2,4,,,,,,,,,0,41,41,18,,,,,,,,,,2,0,1.3828674654,,,,,,PLC_L_D2S1,P9,60.0225584796,02,C,2015_Jan_23_1427,Y,
stim/posf.jpg,stim/negf.jpg,stim/6.jpg,stim/2.jpg,stim/latef.jpg,EF,1,2,,,,,,,,,0,42,42,41,,,,,,,,,,4,0,1.43284257396,,,,,,PLC_L_D2S1,P9,60.0225584796,02,C,2015_Jan_23_1427,Y,
stim/posf.jpg,stim/negf.jpg,stim/1.jpg,stim/3.jpg,stim/latef.jpg,AB,2,4,,,,,,,,,0,43,43,16,,,,,,,,,,2,0,1.11636504851,,,,,,PLC_L_D2S1,P9,60.0225584796,02,C,2015_Jan_23_1427,Y,
stim/posf.jpg,stim/negf.jpg,stim/6.jpg,stim/2.jpg,stim/latef.jpg,EF,1,2,,,,,,,,,0,44,44,44,,,,,,,,,,2,1,1.04966624286,,,,,,PLC_L_D2S1,P9,60.0225584796,02,C,2015_Jan_23_1427,Y,
stim/posf.jpg,stim/negf.jpg,stim/5.jpg,stim/4.jpg,stim/latef.jpg,CD,2,4,,,,,,,,,0,45,45,35,,,,,,,,,,4,1,1.08296897403,,,,,,PLC_L_D2S1,P9,60.0225584796,02,C,2015_Jan_23_1427,Y,
stim/posf.jpg,stim/negf.jpg,stim/6.jpg,stim/2.jpg,stim/latef.jpg,EF,1,2,,,,,,,,,0,46,46,40,,,,,,,,,,2,1,0.883016898306,,,,,,PLC_L_D2S1,P9,60.0225584796,02,C,2015_Jan_23_1427,Y,
stim/posf.jpg,stim/negf.jpg,stim/1.jpg,stim/3.jpg,stim/latef.jpg,AB,2,4,,,,,,,,,0,47,47,11,,,,,,,,,,2,0,0.983001400736,,,,,,PLC_L_D2S1,P9,60.0225584796,02,C,2015_Jan_23_1427,Y,
stim/posf.jpg,stim/negf.jpg,stim/3.jpg,stim/1.jpg,stim/latef.jpg,AB,1,2,,,,,,,,,0,48,48,4,,,,,,,,,,4,0,1.08299151213,,,,,,PLC_L_D2S1,P9,60.0225584796,02,C,2015_Jan_23_1427,Y,
stim/posf.jpg,stim/negf.jpg,stim/2.jpg,stim/6.jpg,stim/latef.jpg,EF,2,4,,,,,,,,,0,49,49,55,,,,,,,,,,4,1,0.866361086153,,,,,,PLC_L_D2S1,P9,60.0225584796,02,C,2015_Jan_23_1427,Y,
stim/posf.jpg,stim/negf.jpg,stim/2.jpg,stim/6.jpg,stim/latef.jpg,EF,2,4,,,,,,,,,0,50,50,50,,,,,,,,,,4,1,0.899799370684,,,,,,PLC_L_D2S1,P9,60.0225584796,02,C,2015_Jan_23_1427,Y,
stim/posf.jpg,stim/negf.jpg,stim/1.jpg,stim/3.jpg,stim/latef.jpg,AB,2,4,,,,,,,,,0,51,51,15,,,,,,,,,,4,1,0.966355531328,,,,,,PLC_L_D2S1,P9,60.0225584796,02,C,2015_Jan_23_1427,Y,
stim/posf.jpg,stim/negf.jpg,stim/2.jpg,stim/6.jpg,stim/latef.jpg,EF,2,4,,,,,,,,,0,52,52,51,,,,,,,,,,4,1,0.783012269786,,,,,,PLC_L_D2S1,P9,60.0225584796,02,C,2015_Jan_23_1427,Y,
stim/posf.jpg,stim/negf.jpg,stim/2.jpg,stim/6.jpg,stim/latef.jpg,EF,2,4,,,,,,,,,0,53,53,54,,,,,,,,,,4,1,0.749759805717,,,,,,PLC_L_D2S1,P9,60.0225584796,02,C,2015_Jan_23_1427,Y,
stim/posf.jpg,stim/negf.jpg,stim/4.jpg,stim/5.jpg,stim/latef.jpg,CD,1,2,,,,,,,,,0,54,54,20,,,,,,,,,,2,1,1.04965584899,,,,,,PLC_L_D2S1,P9,60.0225584796,02,C,2015_Jan_23_1427,Y,
stim/posf.jpg,stim/negf.jpg,stim/5.jpg,stim/4.jpg,stim/latef.jpg,CD,2,4,,,,,,,,,0,55,55,30,,,,,,,,,,4,1,0.966338590166,,,,,,PLC_L_D2S1,P9,60.0225584796,02,C,2015_Jan_23_1427,Y,
stim/posf.jpg,stim/negf.jpg,stim/6.jpg,stim/2.jpg,stim/latef.jpg,EF,1,2,,,,,,,,,0,56,56,45,,,,,,,,,,2,1,0.849708263441,,,,,,PLC_L_D2S1,P9,60.0225584796,02,C,2015_Jan_23_1427,Y,
stim/posf.jpg,stim/negf.jpg,stim/5.jpg,stim/4.jpg,stim/latef.jpg,CD,2,4,,,,,,,,,0,57,57,32,,,,,,,,,,4,1,0.749743105153,,,,,,PLC_L_D2S1,P9,60.0225584796,02,C,2015_Jan_23_1427,Y,
stim/negf.jpg,stim/posf.jpg,stim/3.jpg,stim/1.jpg,stim/latef.jpg,AB,1,2,,,,,,,,,0,58,58,8,,,,,,,,,,2,1,1.0496425529,,,,,,PLC_L_D2S1,P9,60.0225584796,02,C,2015_Jan_23_1427,Y,
stim/negf.jpg,stim/posf.jpg,stim/5.jpg,stim/4.jpg,stim/latef.jpg,CD,2,4,,,,,,,,,0,59,59,37,,,,,,,,,,4,1,1.29951305211,,,,,,PLC_L_D2S1,P9,60.0225584796,02,C,2015_Jan_23_1427,Y,
,,,,,,,,,,,,,,,,,,,,,,,,,,,,,,,,0.9984375,1.0,1,0,0,PLC_L_D2S1,P9,60.0225584796,02,C,2015_Jan_23_1427,Y,
stim/posf.jpg,stim/negf.jpg,stim/6.jpg,stim/2.jpg,stim/latef.jpg,EF,1,2,,,,,,,,,,,,,0,0,0,40,,,,,,2,1,0.982974610061,,,,,,PLC_L_D2S1,P9,60.0225584796,02,C,2015_Jan_23_1427,Y,
stim/posf.jpg,stim/negf.jpg,stim/3.jpg,stim/1.jpg,stim/latef.jpg,AB,1,2,,,,,,,,,,,,,0,1,1,3,,,,,,2,1,0.966344009654,,,,,,PLC_L_D2S1,P9,60.0225584796,02,C,2015_Jan_23_1427,Y,
stim/posf.jpg,stim/negf.jpg,stim/6.jpg,stim/2.jpg,stim/latef.jpg,EF,1,2,,,,,,,,,,,,,0,2,2,45,,,,,,2,1,0.866371287542,,,,,,PLC_L_D2S1,P9,60.0225584796,02,C,2015_Jan_23_1427,Y,
stim/negf.jpg,stim/posf.jpg,stim/1.jpg,stim/3.jpg,stim/latef.jpg,AB,2,4,,,,,,,,,,,,,0,3,3,19,,,,,,4,1,0.932863692515,,,,,,PLC_L_D2S1,P9,60.0225584796,02,C,2015_Jan_23_1427,Y,
stim/posf.jpg,stim/negf.jpg,stim/4.jpg,stim/5.jpg,stim/latef.jpg,CD,1,2,,,,,,,,,,,,,0,4,4,22,,,,,,2,1,0.966381801709,,,,,,PLC_L_D2S1,P9,60.0225584796,02,C,2015_Jan_23_1427,Y,
stim/negf.jpg,stim/posf.jpg,stim/4.jpg,stim/5.jpg,stim/latef.jpg,CD,1,2,,,,,,,,,,,,,0,5,5,27,,,,,,2,1,0.683101462766,,,,,,PLC_L_D2S1,P9,60.0225584796,02,C,2015_Jan_23_1427,Y,
stim/posf.jpg,stim/negf.jpg,stim/4.jpg,stim/5.jpg,stim/latef.jpg,CD,1,2,,,,,,,,,,,,,0,6,6,20,,,,,,4,0,0.949671620245,,,,,,PLC_L_D2S1,P9,60.0225584796,02,C,2015_Jan_23_1427,Y,
stim/negf.jpg,stim/posf.jpg,stim/6.jpg,stim/2.jpg,stim/latef.jpg,EF,1,2,,,,,,,,,,,,,0,7,7,49,,,,,,2,1,0.666456567783,,,,,,PLC_L_D2S1,P9,60.0225584796,02,C,2015_Jan_23_1427,Y,
stim/posf.jpg,stim/negf.jpg,stim/4.jpg,stim/5.jpg,stim/latef.jpg,CD,1,2,,,,,,,,,,,,,0,8,8,23,,,,,,2,1,1.03300039473,,,,,,PLC_L_D2S1,P9,60.0225584796,02,C,2015_Jan_23_1427,Y,
stim/posf.jpg,stim/negf.jpg,stim/4.jpg,stim/5.jpg,stim/latef.jpg,CD,1,2,,,,,,,,,,,,,0,9,9,25,,,,,,2,1,0.949713890445,,,,,,PLC_L_D2S1,P9,60.0225584796,02,C,2015_Jan_23_1427,Y,
stim/posf.jpg,stim/negf.jpg,stim/2.jpg,stim/6.jpg,stim/latef.jpg,EF,2,4,,,,,,,,,,,,,0,10,10,55,,,,,,2,0,0.966331209798,,,,,,PLC_L_D2S1,P9,60.0225584796,02,C,2015_Jan_23_1427,Y,
stim/negf.jpg,stim/posf.jpg,stim/5.jpg,stim/4.jpg,stim/latef.jpg,CD,2,4,,,,,,,,,,,,,0,11,11,39,,,,,,4,1,1.16626991425,,,,,,PLC_L_D2S1,P9,60.0225584796,02,C,2015_Jan_23_1427,Y,
stim/posf.jpg,stim/negf.jpg,stim/6.jpg,stim/2.jpg,stim/latef.jpg,EF,1,2,,,,,,,,,,,,,0,12,12,42,,,,,,2,1,0.949726341432,,,,,,PLC_L_D2S1,P9,60.0225584796,02,C,2015_Jan_23_1427,Y,
stim/negf.jpg,stim/posf.jpg,stim/5.jpg,stim/4.jpg,stim/latef.jpg,CD,2,4,,,,,,,,,,,,,0,13,13,38,,,,,,4,1,1.0663126476,,,,,,PLC_L_D2S1,P9,60.0225584796,02,C,2015_Jan_23_1427,Y,
stim/negf.jpg,stim/posf.jpg,stim/2.jpg,stim/6.jpg,stim/latef.jpg,EF,2,4,,,,,,,,,,,,,0,14,14,57,,,,,,4,1,1.08298734977,,,,,,PLC_L_D2S1,P9,60.0225584796,02,C,2015_Jan_23_1427,Y,
stim/posf.jpg,stim/negf.jpg,stim/2.jpg,stim/6.jpg,stim/latef.jpg,EF,2,4,,,,,,,,,,,,,0,15,15,51,,,,,,2,0,0.566446847592,,,,,,PLC_L_D2S1,P9,60.0225584796,02,C,2015_Jan_23_1427,Y,
stim/posf.jpg,stim/negf.jpg,stim/1.jpg,stim/3.jpg,stim/latef.jpg,AB,2,4,,,,,,,,,,,,,0,16,16,10,,,,,,4,1,0.849706642407,,,,,,PLC_L_D2S1,P9,60.0225584796,02,C,2015_Jan_23_1427,Y,
stim/negf.jpg,stim/posf.jpg,stim/3.jpg,stim/1.jpg,stim/latef.jpg,AB,1,2,,,,,,,,,,,,,0,17,17,9,,,,,,2,1,0.949659945189,,,,,,PLC_L_D2S1,P9,60.0225584796,02,C,2015_Jan_23_1427,Y,
stim/posf.jpg,stim/negf.jpg,stim/2.jpg,stim/6.jpg,stim/latef.jpg,EF,2,4,,,,,,,,,,,,,0,18,18,54,,,,,,4,1,0.833053365564,,,,,,PLC_L_D2S1,P9,60.0225584796,02,C,2015_Jan_23_1427,Y,
stim/negf.jpg,stim/posf.jpg,stim/4.jpg,stim/5.jpg,stim/latef.jpg,CD,1,2,,,,,,,,,,,,,0,19,19,29,,,,,,2,1,0.949671617238,,,,,,PLC_L_D2S1,P9,60.0225584796,02,C,2015_Jan_23_1427,Y,
stim/posf.jpg,stim/negf.jpg,stim/5.jpg,stim/4.jpg,stim/latef.jpg,CD,2,4,,,,,,,,,,,,,0,20,20,31,,,,,,2,0,0.966349474254,,,,,,PLC_L_D2S1,P9,60.0225584796,02,C,2015_Jan_23_1427,Y,
stim/posf.jpg,stim/negf.jpg,stim/5.jpg,stim/4.jpg,stim/latef.jpg,CD,2,4,,,,,,,,,,,,,0,21,21,34,,,,,,2,0,0.899693426014,,,,,,PLC_L_D2S1,P9,60.0225584796,02,C,2015_Jan_23_1427,Y,
stim/posf.jpg,stim/negf.jpg,stim/1.jpg,stim/3.jpg,stim/latef.jpg,AB,2,4,,,,,,,,,,,,,0,22,22,12,,,,,,4,1,0.866383179137,,,,,,PLC_L_D2S1,P9,60.0225584796,02,C,2015_Jan_23_1427,Y,
stim/posf.jpg,stim/negf.jpg,stim/6.jpg,stim/2.jpg,stim/latef.jpg,EF,1,2,,,,,,,,,,,,,0,23,23,43,,,,,,4,0,0.849701361263,,,,,,PLC_L_D2S1,P9,60.0225584796,02,C,2015_Jan_23_1427,Y,
stim/posf.jpg,stim/negf.jpg,stim/5.jpg,stim/4.jpg,stim/latef.jpg,CD,2,4,,,,,,,,,,,,,0,24,24,30,,,,,,4,1,0.96626487972,,,,,,PLC_L_D2S1,P9,60.0225584796,02,C,2015_Jan_23_1427,Y,
stim/posf.jpg,stim/negf.jpg,stim/2.jpg,stim/6.jpg,stim/latef.jpg,EF,2,4,,,,,,,,,,,,,0,25,25,53,,,,,,4,1,1.03297706868,,,,,,PLC_L_D2S1,P9,60.0225584796,02,C,2015_Jan_23_1427,Y,
stim/posf.jpg,stim/negf.jpg,stim/4.jpg,stim/5.jpg,stim/latef.jpg,CD,1,2,,,,,,,,,,,,,0,26,26,26,,,,,,2,1,0.966389699364,,,,,,PLC_L_D2S1,P9,60.0225584796,02,C,2015_Jan_23_1427,Y,
stim/negf.jpg,stim/posf.jpg,stim/5.jpg,stim/4.jpg,stim/latef.jpg,CD,2,4,,,,,,,,,,,,,0,27,27,37,,,,,,4,1,0.666455656515,,,,,,PLC_L_D2S1,P9,60.0225584796,02,C,2015_Jan_23_1427,Y,
stim/negf.jpg,stim/posf.jpg,stim/3.jpg,stim/1.jpg,stim/latef.jpg,AB,1,2,,,,,,,,,,,,,0,28,28,8,,,,,,2,1,0.966358286184,,,,,,PLC_L_D2S1,P9,60.0225584796,02,C,2015_Jan_23_1427,Y,
stim/posf.jpg,stim/negf.jpg,stim/6.jpg,stim/2.jpg,stim/latef.jpg,EF,1,2,,,,,,,,,,,,,0,29,29,44,,,,,,2,1,0.949664940621,,,,,,PLC_L_D2S1,P9,60.0225584796,02,C,2015_Jan_23_1427,Y,
stim/negf.jpg,stim/posf.jpg,stim/6.jpg,stim/2.jpg,stim/latef.jpg,EF,1,2,,,,,,,,,,,,,0,30,30,47,,,,,,2,1,0.899727807581,,,,,,PLC_L_D2S1,P9,60.0225584796,02,C,2015_Jan_23_1427,Y,
stim/posf.jpg,stim/negf.jpg,stim/3.jpg,stim/1.jpg,stim/latef.jpg,AB,1,2,,,,,,,,,,,,,0,31,31,7,,,,,,2,1,1.11628135623,,,,,,PLC_L_D2S1,P9,60.0225584796,02,C,2015_Jan_23_1427,Y,
stim/posf.jpg,stim/negf.jpg,stim/4.jpg,stim/5.jpg,stim/latef.jpg,CD,1,2,,,,,,,,,,,,,0,32,32,24,,,,,,4,0,1.09958652196,,,,,,PLC_L_D2S1,P9,60.0225584796,02,C,2015_Jan_23_1427,Y,
stim/posf.jpg,stim/negf.jpg,stim/1.jpg,stim/3.jpg,stim/latef.jpg,AB,2,4,,,,,,,,,,,,,0,33,33,11,,,,,,4,1,0.833037615365,,,,,,PLC_L_D2S1,P9,60.0225584796,02,C,2015_Jan_23_1427,Y,
stim/negf.jpg,stim/posf.jpg,stim/2.jpg,stim/6.jpg,stim/latef.jpg,EF,2,4,,,,,,,,,,,,,0,34,34,56,,,,,,4,1,0.899700427439,,,,,,PLC_L_D2S1,P9,60.0225584796,02,C,2015_Jan_23_1427,Y,
stim/negf.jpg,stim/posf.jpg,stim/2.jpg,stim/6.jpg,stim/latef.jpg,EF,2,4,,,,,,,,,,,,,0,35,35,59,,,,,,2,0,0.849706516092,,,,,,PLC_L_D2S1,P9,60.0225584796,02,C,2015_Jan_23_1427,Y,
stim/posf.jpg,stim/negf.jpg,stim/6.jpg,stim/2.jpg,stim/latef.jpg,EF,1,2,,,,,,,,,,,,,0,36,36,41,,,,,,4,0,0.849702170276,,,,,,PLC_L_D2S1,P9,60.0225584796,02,C,2015_Jan_23_1427,Y,
stim/posf.jpg,stim/negf.jpg,stim/3.jpg,stim/1.jpg,stim/latef.jpg,AB,1,2,,,,,,,,,,,,,0,37,37,0,,,,,,2,1,0.799756005759,,,,,,PLC_L_D2S1,P9,60.0225584796,02,C,2015_Jan_23_1427,Y,
stim/posf.jpg,stim/negf.jpg,stim/5.jpg,stim/4.jpg,stim/latef.jpg,CD,2,4,,,,,,,,,,,,,0,38,38,36,,,,,,2,0,0.933028583888,,,,,,PLC_L_D2S1,P9,60.0225584796,02,C,2015_Jan_23_1427,Y,
stim/posf.jpg,stim/negf.jpg,stim/1.jpg,stim/3.jpg,stim/latef.jpg,AB,2,4,,,,,,,,,,,,,0,39,39,16,,,,,,4,1,0.799717206197,,,,,,PLC_L_D2S1,P9,60.0225584796,02,C,2015_Jan_23_1427,Y,
stim/negf.jpg,stim/posf.jpg,stim/4.jpg,stim/5.jpg,stim/latef.jpg,CD,1,2,,,,,,,,,,,,,0,40,40,28,,,,,,2,1,0.833036463499,,,,,,PLC_L_D2S1,P9,60.0225584796,02,C,2015_Jan_23_1427,Y,
stim/posf.jpg,stim/negf.jpg,stim/4.jpg,stim/5.jpg,stim/latef.jpg,CD,1,2,,,,,,,,,,,,,0,41,41,21,,,,,,4,0,0.699760706458,,,,,,PLC_L_D2S1,P9,60.0225584796,02,C,2015_Jan_23_1427,Y,
stim/posf.jpg,stim/negf.jpg,stim/1.jpg,stim/3.jpg,stim/latef.jpg,AB,2,4,,,,,,,,,,,,,0,42,42,17,,,,,,4,1,0.683099664289,,,,,,PLC_L_D2S1,P9,60.0225584796,02,C,2015_Jan_23_1427,Y,
stim/posf.jpg,stim/negf.jpg,stim/3.jpg,stim/1.jpg,stim/latef.jpg,AB,1,2,,,,,,,,,,,,,0,43,43,5,,,,,,2,1,0.799738839035,,,,,,PLC_L_D2S1,P9,60.0225584796,02,C,2015_Jan_23_1427,Y,
stim/posf.jpg,stim/negf.jpg,stim/3.jpg,stim/1.jpg,stim/latef.jpg,AB,1,2,,,,,,,,,,,,,0,44,44,6,,,,,,2,1,0.799728138405,,,,,,PLC_L_D2S1,P9,60.0225584796,02,C,2015_Jan_23_1427,Y,
stim/posf.jpg,stim/negf.jpg,stim/5.jpg,stim/4.jpg,stim/latef.jpg,CD,2,4,,,,,,,,,,,,,0,45,45,32,,,,,,2,0,0.883075944256,,,,,,PLC_L_D2S1,P9,60.0225584796,02,C,2015_Jan_23_1427,Y,
stim/posf.jpg,stim/negf.jpg,stim/1.jpg,stim/3.jpg,stim/latef.jpg,AB,2,4,,,,,,,,,,,,,0,46,46,15,,,,,,4,1,0.766421419307,,,,,,PLC_L_D2S1,P9,60.0225584796,02,C,2015_Jan_23_1427,Y,
stim/negf.jpg,stim/posf.jpg,stim/6.jpg,stim/2.jpg,stim/latef.jpg,EF,1,2,,,,,,,,,,,,,0,47,47,46,,,,,,4,0,1.48283571839,,,,,,PLC_L_D2S1,P9,60.0225584796,02,C,2015_Jan_23_1427,Y,
stim/posf.jpg,stim/negf.jpg,stim/5.jpg,stim/4.jpg,stim/latef.jpg,CD,2,4,,,,,,,,,,,,,0,48,48,33,,,,,,4,1,0.799713413759,,,,,,PLC_L_D2S1,P9,60.0225584796,02,C,2015_Jan_23_1427,Y,
stim/negf.jpg,stim/posf.jpg,stim/1.jpg,stim/3.jpg,stim/latef.jpg,AB,2,4,,,,,,,,,,,,,0,49,49,18,,,,,,4,1,0.899715272384,,,,,,PLC_L_D2S1,P9,60.0225584796,02,C,2015_Jan_23_1427,Y,
stim/posf.jpg,stim/negf.jpg,stim/3.jpg,stim/1.jpg,stim/latef.jpg,AB,1,2,,,,,,,,,,,,,0,50,50,2,,,,,,2,1,0.716430037255,,,,,,PLC_L_D2S1,P9,60.0225584796,02,C,2015_Jan_23_1427,Y,
stim/posf.jpg,stim/negf.jpg,stim/5.jpg,stim/4.jpg,stim/latef.jpg,CD,2,4,,,,,,,,,,,,,0,51,51,35,,,,,,4,1,1.01633204738,,,,,,PLC_L_D2S1,P9,60.0225584796,02,C,2015_Jan_23_1427,Y,
stim/posf.jpg,stim/negf.jpg,stim/1.jpg,stim/3.jpg,stim/latef.jpg,AB,2,4,,,,,,,,,,,,,0,52,52,14,,,,,,4,1,0.716360699691,,,,,,PLC_L_D2S1,P9,60.0225584796,02,C,2015_Jan_23_1427,Y,
stim/negf.jpg,stim/posf.jpg,stim/6.jpg,stim/2.jpg,stim/latef.jpg,EF,1,2,,,,,,,,,,,,,0,53,53,48,,,,,,4,0,0.733097046274,,,,,,PLC_L_D2S1,P9,60.0225584796,02,C,2015_Jan_23_1427,Y,
stim/posf.jpg,stim/negf.jpg,stim/1.jpg,stim/3.jpg,stim/latef.jpg,AB,2,4,,,,,,,,,,,,,0,54,54,13,,,,,,4,1,0.749742852524,,,,,,PLC_L_D2S1,P9,60.0225584796,02,C,2015_Jan_23_1427,Y,
stim/posf.jpg,stim/negf.jpg,stim/2.jpg,stim/6.jpg,stim/latef.jpg,EF,2,4,,,,,,,,,,,,,0,55,55,50,,,,,,2,0,1.03298930012,,,,,,PLC_L_D2S1,P9,60.0225584796,02,C,2015_Jan_23_1427,Y,
stim/negf.jpg,stim/posf.jpg,stim/2.jpg,stim/6.jpg,stim/latef.jpg,EF,2,4,,,,,,,,,,,,,0,56,56,58,,,,,,4,1,0.999612257005,,,,,,PLC_L_D2S1,P9,60.0225584796,02,C,2015_Jan_23_1427,Y,
stim/posf.jpg,stim/negf.jpg,stim/3.jpg,stim/1.jpg,stim/latef.jpg,AB,1,2,,,,,,,,,,,,,0,57,57,4,,,,,,2,1,0.74976542069,,,,,,PLC_L_D2S1,P9,60.0225584796,02,C,2015_Jan_23_1427,Y,
stim/posf.jpg,stim/negf.jpg,stim/3.jpg,stim/1.jpg,stim/latef.jpg,AB,1,2,,,,,,,,,,,,,0,58,58,1,,,,,,2,1,0.76644181607,,,,,,PLC_L_D2S1,P9,60.0225584796,02,C,2015_Jan_23_1427,Y,
stim/posf.jpg,stim/negf.jpg,stim/2.jpg,stim/6.jpg,stim/latef.jpg,EF,2,4,,,,,,,,,,,,,0,59,59,52,,,,,,2,0,0.832925845197,,,,,,PLC_L_D2S1,P9,60.0225584796,02,C,2015_Jan_23_1427,Y,
