fb_corr,fb_incorr,symbol2,symbol1,fb_late,pair,position,correct,block_01.thisRepN,block_01.thisTrialN,block_01.thisN,block_01.thisIndex,block_02.thisRepN,block_02.thisTrialN,block_02.thisN,block_02.thisIndex,block_03.thisRepN,block_03.thisTrialN,block_03.thisN,block_03.thisIndex,block_04.thisRepN,block_04.thisTrialN,block_04.thisN,block_04.thisIndex,mouse.x,mouse.y,mouse.leftButton,mouse.midButton,mouse.rightButton,buttonBox_2.keys,buttonBox_2.corr,buttonBox_2.rt,mouse_2.x,mouse_2.y,mouse_2.leftButton,mouse_2.midButton,mouse_2.rightButton,expName,Participant,frameRate,SessionNumber,Version,date,Group,
,,,,,,,,,,,,,,,,,,,,,,,,0.9984375,1.0,1,0,0,,,,,,,,,PLC_L_D1S1,P10,60.016273403,01,A,2015_Jan_28_1442,X,
stim/posf.jpg,stim/negf.jpg,stim/3.jpg,stim/2.jpg,stim/latef.jpg,CD,1,2,0,0,0,23,,,,,,,,,,,,,,,,,,4,0,0.766456676266,,,,,,PLC_L_D1S1,P10,60.016273403,01,A,2015_Jan_28_1442,X,
stim/posf.jpg,stim/negf.jpg,stim/1.jpg,stim/6.jpg,stim/latef.jpg,AB,2,4,0,1,1,10,,,,,,,,,,,,,,,,,,2,0,0.982991090293,,,,,,PLC_L_D1S1,P10,60.016273403,01,A,2015_Jan_28_1442,X,
stim/posf.jpg,stim/negf.jpg,stim/1.jpg,stim/6.jpg,stim/latef.jpg,AB,2,4,0,2,2,14,,,,,,,,,,,,,,,,,,2,0,0.78305025075,,,,,,PLC_L_D1S1,P10,60.016273403,01,A,2015_Jan_28_1442,X,
stim/negf.jpg,stim/posf.jpg,stim/2.jpg,stim/3.jpg,stim/latef.jpg,CD,2,4,0,3,3,38,,,,,,,,,,,,,,,,,,4,1,0.966410141277,,,,,,PLC_L_D1S1,P10,60.016273403,01,A,2015_Jan_28_1442,X,
stim/negf.jpg,stim/posf.jpg,stim/2.jpg,stim/3.jpg,stim/latef.jpg,CD,2,4,0,4,4,39,,,,,,,,,,,,,,,,,,4,1,1.21628953467,,,,,,PLC_L_D1S1,P10,60.016273403,01,A,2015_Jan_28_1442,X,
stim/posf.jpg,stim/negf.jpg,stim/6.jpg,stim/1.jpg,stim/latef.jpg,AB,1,2,0,5,5,0,,,,,,,,,,,,,,,,,,4,0,0.933063748393,,,,,,PLC_L_D1S1,P10,60.016273403,01,A,2015_Jan_28_1442,X,
stim/posf.jpg,stim/negf.jpg,stim/3.jpg,stim/2.jpg,stim/latef.jpg,CD,1,2,0,6,6,25,,,,,,,,,,,,,,,,,,4,0,1.09970733152,,,,,,PLC_L_D1S1,P10,60.016273403,01,A,2015_Jan_28_1442,X,
stim/posf.jpg,stim/negf.jpg,stim/4.jpg,stim/5.jpg,stim/latef.jpg,EF,1,2,0,7,7,40,,,,,,,,,,,,,,,,,,4,0,0.916347468064,,,,,,PLC_L_D1S1,P10,60.016273403,01,A,2015_Jan_28_1442,X,
stim/posf.jpg,stim/negf.jpg,stim/3.jpg,stim/2.jpg,stim/latef.jpg,CD,1,2,0,8,8,21,,,,,,,,,,,,,,,,,,4,0,0.916386604612,,,,,,PLC_L_D1S1,P10,60.016273403,01,A,2015_Jan_28_1442,X,
stim/posf.jpg,stim/negf.jpg,stim/4.jpg,stim/5.jpg,stim/latef.jpg,EF,1,2,0,9,9,44,,,,,,,,,,,,,,,,,,2,1,1.13295155074,,,,,,PLC_L_D1S1,P10,60.016273403,01,A,2015_Jan_28_1442,X,
stim/posf.jpg,stim/negf.jpg,stim/6.jpg,stim/1.jpg,stim/latef.jpg,AB,1,2,0,10,10,1,,,,,,,,,,,,,,,,,,2,1,1.48283128999,,,,,,PLC_L_D1S1,P10,60.016273403,01,A,2015_Jan_28_1442,X,
stim/posf.jpg,stim/negf.jpg,stim/1.jpg,stim/6.jpg,stim/latef.jpg,AB,2,4,0,11,11,16,,,,,,,,,,,,,,,,,,4,1,1.11628952564,,,,,,PLC_L_D1S1,P10,60.016273403,01,A,2015_Jan_28_1442,X,
stim/posf.jpg,stim/negf.jpg,stim/1.jpg,stim/6.jpg,stim/latef.jpg,AB,2,4,0,12,12,17,,,,,,,,,,,,,,,,,,4,1,0.983016957767,,,,,,PLC_L_D1S1,P10,60.016273403,01,A,2015_Jan_28_1442,X,
stim/negf.jpg,stim/posf.jpg,stim/5.jpg,stim/4.jpg,stim/latef.jpg,EF,2,4,0,13,13,57,,,,,,,,,,,,,,,,,,4,1,1.31623291554,,,,,,PLC_L_D1S1,P10,60.016273403,01,A,2015_Jan_28_1442,X,
stim/posf.jpg,stim/negf.jpg,stim/5.jpg,stim/4.jpg,stim/latef.jpg,EF,2,4,0,14,14,53,,,,,,,,,,,,,,,,,,2,0,1.49951432245,,,,,,PLC_L_D1S1,P10,60.016273403,01,A,2015_Jan_28_1442,X,
stim/negf.jpg,stim/posf.jpg,stim/6.jpg,stim/1.jpg,stim/latef.jpg,AB,1,2,0,15,15,8,,,,,,,,,,,,,,,,,,2,1,0.982999282712,,,,,,PLC_L_D1S1,P10,60.016273403,01,A,2015_Jan_28_1442,X,
stim/posf.jpg,stim/negf.jpg,stim/4.jpg,stim/5.jpg,stim/latef.jpg,EF,1,2,0,16,16,41,,,,,,,,,,,,,,,,,,2,1,1.49951915249,,,,,,PLC_L_D1S1,P10,60.016273403,01,A,2015_Jan_28_1442,X,
stim/negf.jpg,stim/posf.jpg,stim/5.jpg,stim/4.jpg,stim/latef.jpg,EF,2,4,0,17,17,58,,,,,,,,,,,,,,,,,,4,1,1.03300075939,,,,,,PLC_L_D1S1,P10,60.016273403,01,A,2015_Jan_28_1442,X,
stim/negf.jpg,stim/posf.jpg,stim/4.jpg,stim/5.jpg,stim/latef.jpg,EF,1,2,0,18,18,47,,,,,,,,,,,,,,,,,,2,1,1.26624939361,,,,,,PLC_L_D1S1,P10,60.016273403,01,A,2015_Jan_28_1442,X,
stim/negf.jpg,stim/posf.jpg,stim/4.jpg,stim/5.jpg,stim/latef.jpg,EF,1,2,0,19,19,49,,,,,,,,,,,,,,,,,,4,0,0.966361822844,,,,,,PLC_L_D1S1,P10,60.016273403,01,A,2015_Jan_28_1442,X,
stim/posf.jpg,stim/negf.jpg,stim/6.jpg,stim/1.jpg,stim/latef.jpg,AB,1,2,0,20,20,4,,,,,,,,,,,,,,,,,,2,1,1.23292208029,,,,,,PLC_L_D1S1,P10,60.016273403,01,A,2015_Jan_28_1442,X,
stim/posf.jpg,stim/negf.jpg,stim/4.jpg,stim/5.jpg,stim/latef.jpg,EF,1,2,0,21,21,42,,,,,,,,,,,,,,,,,,4,0,0.933030705032,,,,,,PLC_L_D1S1,P10,60.016273403,01,A,2015_Jan_28_1442,X,
stim/posf.jpg,stim/negf.jpg,stim/4.jpg,stim/5.jpg,stim/latef.jpg,EF,1,2,0,22,22,43,,,,,,,,,,,,,,,,,,4,0,0.799743653055,,,,,,PLC_L_D1S1,P10,60.016273403,01,A,2015_Jan_28_1442,X,
stim/negf.jpg,stim/posf.jpg,stim/4.jpg,stim/5.jpg,stim/latef.jpg,EF,1,2,0,23,23,48,,,,,,,,,,,,,,,,,,4,0,0.566386303862,,,,,,PLC_L_D1S1,P10,60.016273403,01,A,2015_Jan_28_1442,X,
stim/negf.jpg,stim/posf.jpg,stim/6.jpg,stim/1.jpg,stim/latef.jpg,AB,1,2,0,24,24,9,,,,,,,,,,,,,,,,,,2,1,0.983007887159,,,,,,PLC_L_D1S1,P10,60.016273403,01,A,2015_Jan_28_1442,X,
stim/posf.jpg,stim/negf.jpg,stim/5.jpg,stim/4.jpg,stim/latef.jpg,EF,2,4,0,25,25,54,,,,,,,,,,,,,,,,,,2,0,1.34963587341,,,,,,PLC_L_D1S1,P10,60.016273403,01,A,2015_Jan_28_1442,X,
stim/posf.jpg,stim/negf.jpg,stim/5.jpg,stim/4.jpg,stim/latef.jpg,EF,2,4,0,26,26,50,,,,,,,,,,,,,,,,,,2,0,0.866388066255,,,,,,PLC_L_D1S1,P10,60.016273403,01,A,2015_Jan_28_1442,X,
stim/posf.jpg,stim/negf.jpg,stim/1.jpg,stim/6.jpg,stim/latef.jpg,AB,2,4,0,27,27,15,,,,,,,,,,,,,,,,,,4,1,0.966327026113,,,,,,PLC_L_D1S1,P10,60.016273403,01,A,2015_Jan_28_1442,X,
stim/posf.jpg,stim/negf.jpg,stim/2.jpg,stim/3.jpg,stim/latef.jpg,CD,2,4,0,28,28,31,,,,,,,,,,,,,,,,,,2,0,1.39953313434,,,,,,PLC_L_D1S1,P10,60.016273403,01,A,2015_Jan_28_1442,X,
stim/posf.jpg,stim/negf.jpg,stim/3.jpg,stim/2.jpg,stim/latef.jpg,CD,1,2,0,29,29,26,,,,,,,,,,,,,,,,,,4,0,1.18295125601,,,,,,PLC_L_D1S1,P10,60.016273403,01,A,2015_Jan_28_1442,X,
stim/posf.jpg,stim/negf.jpg,stim/5.jpg,stim/4.jpg,stim/latef.jpg,EF,2,4,0,30,30,52,,,,,,,,,,,,,,,,,,2,0,1.63275698679,,,,,,PLC_L_D1S1,P10,60.016273403,01,A,2015_Jan_28_1442,X,
stim/posf.jpg,stim/negf.jpg,stim/1.jpg,stim/6.jpg,stim/latef.jpg,AB,2,4,0,31,31,12,,,,,,,,,,,,,,,,,,4,1,0.916313525462,,,,,,PLC_L_D1S1,P10,60.016273403,01,A,2015_Jan_28_1442,X,
stim/posf.jpg,stim/negf.jpg,stim/2.jpg,stim/3.jpg,stim/latef.jpg,CD,2,4,0,32,32,33,,,,,,,,,,,,,,,,,,2,0,0.966331606529,,,,,,PLC_L_D1S1,P10,60.016273403,01,A,2015_Jan_28_1442,X,
stim/negf.jpg,stim/posf.jpg,stim/2.jpg,stim/3.jpg,stim/latef.jpg,CD,2,4,0,33,33,37,,,,,,,,,,,,,,,,,,4,1,0.74976935211,,,,,,PLC_L_D1S1,P10,60.016273403,01,A,2015_Jan_28_1442,X,
stim/posf.jpg,stim/negf.jpg,stim/2.jpg,stim/3.jpg,stim/latef.jpg,CD,2,4,0,34,34,36,,,,,,,,,,,,,,,,,,4,1,0.566464270193,,,,,,PLC_L_D1S1,P10,60.016273403,01,A,2015_Jan_28_1442,X,
stim/posf.jpg,stim/negf.jpg,stim/1.jpg,stim/6.jpg,stim/latef.jpg,AB,2,4,0,35,35,11,,,,,,,,,,,,,,,,,,4,1,1.06632087578,,,,,,PLC_L_D1S1,P10,60.016273403,01,A,2015_Jan_28_1442,X,
stim/negf.jpg,stim/posf.jpg,stim/5.jpg,stim/4.jpg,stim/latef.jpg,EF,2,4,0,36,36,56,,,,,,,,,,,,,,,,,,4,1,1.43294258239,,,,,,PLC_L_D1S1,P10,60.016273403,01,A,2015_Jan_28_1442,X,
stim/posf.jpg,stim/negf.jpg,stim/2.jpg,stim/3.jpg,stim/latef.jpg,CD,2,4,0,37,37,34,,,,,,,,,,,,,,,,,,4,1,1.09971009842,,,,,,PLC_L_D1S1,P10,60.016273403,01,A,2015_Jan_28_1442,X,
stim/posf.jpg,stim/negf.jpg,stim/3.jpg,stim/2.jpg,stim/latef.jpg,CD,1,2,0,38,38,20,,,,,,,,,,,,,,,,,,2,1,1.16629259329,,,,,,PLC_L_D1S1,P10,60.016273403,01,A,2015_Jan_28_1442,X,
stim/posf.jpg,stim/negf.jpg,stim/5.jpg,stim/4.jpg,stim/latef.jpg,EF,2,4,0,39,39,51,,,,,,,,,,,,,,,,,,2,0,0.916371576154,,,,,,PLC_L_D1S1,P10,60.016273403,01,A,2015_Jan_28_1442,X,
stim/posf.jpg,stim/negf.jpg,stim/6.jpg,stim/1.jpg,stim/latef.jpg,AB,1,2,0,40,40,3,,,,,,,,,,,,,,,,,,2,1,0.899706348073,,,,,,PLC_L_D1S1,P10,60.016273403,01,A,2015_Jan_28_1442,X,
stim/posf.jpg,stim/negf.jpg,stim/6.jpg,stim/1.jpg,stim/latef.jpg,AB,1,2,0,41,41,5,,,,,,,,,,,,,,,,,,2,1,1.199559477,,,,,,PLC_L_D1S1,P10,60.016273403,01,A,2015_Jan_28_1442,X,
stim/posf.jpg,stim/negf.jpg,stim/6.jpg,stim/1.jpg,stim/latef.jpg,AB,1,2,0,42,42,2,,,,,,,,,,,,,,,,,,2,1,0.816388015128,,,,,,PLC_L_D1S1,P10,60.016273403,01,A,2015_Jan_28_1442,X,
stim/posf.jpg,stim/negf.jpg,stim/2.jpg,stim/3.jpg,stim/latef.jpg,CD,2,4,0,43,43,32,,,,,,,,,,,,,,,,,,None,0,,,,,,,PLC_L_D1S1,P10,60.016273403,01,A,2015_Jan_28_1442,X,
stim/negf.jpg,stim/posf.jpg,stim/1.jpg,stim/6.jpg,stim/latef.jpg,AB,2,4,0,44,44,18,,,,,,,,,,,,,,,,,,4,1,0.816399717295,,,,,,PLC_L_D1S1,P10,60.016273403,01,A,2015_Jan_28_1442,X,
stim/negf.jpg,stim/posf.jpg,stim/5.jpg,stim/4.jpg,stim/latef.jpg,EF,2,4,0,45,45,59,,,,,,,,,,,,,,,,,,2,0,0.933065246126,,,,,,PLC_L_D1S1,P10,60.016273403,01,A,2015_Jan_28_1442,X,
stim/posf.jpg,stim/negf.jpg,stim/3.jpg,stim/2.jpg,stim/latef.jpg,CD,1,2,0,46,46,22,,,,,,,,,,,,,,,,,,2,1,1.0996290855,,,,,,PLC_L_D1S1,P10,60.016273403,01,A,2015_Jan_28_1442,X,
stim/posf.jpg,stim/negf.jpg,stim/5.jpg,stim/4.jpg,stim/latef.jpg,EF,2,4,0,47,47,55,,,,,,,,,,,,,,,,,,2,0,0.766469202487,,,,,,PLC_L_D1S1,P10,60.016273403,01,A,2015_Jan_28_1442,X,
stim/posf.jpg,stim/negf.jpg,stim/3.jpg,stim/2.jpg,stim/latef.jpg,CD,1,2,0,48,48,24,,,,,,,,,,,,,,,,,,2,1,0.849687644454,,,,,,PLC_L_D1S1,P10,60.016273403,01,A,2015_Jan_28_1442,X,
stim/negf.jpg,stim/posf.jpg,stim/3.jpg,stim/2.jpg,stim/latef.jpg,CD,1,2,0,49,49,28,,,,,,,,,,,,,,,,,,2,1,0.583208899181,,,,,,PLC_L_D1S1,P10,60.016273403,01,A,2015_Jan_28_1442,X,
stim/negf.jpg,stim/posf.jpg,stim/4.jpg,stim/5.jpg,stim/latef.jpg,EF,1,2,0,50,50,46,,,,,,,,,,,,,,,,,,4,0,1.1663082834,,,,,,PLC_L_D1S1,P10,60.016273403,01,A,2015_Jan_28_1442,X,
stim/posf.jpg,stim/negf.jpg,stim/6.jpg,stim/1.jpg,stim/latef.jpg,AB,1,2,0,51,51,6,,,,,,,,,,,,,,,,,,2,1,0.883096018827,,,,,,PLC_L_D1S1,P10,60.016273403,01,A,2015_Jan_28_1442,X,
stim/negf.jpg,stim/posf.jpg,stim/3.jpg,stim/2.jpg,stim/latef.jpg,CD,1,2,0,52,52,29,,,,,,,,,,,,,,,,,,2,1,1.36622930655,,,,,,PLC_L_D1S1,P10,60.016273403,01,A,2015_Jan_28_1442,X,
stim/negf.jpg,stim/posf.jpg,stim/3.jpg,stim/2.jpg,stim/latef.jpg,CD,1,2,0,53,53,27,,,,,,,,,,,,,,,,,,2,1,0.51654769513,,,,,,PLC_L_D1S1,P10,60.016273403,01,A,2015_Jan_28_1442,X,
stim/posf.jpg,stim/negf.jpg,stim/4.jpg,stim/5.jpg,stim/latef.jpg,EF,1,2,0,54,54,45,,,,,,,,,,,,,,,,,,4,0,0.849721767506,,,,,,PLC_L_D1S1,P10,60.016273403,01,A,2015_Jan_28_1442,X,
stim/posf.jpg,stim/negf.jpg,stim/2.jpg,stim/3.jpg,stim/latef.jpg,CD,2,4,0,55,55,35,,,,,,,,,,,,,,,,,,4,1,1.5994691288,,,,,,PLC_L_D1S1,P10,60.016273403,01,A,2015_Jan_28_1442,X,
stim/posf.jpg,stim/negf.jpg,stim/2.jpg,stim/3.jpg,stim/latef.jpg,CD,2,4,0,56,56,30,,,,,,,,,,,,,,,,,,4,1,0.633174839287,,,,,,PLC_L_D1S1,P10,60.016273403,01,A,2015_Jan_28_1442,X,
stim/posf.jpg,stim/negf.jpg,stim/6.jpg,stim/1.jpg,stim/latef.jpg,AB,1,2,0,57,57,7,,,,,,,,,,,,,,,,,,2,1,0.81639618048,,,,,,PLC_L_D1S1,P10,60.016273403,01,A,2015_Jan_28_1442,X,
stim/negf.jpg,stim/posf.jpg,stim/1.jpg,stim/6.jpg,stim/latef.jpg,AB,2,4,0,58,58,19,,,,,,,,,,,,,,,,,,4,1,1.01634181397,,,,,,PLC_L_D1S1,P10,60.016273403,01,A,2015_Jan_28_1442,X,
stim/posf.jpg,stim/negf.jpg,stim/1.jpg,stim/6.jpg,stim/latef.jpg,AB,2,4,0,59,59,13,,,,,,,,,,,,,,,,,,4,1,0.683097483478,,,,,,PLC_L_D1S1,P10,60.016273403,01,A,2015_Jan_28_1442,X,
,,,,,,,,,,,,,,,,,,,,,,,,,,,,,,,,0.990625,1.0,1,0,0,PLC_L_D1S1,P10,60.016273403,01,A,2015_Jan_28_1442,X,
stim/negf.jpg,stim/posf.jpg,stim/3.jpg,stim/2.jpg,stim/latef.jpg,CD,1,2,,,,,0,0,0,28,,,,,,,,,,,,,,2,1,0.749788461741,,,,,,PLC_L_D1S1,P10,60.016273403,01,A,2015_Jan_28_1442,X,
stim/posf.jpg,stim/negf.jpg,stim/1.jpg,stim/6.jpg,stim/latef.jpg,AB,2,4,,,,,0,1,1,10,,,,,,,,,,,,,,4,1,0.816401726303,,,,,,PLC_L_D1S1,P10,60.016273403,01,A,2015_Jan_28_1442,X,
stim/negf.jpg,stim/posf.jpg,stim/2.jpg,stim/3.jpg,stim/latef.jpg,CD,2,4,,,,,0,2,2,39,,,,,,,,,,,,,,4,1,0.48316827693,,,,,,PLC_L_D1S1,P10,60.016273403,01,A,2015_Jan_28_1442,X,
stim/posf.jpg,stim/negf.jpg,stim/1.jpg,stim/6.jpg,stim/latef.jpg,AB,2,4,,,,,0,3,3,16,,,,,,,,,,,,,,4,1,0.866443094413,,,,,,PLC_L_D1S1,P10,60.016273403,01,A,2015_Jan_28_1442,X,
stim/posf.jpg,stim/negf.jpg,stim/4.jpg,stim/5.jpg,stim/latef.jpg,EF,1,2,,,,,0,4,4,40,,,,,,,,,,,,,,4,0,0.733103937564,,,,,,PLC_L_D1S1,P10,60.016273403,01,A,2015_Jan_28_1442,X,
stim/negf.jpg,stim/posf.jpg,stim/3.jpg,stim/2.jpg,stim/latef.jpg,CD,1,2,,,,,0,5,5,27,,,,,,,,,,,,,,2,1,0.783083609898,,,,,,PLC_L_D1S1,P10,60.016273403,01,A,2015_Jan_28_1442,X,
stim/posf.jpg,stim/negf.jpg,stim/5.jpg,stim/4.jpg,stim/latef.jpg,EF,2,4,,,,,0,6,6,52,,,,,,,,,,,,,,2,0,0.683105823264,,,,,,PLC_L_D1S1,P10,60.016273403,01,A,2015_Jan_28_1442,X,
stim/posf.jpg,stim/negf.jpg,stim/3.jpg,stim/2.jpg,stim/latef.jpg,CD,1,2,,,,,0,7,7,24,,,,,,,,,,,,,,2,1,0.516495262442,,,,,,PLC_L_D1S1,P10,60.016273403,01,A,2015_Jan_28_1442,X,
stim/posf.jpg,stim/negf.jpg,stim/2.jpg,stim/3.jpg,stim/latef.jpg,CD,2,4,,,,,0,8,8,32,,,,,,,,,,,,,,4,1,0.516504411245,,,,,,PLC_L_D1S1,P10,60.016273403,01,A,2015_Jan_28_1442,X,
stim/posf.jpg,stim/negf.jpg,stim/3.jpg,stim/2.jpg,stim/latef.jpg,CD,1,2,,,,,0,9,9,20,,,,,,,,,,,,,,2,1,0.699762055924,,,,,,PLC_L_D1S1,P10,60.016273403,01,A,2015_Jan_28_1442,X,
stim/negf.jpg,stim/posf.jpg,stim/5.jpg,stim/4.jpg,stim/latef.jpg,EF,2,4,,,,,0,10,10,56,,,,,,,,,,,,,,2,0,0.899651124428,,,,,,PLC_L_D1S1,P10,60.016273403,01,A,2015_Jan_28_1442,X,
stim/posf.jpg,stim/negf.jpg,stim/2.jpg,stim/3.jpg,stim/latef.jpg,CD,2,4,,,,,0,11,11,36,,,,,,,,,,,,,,4,1,0.716424126134,,,,,,PLC_L_D1S1,P10,60.016273403,01,A,2015_Jan_28_1442,X,
stim/negf.jpg,stim/posf.jpg,stim/3.jpg,stim/2.jpg,stim/latef.jpg,CD,1,2,,,,,0,12,12,29,,,,,,,,,,,,,,2,1,0.516589965489,,,,,,PLC_L_D1S1,P10,60.016273403,01,A,2015_Jan_28_1442,X,
stim/posf.jpg,stim/negf.jpg,stim/1.jpg,stim/6.jpg,stim/latef.jpg,AB,2,4,,,,,0,13,13,14,,,,,,,,,,,,,,4,1,0.766438817753,,,,,,PLC_L_D1S1,P10,60.016273403,01,A,2015_Jan_28_1442,X,
stim/negf.jpg,stim/posf.jpg,stim/6.jpg,stim/1.jpg,stim/latef.jpg,AB,1,2,,,,,0,14,14,8,,,,,,,,,,,,,,2,1,0.749785406125,,,,,,PLC_L_D1S1,P10,60.016273403,01,A,2015_Jan_28_1442,X,
stim/posf.jpg,stim/negf.jpg,stim/2.jpg,stim/3.jpg,stim/latef.jpg,CD,2,4,,,,,0,15,15,33,,,,,,,,,,,,,,4,1,0.783081646003,,,,,,PLC_L_D1S1,P10,60.016273403,01,A,2015_Jan_28_1442,X,
stim/posf.jpg,stim/negf.jpg,stim/1.jpg,stim/6.jpg,stim/latef.jpg,AB,2,4,,,,,0,16,16,11,,,,,,,,,,,,,,4,1,0.783118126931,,,,,,PLC_L_D1S1,P10,60.016273403,01,A,2015_Jan_28_1442,X,
stim/negf.jpg,stim/posf.jpg,stim/5.jpg,stim/4.jpg,stim/latef.jpg,EF,2,4,,,,,0,17,17,57,,,,,,,,,,,,,,2,0,0.666459843159,,,,,,PLC_L_D1S1,P10,60.016273403,01,A,2015_Jan_28_1442,X,
stim/posf.jpg,stim/negf.jpg,stim/4.jpg,stim/5.jpg,stim/latef.jpg,EF,1,2,,,,,0,18,18,45,,,,,,,,,,,,,,4,0,0.866361125104,,,,,,PLC_L_D1S1,P10,60.016273403,01,A,2015_Jan_28_1442,X,
stim/negf.jpg,stim/posf.jpg,stim/5.jpg,stim/4.jpg,stim/latef.jpg,EF,2,4,,,,,0,19,19,58,,,,,,,,,,,,,,2,0,0.966343838016,,,,,,PLC_L_D1S1,P10,60.016273403,01,A,2015_Jan_28_1442,X,
stim/posf.jpg,stim/negf.jpg,stim/4.jpg,stim/5.jpg,stim/latef.jpg,EF,1,2,,,,,0,20,20,44,,,,,,,,,,,,,,4,0,0.733054470267,,,,,,PLC_L_D1S1,P10,60.016273403,01,A,2015_Jan_28_1442,X,
stim/posf.jpg,stim/negf.jpg,stim/1.jpg,stim/6.jpg,stim/latef.jpg,AB,2,4,,,,,0,21,21,13,,,,,,,,,,,,,,4,1,0.583140665108,,,,,,PLC_L_D1S1,P10,60.016273403,01,A,2015_Jan_28_1442,X,
stim/posf.jpg,stim/negf.jpg,stim/5.jpg,stim/4.jpg,stim/latef.jpg,EF,2,4,,,,,0,22,22,50,,,,,,,,,,,,,,2,0,0.683117489342,,,,,,PLC_L_D1S1,P10,60.016273403,01,A,2015_Jan_28_1442,X,
stim/posf.jpg,stim/negf.jpg,stim/6.jpg,stim/1.jpg,stim/latef.jpg,AB,1,2,,,,,0,23,23,5,,,,,,,,,,,,,,2,1,0.766422342689,,,,,,PLC_L_D1S1,P10,60.016273403,01,A,2015_Jan_28_1442,X,
stim/negf.jpg,stim/posf.jpg,stim/6.jpg,stim/1.jpg,stim/latef.jpg,AB,1,2,,,,,0,24,24,9,,,,,,,,,,,,,,2,1,0.649796389501,,,,,,PLC_L_D1S1,P10,60.016273403,01,A,2015_Jan_28_1442,X,
stim/posf.jpg,stim/negf.jpg,stim/6.jpg,stim/1.jpg,stim/latef.jpg,AB,1,2,,,,,0,25,25,7,,,,,,,,,,,,,,2,1,0.766413058549,,,,,,PLC_L_D1S1,P10,60.016273403,01,A,2015_Jan_28_1442,X,
stim/negf.jpg,stim/posf.jpg,stim/5.jpg,stim/4.jpg,stim/latef.jpg,EF,2,4,,,,,0,26,26,59,,,,,,,,,,,,,,2,0,0.749760648416,,,,,,PLC_L_D1S1,P10,60.016273403,01,A,2015_Jan_28_1442,X,
stim/posf.jpg,stim/negf.jpg,stim/3.jpg,stim/2.jpg,stim/latef.jpg,CD,1,2,,,,,0,27,27,25,,,,,,,,,,,,,,2,1,0.833020909617,,,,,,PLC_L_D1S1,P10,60.016273403,01,A,2015_Jan_28_1442,X,
stim/posf.jpg,stim/negf.jpg,stim/5.jpg,stim/4.jpg,stim/latef.jpg,EF,2,4,,,,,0,28,28,55,,,,,,,,,,,,,,2,0,0.716425058458,,,,,,PLC_L_D1S1,P10,60.016273403,01,A,2015_Jan_28_1442,X,
stim/posf.jpg,stim/negf.jpg,stim/2.jpg,stim/3.jpg,stim/latef.jpg,CD,2,4,,,,,0,29,29,34,,,,,,,,,,,,,,4,1,0.766425202818,,,,,,PLC_L_D1S1,P10,60.016273403,01,A,2015_Jan_28_1442,X,
stim/posf.jpg,stim/negf.jpg,stim/6.jpg,stim/1.jpg,stim/latef.jpg,AB,1,2,,,,,0,30,30,6,,,,,,,,,,,,,,2,1,0.999674817483,,,,,,PLC_L_D1S1,P10,60.016273403,01,A,2015_Jan_28_1442,X,
stim/negf.jpg,stim/posf.jpg,stim/1.jpg,stim/6.jpg,stim/latef.jpg,AB,2,4,,,,,0,31,31,18,,,,,,,,,,,,,,2,0,1.06635944993,,,,,,PLC_L_D1S1,P10,60.016273403,01,A,2015_Jan_28_1442,X,
stim/posf.jpg,stim/negf.jpg,stim/3.jpg,stim/2.jpg,stim/latef.jpg,CD,1,2,,,,,0,32,32,22,,,,,,,,,,,,,,2,1,1.08296954158,,,,,,PLC_L_D1S1,P10,60.016273403,01,A,2015_Jan_28_1442,X,
stim/negf.jpg,stim/posf.jpg,stim/2.jpg,stim/3.jpg,stim/latef.jpg,CD,2,4,,,,,0,33,33,37,,,,,,,,,,,,,,4,1,0.915362768701,,,,,,PLC_L_D1S1,P10,60.016273403,01,A,2015_Jan_28_1442,X,
stim/posf.jpg,stim/negf.jpg,stim/5.jpg,stim/4.jpg,stim/latef.jpg,EF,2,4,,,,,0,34,34,54,,,,,,,,,,,,,,2,0,1.01635538079,,,,,,PLC_L_D1S1,P10,60.016273403,01,A,2015_Jan_28_1442,X,
stim/negf.jpg,stim/posf.jpg,stim/4.jpg,stim/5.jpg,stim/latef.jpg,EF,1,2,,,,,0,35,35,49,,,,,,,,,,,,,,4,0,0.699740621499,,,,,,PLC_L_D1S1,P10,60.016273403,01,A,2015_Jan_28_1442,X,
stim/posf.jpg,stim/negf.jpg,stim/1.jpg,stim/6.jpg,stim/latef.jpg,AB,2,4,,,,,0,36,36,15,,,,,,,,,,,,,,2,0,1.04968456177,,,,,,PLC_L_D1S1,P10,60.016273403,01,A,2015_Jan_28_1442,X,
stim/posf.jpg,stim/negf.jpg,stim/6.jpg,stim/1.jpg,stim/latef.jpg,AB,1,2,,,,,0,37,37,4,,,,,,,,,,,,,,2,1,0.666471906226,,,,,,PLC_L_D1S1,P10,60.016273403,01,A,2015_Jan_28_1442,X,
stim/posf.jpg,stim/negf.jpg,stim/6.jpg,stim/1.jpg,stim/latef.jpg,AB,1,2,,,,,0,38,38,1,,,,,,,,,,,,,,2,1,0.633121606604,,,,,,PLC_L_D1S1,P10,60.016273403,01,A,2015_Jan_28_1442,X,
stim/posf.jpg,stim/negf.jpg,stim/2.jpg,stim/3.jpg,stim/latef.jpg,CD,2,4,,,,,0,39,39,35,,,,,,,,,,,,,,4,1,0.816403945835,,,,,,PLC_L_D1S1,P10,60.016273403,01,A,2015_Jan_28_1442,X,
stim/negf.jpg,stim/posf.jpg,stim/2.jpg,stim/3.jpg,stim/latef.jpg,CD,2,4,,,,,0,40,40,38,,,,,,,,,,,,,,4,1,0.716443190653,,,,,,PLC_L_D1S1,P10,60.016273403,01,A,2015_Jan_28_1442,X,
stim/posf.jpg,stim/negf.jpg,stim/1.jpg,stim/6.jpg,stim/latef.jpg,AB,2,4,,,,,0,41,41,12,,,,,,,,,,,,,,4,1,1.14961562996,,,,,,PLC_L_D1S1,P10,60.016273403,01,A,2015_Jan_28_1442,X,
stim/posf.jpg,stim/negf.jpg,stim/6.jpg,stim/1.jpg,stim/latef.jpg,AB,1,2,,,,,0,42,42,0,,,,,,,,,,,,,,2,1,0.783077606935,,,,,,PLC_L_D1S1,P10,60.016273403,01,A,2015_Jan_28_1442,X,
stim/posf.jpg,stim/negf.jpg,stim/4.jpg,stim/5.jpg,stim/latef.jpg,EF,1,2,,,,,0,43,43,42,,,,,,,,,,,,,,4,0,0.849707442801,,,,,,PLC_L_D1S1,P10,60.016273403,01,A,2015_Jan_28_1442,X,
stim/posf.jpg,stim/negf.jpg,stim/5.jpg,stim/4.jpg,stim/latef.jpg,EF,2,4,,,,,0,44,44,51,,,,,,,,,,,,,,2,0,1.34953077345,,,,,,PLC_L_D1S1,P10,60.016273403,01,A,2015_Jan_28_1442,X,
stim/posf.jpg,stim/negf.jpg,stim/4.jpg,stim/5.jpg,stim/latef.jpg,EF,1,2,,,,,0,45,45,41,,,,,,,,,,,,,,4,0,1.09968506703,,,,,,PLC_L_D1S1,P10,60.016273403,01,A,2015_Jan_28_1442,X,
stim/posf.jpg,stim/negf.jpg,stim/4.jpg,stim/5.jpg,stim/latef.jpg,EF,1,2,,,,,0,46,46,43,,,,,,,,,,,,,,4,0,0.566475512214,,,,,,PLC_L_D1S1,P10,60.016273403,01,A,2015_Jan_28_1442,X,
stim/negf.jpg,stim/posf.jpg,stim/4.jpg,stim/5.jpg,stim/latef.jpg,EF,1,2,,,,,0,47,47,47,,,,,,,,,,,,,,4,0,0.566528110315,,,,,,PLC_L_D1S1,P10,60.016273403,01,A,2015_Jan_28_1442,X,
stim/posf.jpg,stim/negf.jpg,stim/6.jpg,stim/1.jpg,stim/latef.jpg,AB,1,2,,,,,0,48,48,3,,,,,,,,,,,,,,2,1,0.866330463681,,,,,,PLC_L_D1S1,P10,60.016273403,01,A,2015_Jan_28_1442,X,
stim/posf.jpg,stim/negf.jpg,stim/3.jpg,stim/2.jpg,stim/latef.jpg,CD,1,2,,,,,0,49,49,26,,,,,,,,,,,,,,2,1,0.799726961451,,,,,,PLC_L_D1S1,P10,60.016273403,01,A,2015_Jan_28_1442,X,
stim/posf.jpg,stim/negf.jpg,stim/1.jpg,stim/6.jpg,stim/latef.jpg,AB,2,4,,,,,0,50,50,17,,,,,,,,,,,,,,4,1,0.949755475523,,,,,,PLC_L_D1S1,P10,60.016273403,01,A,2015_Jan_28_1442,X,
stim/negf.jpg,stim/posf.jpg,stim/4.jpg,stim/5.jpg,stim/latef.jpg,EF,1,2,,,,,0,51,51,48,,,,,,,,,,,,,,4,0,0.933024747182,,,,,,PLC_L_D1S1,P10,60.016273403,01,A,2015_Jan_28_1442,X,
stim/posf.jpg,stim/negf.jpg,stim/2.jpg,stim/3.jpg,stim/latef.jpg,CD,2,4,,,,,0,52,52,31,,,,,,,,,,,,,,4,1,0.533138099714,,,,,,PLC_L_D1S1,P10,60.016273403,01,A,2015_Jan_28_1442,X,
stim/posf.jpg,stim/negf.jpg,stim/3.jpg,stim/2.jpg,stim/latef.jpg,CD,1,2,,,,,0,53,53,21,,,,,,,,,,,,,,2,1,0.599809712709,,,,,,PLC_L_D1S1,P10,60.016273403,01,A,2015_Jan_28_1442,X,
stim/posf.jpg,stim/negf.jpg,stim/2.jpg,stim/3.jpg,stim/latef.jpg,CD,2,4,,,,,0,54,54,30,,,,,,,,,,,,,,4,1,0.549811312697,,,,,,PLC_L_D1S1,P10,60.016273403,01,A,2015_Jan_28_1442,X,
stim/negf.jpg,stim/posf.jpg,stim/4.jpg,stim/5.jpg,stim/latef.jpg,EF,1,2,,,,,0,55,55,46,,,,,,,,,,,,,,4,0,0.633121056233,,,,,,PLC_L_D1S1,P10,60.016273403,01,A,2015_Jan_28_1442,X,
stim/posf.jpg,stim/negf.jpg,stim/6.jpg,stim/1.jpg,stim/latef.jpg,AB,1,2,,,,,0,56,56,2,,,,,,,,,,,,,,2,1,0.683101354125,,,,,,PLC_L_D1S1,P10,60.016273403,01,A,2015_Jan_28_1442,X,
stim/posf.jpg,stim/negf.jpg,stim/5.jpg,stim/4.jpg,stim/latef.jpg,EF,2,4,,,,,0,57,57,53,,,,,,,,,,,,,,2,0,0.68310347441,,,,,,PLC_L_D1S1,P10,60.016273403,01,A,2015_Jan_28_1442,X,
stim/posf.jpg,stim/negf.jpg,stim/3.jpg,stim/2.jpg,stim/latef.jpg,CD,1,2,,,,,0,58,58,23,,,,,,,,,,,,,,2,1,0.599816067549,,,,,,PLC_L_D1S1,P10,60.016273403,01,A,2015_Jan_28_1442,X,
stim/negf.jpg,stim/posf.jpg,stim/1.jpg,stim/6.jpg,stim/latef.jpg,AB,2,4,,,,,0,59,59,19,,,,,,,,,,,,,,4,1,0.716380749017,,,,,,PLC_L_D1S1,P10,60.016273403,01,A,2015_Jan_28_1442,X,
,,,,,,,,,,,,,,,,,,,,,,,,,,,,,,,,0.990625,1.0,1,0,0,PLC_L_D1S1,P10,60.016273403,01,A,2015_Jan_28_1442,X,
stim/negf.jpg,stim/posf.jpg,stim/3.jpg,stim/2.jpg,stim/latef.jpg,CD,1,2,,,,,,,,,0,0,0,28,,,,,,,,,,2,1,0.649787231675,,,,,,PLC_L_D1S1,P10,60.016273403,01,A,2015_Jan_28_1442,X,
stim/negf.jpg,stim/posf.jpg,stim/3.jpg,stim/2.jpg,stim/latef.jpg,CD,1,2,,,,,,,,,0,1,1,29,,,,,,,,,,2,1,0.499886857994,,,,,,PLC_L_D1S1,P10,60.016273403,01,A,2015_Jan_28_1442,X,
stim/posf.jpg,stim/negf.jpg,stim/5.jpg,stim/4.jpg,stim/latef.jpg,EF,2,4,,,,,,,,,0,2,2,54,,,,,,,,,,2,0,1.13297315359,,,,,,PLC_L_D1S1,P10,60.016273403,01,A,2015_Jan_28_1442,X,
stim/posf.jpg,stim/negf.jpg,stim/6.jpg,stim/1.jpg,stim/latef.jpg,AB,1,2,,,,,,,,,0,3,3,7,,,,,,,,,,2,1,0.766438438809,,,,,,PLC_L_D1S1,P10,60.016273403,01,A,2015_Jan_28_1442,X,
stim/posf.jpg,stim/negf.jpg,stim/5.jpg,stim/4.jpg,stim/latef.jpg,EF,2,4,,,,,,,,,0,4,4,55,,,,,,,,,,2,0,0.766411220969,,,,,,PLC_L_D1S1,P10,60.016273403,01,A,2015_Jan_28_1442,X,
stim/posf.jpg,stim/negf.jpg,stim/4.jpg,stim/5.jpg,stim/latef.jpg,EF,1,2,,,,,,,,,0,5,5,44,,,,,,,,,,4,0,0.78301313524,,,,,,PLC_L_D1S1,P10,60.016273403,01,A,2015_Jan_28_1442,X,
stim/posf.jpg,stim/negf.jpg,stim/6.jpg,stim/1.jpg,stim/latef.jpg,AB,1,2,,,,,,,,,0,6,6,6,,,,,,,,,,2,1,0.599797616559,,,,,,PLC_L_D1S1,P10,60.016273403,01,A,2015_Jan_28_1442,X,
stim/posf.jpg,stim/negf.jpg,stim/3.jpg,stim/2.jpg,stim/latef.jpg,CD,1,2,,,,,,,,,0,7,7,20,,,,,,,,,,2,1,0.816374526507,,,,,,PLC_L_D1S1,P10,60.016273403,01,A,2015_Jan_28_1442,X,
stim/negf.jpg,stim/posf.jpg,stim/2.jpg,stim/3.jpg,stim/latef.jpg,CD,2,4,,,,,,,,,0,8,8,38,,,,,,,,,,4,1,0.566437762122,,,,,,PLC_L_D1S1,P10,60.016273403,01,A,2015_Jan_28_1442,X,
stim/posf.jpg,stim/negf.jpg,stim/1.jpg,stim/6.jpg,stim/latef.jpg,AB,2,4,,,,,,,,,0,9,9,16,,,,,,,,,,4,1,0.96635512515,,,,,,PLC_L_D1S1,P10,60.016273403,01,A,2015_Jan_28_1442,X,
stim/posf.jpg,stim/negf.jpg,stim/2.jpg,stim/3.jpg,stim/latef.jpg,CD,2,4,,,,,,,,,0,10,10,35,,,,,,,,,,4,1,0.666445124472,,,,,,PLC_L_D1S1,P10,60.016273403,01,A,2015_Jan_28_1442,X,
stim/posf.jpg,stim/negf.jpg,stim/1.jpg,stim/6.jpg,stim/latef.jpg,AB,2,4,,,,,,,,,0,11,11,17,,,,,,,,,,4,1,0.733102136074,,,,,,PLC_L_D1S1,P10,60.016273403,01,A,2015_Jan_28_1442,X,
stim/posf.jpg,stim/negf.jpg,stim/1.jpg,stim/6.jpg,stim/latef.jpg,AB,2,4,,,,,,,,,0,12,12,11,,,,,,,,,,4,1,0.866381049766,,,,,,PLC_L_D1S1,P10,60.016273403,01,A,2015_Jan_28_1442,X,
stim/negf.jpg,stim/posf.jpg,stim/4.jpg,stim/5.jpg,stim/latef.jpg,EF,1,2,,,,,,,,,0,13,13,49,,,,,,,,,,4,0,0.816444950038,,,,,,PLC_L_D1S1,P10,60.016273403,01,A,2015_Jan_28_1442,X,
stim/posf.jpg,stim/negf.jpg,stim/3.jpg,stim/2.jpg,stim/latef.jpg,CD,1,2,,,,,,,,,0,14,14,21,,,,,,,,,,2,1,0.766418372794,,,,,,PLC_L_D1S1,P10,60.016273403,01,A,2015_Jan_28_1442,X,
stim/posf.jpg,stim/negf.jpg,stim/2.jpg,stim/3.jpg,stim/latef.jpg,CD,2,4,,,,,,,,,0,15,15,33,,,,,,,,,,4,1,0.566415151766,,,,,,PLC_L_D1S1,P10,60.016273403,01,A,2015_Jan_28_1442,X,
stim/posf.jpg,stim/negf.jpg,stim/2.jpg,stim/3.jpg,stim/latef.jpg,CD,2,4,,,,,,,,,0,16,16,34,,,,,,,,,,4,1,0.7164330193,,,,,,PLC_L_D1S1,P10,60.016273403,01,A,2015_Jan_28_1442,X,
stim/posf.jpg,stim/negf.jpg,stim/6.jpg,stim/1.jpg,stim/latef.jpg,AB,1,2,,,,,,,,,0,17,17,3,,,,,,,,,,2,1,0.849762206299,,,,,,PLC_L_D1S1,P10,60.016273403,01,A,2015_Jan_28_1442,X,
stim/negf.jpg,stim/posf.jpg,stim/2.jpg,stim/3.jpg,stim/latef.jpg,CD,2,4,,,,,,,,,0,18,18,37,,,,,,,,,,4,1,0.749756744686,,,,,,PLC_L_D1S1,P10,60.016273403,01,A,2015_Jan_28_1442,X,
stim/negf.jpg,stim/posf.jpg,stim/5.jpg,stim/4.jpg,stim/latef.jpg,EF,2,4,,,,,,,,,0,19,19,59,,,,,,,,,,4,1,0.683099321058,,,,,,PLC_L_D1S1,P10,60.016273403,01,A,2015_Jan_28_1442,X,
stim/negf.jpg,stim/posf.jpg,stim/6.jpg,stim/1.jpg,stim/latef.jpg,AB,1,2,,,,,,,,,0,20,20,8,,,,,,,,,,2,1,0.766413744258,,,,,,PLC_L_D1S1,P10,60.016273403,01,A,2015_Jan_28_1442,X,
stim/negf.jpg,stim/posf.jpg,stim/1.jpg,stim/6.jpg,stim/latef.jpg,AB,2,4,,,,,,,,,0,21,21,18,,,,,,,,,,4,1,0.616426384764,,,,,,PLC_L_D1S1,P10,60.016273403,01,A,2015_Jan_28_1442,X,
stim/posf.jpg,stim/negf.jpg,stim/3.jpg,stim/2.jpg,stim/latef.jpg,CD,1,2,,,,,,,,,0,22,22,25,,,,,,,,,,2,1,0.6498028887,,,,,,PLC_L_D1S1,P10,60.016273403,01,A,2015_Jan_28_1442,X,
stim/negf.jpg,stim/posf.jpg,stim/5.jpg,stim/4.jpg,stim/latef.jpg,EF,2,4,,,,,,,,,0,23,23,56,,,,,,,,,,2,0,1.19958291742,,,,,,PLC_L_D1S1,P10,60.016273403,01,A,2015_Jan_28_1442,X,
stim/posf.jpg,stim/negf.jpg,stim/6.jpg,stim/1.jpg,stim/latef.jpg,AB,1,2,,,,,,,,,0,24,24,1,,,,,,,,,,2,1,0.933038187683,,,,,,PLC_L_D1S1,P10,60.016273403,01,A,2015_Jan_28_1442,X,
stim/negf.jpg,stim/posf.jpg,stim/6.jpg,stim/1.jpg,stim/latef.jpg,AB,1,2,,,,,,,,,0,25,25,9,,,,,,,,,,2,1,0.932955821384,,,,,,PLC_L_D1S1,P10,60.016273403,01,A,2015_Jan_28_1442,X,
stim/negf.jpg,stim/posf.jpg,stim/5.jpg,stim/4.jpg,stim/latef.jpg,EF,2,4,,,,,,,,,0,26,26,58,,,,,,,,,,2,0,0.833063564936,,,,,,PLC_L_D1S1,P10,60.016273403,01,A,2015_Jan_28_1442,X,
stim/posf.jpg,stim/negf.jpg,stim/4.jpg,stim/5.jpg,stim/latef.jpg,EF,1,2,,,,,,,,,0,27,27,41,,,,,,,,,,4,0,0.683097170698,,,,,,PLC_L_D1S1,P10,60.016273403,01,A,2015_Jan_28_1442,X,
stim/negf.jpg,stim/posf.jpg,stim/3.jpg,stim/2.jpg,stim/latef.jpg,CD,1,2,,,,,,,,,0,28,28,27,,,,,,,,,,2,1,1.13300056992,,,,,,PLC_L_D1S1,P10,60.016273403,01,A,2015_Jan_28_1442,X,
stim/posf.jpg,stim/negf.jpg,stim/6.jpg,stim/1.jpg,stim/latef.jpg,AB,1,2,,,,,,,,,0,29,29,0,,,,,,,,,,2,1,0.633087844452,,,,,,PLC_L_D1S1,P10,60.016273403,01,A,2015_Jan_28_1442,X,
stim/negf.jpg,stim/posf.jpg,stim/4.jpg,stim/5.jpg,stim/latef.jpg,EF,1,2,,,,,,,,,0,30,30,48,,,,,,,,,,4,0,1.09963214111,,,,,,PLC_L_D1S1,P10,60.016273403,01,A,2015_Jan_28_1442,X,
stim/posf.jpg,stim/negf.jpg,stim/5.jpg,stim/4.jpg,stim/latef.jpg,EF,2,4,,,,,,,,,0,31,31,53,,,,,,,,,,2,0,0.683118635198,,,,,,PLC_L_D1S1,P10,60.016273403,01,A,2015_Jan_28_1442,X,
stim/posf.jpg,stim/negf.jpg,stim/2.jpg,stim/3.jpg,stim/latef.jpg,CD,2,4,,,,,,,,,0,32,32,32,,,,,,,,,,4,1,0.583127811069,,,,,,PLC_L_D1S1,P10,60.016273403,01,A,2015_Jan_28_1442,X,
stim/negf.jpg,stim/posf.jpg,stim/5.jpg,stim/4.jpg,stim/latef.jpg,EF,2,4,,,,,,,,,0,33,33,57,,,,,,,,,,2,0,0.733085501613,,,,,,PLC_L_D1S1,P10,60.016273403,01,A,2015_Jan_28_1442,X,
stim/posf.jpg,stim/negf.jpg,stim/6.jpg,stim/1.jpg,stim/latef.jpg,AB,1,2,,,,,,,,,0,34,34,2,,,,,,,,,,2,1,0.74975589958,,,,,,PLC_L_D1S1,P10,60.016273403,01,A,2015_Jan_28_1442,X,
stim/posf.jpg,stim/negf.jpg,stim/1.jpg,stim/6.jpg,stim/latef.jpg,AB,2,4,,,,,,,,,0,35,35,14,,,,,,,,,,4,1,0.699765421313,,,,,,PLC_L_D1S1,P10,60.016273403,01,A,2015_Jan_28_1442,X,
stim/posf.jpg,stim/negf.jpg,stim/3.jpg,stim/2.jpg,stim/latef.jpg,CD,1,2,,,,,,,,,0,36,36,22,,,,,,,,,,2,1,0.616451533447,,,,,,PLC_L_D1S1,P10,60.016273403,01,A,2015_Jan_28_1442,X,
stim/negf.jpg,stim/posf.jpg,stim/4.jpg,stim/5.jpg,stim/latef.jpg,EF,1,2,,,,,,,,,0,37,37,47,,,,,,,,,,2,1,1.29956904986,,,,,,PLC_L_D1S1,P10,60.016273403,01,A,2015_Jan_28_1442,X,
stim/posf.jpg,stim/negf.jpg,stim/2.jpg,stim/3.jpg,stim/latef.jpg,CD,2,4,,,,,,,,,0,38,38,36,,,,,,,,,,4,1,0.666465861159,,,,,,PLC_L_D1S1,P10,60.016273403,01,A,2015_Jan_28_1442,X,
stim/posf.jpg,stim/negf.jpg,stim/2.jpg,stim/3.jpg,stim/latef.jpg,CD,2,4,,,,,,,,,0,39,39,30,,,,,,,,,,4,1,0.483176896415,,,,,,PLC_L_D1S1,P10,60.016273403,01,A,2015_Jan_28_1442,X,
stim/posf.jpg,stim/negf.jpg,stim/3.jpg,stim/2.jpg,stim/latef.jpg,CD,1,2,,,,,,,,,0,40,40,23,,,,,,,,,,2,1,0.516507764603,,,,,,PLC_L_D1S1,P10,60.016273403,01,A,2015_Jan_28_1442,X,
stim/posf.jpg,stim/negf.jpg,stim/6.jpg,stim/1.jpg,stim/latef.jpg,AB,1,2,,,,,,,,,0,41,41,5,,,,,,,,,,2,1,0.799801357884,,,,,,PLC_L_D1S1,P10,60.016273403,01,A,2015_Jan_28_1442,X,
stim/negf.jpg,stim/posf.jpg,stim/1.jpg,stim/6.jpg,stim/latef.jpg,AB,2,4,,,,,,,,,0,42,42,19,,,,,,,,,,4,1,0.833045444771,,,,,,PLC_L_D1S1,P10,60.016273403,01,A,2015_Jan_28_1442,X,
stim/posf.jpg,stim/negf.jpg,stim/5.jpg,stim/4.jpg,stim/latef.jpg,EF,2,4,,,,,,,,,0,43,43,52,,,,,,,,,,2,0,0.816406008978,,,,,,PLC_L_D1S1,P10,60.016273403,01,A,2015_Jan_28_1442,X,
stim/posf.jpg,stim/negf.jpg,stim/3.jpg,stim/2.jpg,stim/latef.jpg,CD,1,2,,,,,,,,,0,44,44,24,,,,,,,,,,2,1,0.616450134961,,,,,,PLC_L_D1S1,P10,60.016273403,01,A,2015_Jan_28_1442,X,
stim/posf.jpg,stim/negf.jpg,stim/2.jpg,stim/3.jpg,stim/latef.jpg,CD,2,4,,,,,,,,,0,45,45,31,,,,,,,,,,4,1,0.516486898594,,,,,,PLC_L_D1S1,P10,60.016273403,01,A,2015_Jan_28_1442,X,
stim/posf.jpg,stim/negf.jpg,stim/1.jpg,stim/6.jpg,stim/latef.jpg,AB,2,4,,,,,,,,,0,46,46,12,,,,,,,,,,4,1,0.916364288991,,,,,,PLC_L_D1S1,P10,60.016273403,01,A,2015_Jan_28_1442,X,
stim/posf.jpg,stim/negf.jpg,stim/1.jpg,stim/6.jpg,stim/latef.jpg,AB,2,4,,,,,,,,,0,47,47,13,,,,,,,,,,4,1,0.566496907542,,,,,,PLC_L_D1S1,P10,60.016273403,01,A,2015_Jan_28_1442,X,
stim/posf.jpg,stim/negf.jpg,stim/3.jpg,stim/2.jpg,stim/latef.jpg,CD,1,2,,,,,,,,,0,48,48,26,,,,,,,,,,2,1,0.599815778829,,,,,,PLC_L_D1S1,P10,60.016273403,01,A,2015_Jan_28_1442,X,
stim/posf.jpg,stim/negf.jpg,stim/4.jpg,stim/5.jpg,stim/latef.jpg,EF,1,2,,,,,,,,,0,49,49,45,,,,,,,,,,4,0,0.466511313449,,,,,,PLC_L_D1S1,P10,60.016273403,01,A,2015_Jan_28_1442,X,
stim/negf.jpg,stim/posf.jpg,stim/4.jpg,stim/5.jpg,stim/latef.jpg,EF,1,2,,,,,,,,,0,50,50,46,,,,,,,,,,4,0,0.899618715649,,,,,,PLC_L_D1S1,P10,60.016273403,01,A,2015_Jan_28_1442,X,
stim/posf.jpg,stim/negf.jpg,stim/4.jpg,stim/5.jpg,stim/latef.jpg,EF,1,2,,,,,,,,,0,51,51,40,,,,,,,,,,4,0,0.899700904504,,,,,,PLC_L_D1S1,P10,60.016273403,01,A,2015_Jan_28_1442,X,
stim/posf.jpg,stim/negf.jpg,stim/5.jpg,stim/4.jpg,stim/latef.jpg,EF,2,4,,,,,,,,,0,52,52,51,,,,,,,,,,2,0,1.18297009496,,,,,,PLC_L_D1S1,P10,60.016273403,01,A,2015_Jan_28_1442,X,
stim/negf.jpg,stim/posf.jpg,stim/2.jpg,stim/3.jpg,stim/latef.jpg,CD,2,4,,,,,,,,,0,53,53,39,,,,,,,,,,4,1,0.749743686138,,,,,,PLC_L_D1S1,P10,60.016273403,01,A,2015_Jan_28_1442,X,
stim/posf.jpg,stim/negf.jpg,stim/6.jpg,stim/1.jpg,stim/latef.jpg,AB,1,2,,,,,,,,,0,54,54,4,,,,,,,,,,2,1,0.699766861903,,,,,,PLC_L_D1S1,P10,60.016273403,01,A,2015_Jan_28_1442,X,
stim/posf.jpg,stim/negf.jpg,stim/4.jpg,stim/5.jpg,stim/latef.jpg,EF,1,2,,,,,,,,,0,55,55,43,,,,,,,,,,4,0,0.699845008684,,,,,,PLC_L_D1S1,P10,60.016273403,01,A,2015_Jan_28_1442,X,
stim/posf.jpg,stim/negf.jpg,stim/4.jpg,stim/5.jpg,stim/latef.jpg,EF,1,2,,,,,,,,,0,56,56,42,,,,,,,,,,4,0,0.899693430877,,,,,,PLC_L_D1S1,P10,60.016273403,01,A,2015_Jan_28_1442,X,
stim/posf.jpg,stim/negf.jpg,stim/5.jpg,stim/4.jpg,stim/latef.jpg,EF,2,4,,,,,,,,,0,57,57,50,,,,,,,,,,2,0,0.999623172758,,,,,,PLC_L_D1S1,P10,60.016273403,01,A,2015_Jan_28_1442,X,
stim/posf.jpg,stim/negf.jpg,stim/1.jpg,stim/6.jpg,stim/latef.jpg,AB,2,4,,,,,,,,,0,58,58,15,,,,,,,,,,4,1,1.01629377523,,,,,,PLC_L_D1S1,P10,60.016273403,01,A,2015_Jan_28_1442,X,
stim/posf.jpg,stim/negf.jpg,stim/1.jpg,stim/6.jpg,stim/latef.jpg,AB,2,4,,,,,,,,,0,59,59,10,,,,,,,,,,4,1,0.849761024353,,,,,,PLC_L_D1S1,P10,60.016273403,01,A,2015_Jan_28_1442,X,
,,,,,,,,,,,,,,,,,,,,,,,,,,,,,,,,0.990625,1.0,1,0,0,PLC_L_D1S1,P10,60.016273403,01,A,2015_Jan_28_1442,X,
stim/negf.jpg,stim/posf.jpg,stim/3.jpg,stim/2.jpg,stim/latef.jpg,CD,1,2,,,,,,,,,,,,,0,0,0,27,,,,,,2,1,0.616460715333,,,,,,PLC_L_D1S1,P10,60.016273403,01,A,2015_Jan_28_1442,X,
stim/posf.jpg,stim/negf.jpg,stim/5.jpg,stim/4.jpg,stim/latef.jpg,EF,2,4,,,,,,,,,,,,,0,1,1,55,,,,,,2,0,1.03298225126,,,,,,PLC_L_D1S1,P10,60.016273403,01,A,2015_Jan_28_1442,X,
stim/posf.jpg,stim/negf.jpg,stim/1.jpg,stim/6.jpg,stim/latef.jpg,AB,2,4,,,,,,,,,,,,,0,2,2,12,,,,,,4,1,0.999668276178,,,,,,PLC_L_D1S1,P10,60.016273403,01,A,2015_Jan_28_1442,X,
stim/posf.jpg,stim/negf.jpg,stim/6.jpg,stim/1.jpg,stim/latef.jpg,AB,1,2,,,,,,,,,,,,,0,3,3,4,,,,,,2,1,0.649756988293,,,,,,PLC_L_D1S1,P10,60.016273403,01,A,2015_Jan_28_1442,X,
stim/negf.jpg,stim/posf.jpg,stim/5.jpg,stim/4.jpg,stim/latef.jpg,EF,2,4,,,,,,,,,,,,,0,4,4,58,,,,,,4,1,0.483249728949,,,,,,PLC_L_D1S1,P10,60.016273403,01,A,2015_Jan_28_1442,X,
stim/posf.jpg,stim/negf.jpg,stim/6.jpg,stim/1.jpg,stim/latef.jpg,AB,1,2,,,,,,,,,,,,,0,5,5,3,,,,,,2,1,0.666466604011,,,,,,PLC_L_D1S1,P10,60.016273403,01,A,2015_Jan_28_1442,X,
stim/posf.jpg,stim/negf.jpg,stim/2.jpg,stim/3.jpg,stim/latef.jpg,CD,2,4,,,,,,,,,,,,,0,6,6,35,,,,,,2,0,0.599804527786,,,,,,PLC_L_D1S1,P10,60.016273403,01,A,2015_Jan_28_1442,X,
stim/negf.jpg,stim/posf.jpg,stim/2.jpg,stim/3.jpg,stim/latef.jpg,CD,2,4,,,,,,,,,,,,,0,7,7,37,,,,,,4,1,0.499850837212,,,,,,PLC_L_D1S1,P10,60.016273403,01,A,2015_Jan_28_1442,X,
stim/posf.jpg,stim/negf.jpg,stim/4.jpg,stim/5.jpg,stim/latef.jpg,EF,1,2,,,,,,,,,,,,,0,8,8,41,,,,,,2,1,0.949668020541,,,,,,PLC_L_D1S1,P10,60.016273403,01,A,2015_Jan_28_1442,X,
stim/posf.jpg,stim/negf.jpg,stim/2.jpg,stim/3.jpg,stim/latef.jpg,CD,2,4,,,,,,,,,,,,,0,9,9,32,,,,,,4,1,0.733162322088,,,,,,PLC_L_D1S1,P10,60.016273403,01,A,2015_Jan_28_1442,X,
stim/negf.jpg,stim/posf.jpg,stim/5.jpg,stim/4.jpg,stim/latef.jpg,EF,2,4,,,,,,,,,,,,,0,10,10,59,,,,,,4,1,0.5498151653,,,,,,PLC_L_D1S1,P10,60.016273403,01,A,2015_Jan_28_1442,X,
stim/posf.jpg,stim/negf.jpg,stim/5.jpg,stim/4.jpg,stim/latef.jpg,EF,2,4,,,,,,,,,,,,,0,11,11,51,,,,,,4,1,0.516511662318,,,,,,PLC_L_D1S1,P10,60.016273403,01,A,2015_Jan_28_1442,X,
stim/posf.jpg,stim/negf.jpg,stim/5.jpg,stim/4.jpg,stim/latef.jpg,EF,2,4,,,,,,,,,,,,,0,12,12,50,,,,,,4,1,0.649838028286,,,,,,PLC_L_D1S1,P10,60.016273403,01,A,2015_Jan_28_1442,X,
stim/negf.jpg,stim/posf.jpg,stim/3.jpg,stim/2.jpg,stim/latef.jpg,CD,1,2,,,,,,,,,,,,,0,13,13,28,,,,,,2,1,0.783060825107,,,,,,PLC_L_D1S1,P10,60.016273403,01,A,2015_Jan_28_1442,X,
stim/posf.jpg,stim/negf.jpg,stim/3.jpg,stim/2.jpg,stim/latef.jpg,CD,1,2,,,,,,,,,,,,,0,14,14,22,,,,,,2,1,0.483171431794,,,,,,PLC_L_D1S1,P10,60.016273403,01,A,2015_Jan_28_1442,X,
stim/negf.jpg,stim/posf.jpg,stim/3.jpg,stim/2.jpg,stim/latef.jpg,CD,1,2,,,,,,,,,,,,,0,15,15,29,,,,,,2,1,0.599860849167,,,,,,PLC_L_D1S1,P10,60.016273403,01,A,2015_Jan_28_1442,X,
stim/posf.jpg,stim/negf.jpg,stim/1.jpg,stim/6.jpg,stim/latef.jpg,AB,2,4,,,,,,,,,,,,,0,16,16,11,,,,,,4,1,0.849741502695,,,,,,PLC_L_D1S1,P10,60.016273403,01,A,2015_Jan_28_1442,X,
stim/negf.jpg,stim/posf.jpg,stim/4.jpg,stim/5.jpg,stim/latef.jpg,EF,1,2,,,,,,,,,,,,,0,17,17,47,,,,,,2,1,0.733082713664,,,,,,PLC_L_D1S1,P10,60.016273403,01,A,2015_Jan_28_1442,X,
stim/posf.jpg,stim/negf.jpg,stim/3.jpg,stim/2.jpg,stim/latef.jpg,CD,1,2,,,,,,,,,,,,,0,18,18,25,,,,,,2,1,0.583156689047,,,,,,PLC_L_D1S1,P10,60.016273403,01,A,2015_Jan_28_1442,X,
stim/negf.jpg,stim/posf.jpg,stim/1.jpg,stim/6.jpg,stim/latef.jpg,AB,2,4,,,,,,,,,,,,,0,19,19,18,,,,,,4,1,0.766410938264,,,,,,PLC_L_D1S1,P10,60.016273403,01,A,2015_Jan_28_1442,X,
stim/posf.jpg,stim/negf.jpg,stim/3.jpg,stim/2.jpg,stim/latef.jpg,CD,1,2,,,,,,,,,,,,,0,20,20,20,,,,,,2,1,0.549826783257,,,,,,PLC_L_D1S1,P10,60.016273403,01,A,2015_Jan_28_1442,X,
stim/posf.jpg,stim/negf.jpg,stim/1.jpg,stim/6.jpg,stim/latef.jpg,AB,2,4,,,,,,,,,,,,,0,21,21,16,,,,,,4,1,0.566470339321,,,,,,PLC_L_D1S1,P10,60.016273403,01,A,2015_Jan_28_1442,X,
stim/negf.jpg,stim/posf.jpg,stim/6.jpg,stim/1.jpg,stim/latef.jpg,AB,1,2,,,,,,,,,,,,,0,22,22,9,,,,,,2,1,0.666440664356,,,,,,PLC_L_D1S1,P10,60.016273403,01,A,2015_Jan_28_1442,X,
stim/posf.jpg,stim/negf.jpg,stim/2.jpg,stim/3.jpg,stim/latef.jpg,CD,2,4,,,,,,,,,,,,,0,23,23,33,,,,,,4,1,0.833055426651,,,,,,PLC_L_D1S1,P10,60.016273403,01,A,2015_Jan_28_1442,X,
stim/posf.jpg,stim/negf.jpg,stim/1.jpg,stim/6.jpg,stim/latef.jpg,AB,2,4,,,,,,,,,,,,,0,24,24,10,,,,,,4,1,0.783071279163,,,,,,PLC_L_D1S1,P10,60.016273403,01,A,2015_Jan_28_1442,X,
stim/posf.jpg,stim/negf.jpg,stim/2.jpg,stim/3.jpg,stim/latef.jpg,CD,2,4,,,,,,,,,,,,,0,25,25,30,,,,,,4,1,0.666397987985,,,,,,PLC_L_D1S1,P10,60.016273403,01,A,2015_Jan_28_1442,X,
stim/negf.jpg,stim/posf.jpg,stim/4.jpg,stim/5.jpg,stim/latef.jpg,EF,1,2,,,,,,,,,,,,,0,26,26,48,,,,,,2,1,0.649784209141,,,,,,PLC_L_D1S1,P10,60.016273403,01,A,2015_Jan_28_1442,X,
stim/posf.jpg,stim/negf.jpg,stim/4.jpg,stim/5.jpg,stim/latef.jpg,EF,1,2,,,,,,,,,,,,,0,27,27,45,,,,,,2,1,0.716422411862,,,,,,PLC_L_D1S1,P10,60.016273403,01,A,2015_Jan_28_1442,X,
stim/posf.jpg,stim/negf.jpg,stim/3.jpg,stim/2.jpg,stim/latef.jpg,CD,1,2,,,,,,,,,,,,,0,28,28,21,,,,,,2,1,0.616411136758,,,,,,PLC_L_D1S1,P10,60.016273403,01,A,2015_Jan_28_1442,X,
stim/posf.jpg,stim/negf.jpg,stim/6.jpg,stim/1.jpg,stim/latef.jpg,AB,1,2,,,,,,,,,,,,,0,29,29,5,,,,,,2,1,0.833013995383,,,,,,PLC_L_D1S1,P10,60.016273403,01,A,2015_Jan_28_1442,X,
stim/posf.jpg,stim/negf.jpg,stim/4.jpg,stim/5.jpg,stim/latef.jpg,EF,1,2,,,,,,,,,,,,,0,30,30,42,,,,,,2,1,0.766439828272,,,,,,PLC_L_D1S1,P10,60.016273403,01,A,2015_Jan_28_1442,X,
stim/posf.jpg,stim/negf.jpg,stim/5.jpg,stim/4.jpg,stim/latef.jpg,EF,2,4,,,,,,,,,,,,,0,31,31,53,,,,,,4,1,0.716421025406,,,,,,PLC_L_D1S1,P10,60.016273403,01,A,2015_Jan_28_1442,X,
stim/posf.jpg,stim/negf.jpg,stim/3.jpg,stim/2.jpg,stim/latef.jpg,CD,1,2,,,,,,,,,,,,,0,32,32,24,,,,,,2,1,0.666451112398,,,,,,PLC_L_D1S1,P10,60.016273403,01,A,2015_Jan_28_1442,X,
stim/posf.jpg,stim/negf.jpg,stim/5.jpg,stim/4.jpg,stim/latef.jpg,EF,2,4,,,,,,,,,,,,,0,33,33,54,,,,,,4,1,0.516509436771,,,,,,PLC_L_D1S1,P10,60.016273403,01,A,2015_Jan_28_1442,X,
stim/negf.jpg,stim/posf.jpg,stim/1.jpg,stim/6.jpg,stim/latef.jpg,AB,2,4,,,,,,,,,,,,,0,34,34,19,,,,,,4,1,0.716437698965,,,,,,PLC_L_D1S1,P10,60.016273403,01,A,2015_Jan_28_1442,X,
stim/negf.jpg,stim/posf.jpg,stim/2.jpg,stim/3.jpg,stim/latef.jpg,CD,2,4,,,,,,,,,,,,,0,35,35,38,,,,,,4,1,0.833000410523,,,,,,PLC_L_D1S1,P10,60.016273403,01,A,2015_Jan_28_1442,X,
stim/posf.jpg,stim/negf.jpg,stim/6.jpg,stim/1.jpg,stim/latef.jpg,AB,1,2,,,,,,,,,,,,,0,36,36,1,,,,,,2,1,0.766425425373,,,,,,PLC_L_D1S1,P10,60.016273403,01,A,2015_Jan_28_1442,X,
stim/posf.jpg,stim/negf.jpg,stim/3.jpg,stim/2.jpg,stim/latef.jpg,CD,1,2,,,,,,,,,,,,,0,37,37,26,,,,,,2,1,0.79974789964,,,,,,PLC_L_D1S1,P10,60.016273403,01,A,2015_Jan_28_1442,X,
stim/posf.jpg,stim/negf.jpg,stim/6.jpg,stim/1.jpg,stim/latef.jpg,AB,1,2,,,,,,,,,,,,,0,38,38,2,,,,,,2,1,0.866395545898,,,,,,PLC_L_D1S1,P10,60.016273403,01,A,2015_Jan_28_1442,X,
stim/posf.jpg,stim/negf.jpg,stim/4.jpg,stim/5.jpg,stim/latef.jpg,EF,1,2,,,,,,,,,,,,,0,39,39,40,,,,,,2,1,0.533075459583,,,,,,PLC_L_D1S1,P10,60.016273403,01,A,2015_Jan_28_1442,X,
stim/posf.jpg,stim/negf.jpg,stim/6.jpg,stim/1.jpg,stim/latef.jpg,AB,1,2,,,,,,,,,,,,,0,40,40,0,,,,,,2,1,0.799795144397,,,,,,PLC_L_D1S1,P10,60.016273403,01,A,2015_Jan_28_1442,X,
stim/posf.jpg,stim/negf.jpg,stim/5.jpg,stim/4.jpg,stim/latef.jpg,EF,2,4,,,,,,,,,,,,,0,41,41,52,,,,,,4,1,0.566496134615,,,,,,PLC_L_D1S1,P10,60.016273403,01,A,2015_Jan_28_1442,X,
stim/posf.jpg,stim/negf.jpg,stim/2.jpg,stim/3.jpg,stim/latef.jpg,CD,2,4,,,,,,,,,,,,,0,42,42,31,,,,,,4,1,0.982942095172,,,,,,PLC_L_D1S1,P10,60.016273403,01,A,2015_Jan_28_1442,X,
stim/negf.jpg,stim/posf.jpg,stim/6.jpg,stim/1.jpg,stim/latef.jpg,AB,1,2,,,,,,,,,,,,,0,43,43,8,,,,,,2,1,0.733059408576,,,,,,PLC_L_D1S1,P10,60.016273403,01,A,2015_Jan_28_1442,X,
stim/posf.jpg,stim/negf.jpg,stim/1.jpg,stim/6.jpg,stim/latef.jpg,AB,2,4,,,,,,,,,,,,,0,44,44,15,,,,,,4,1,1.13292066977,,,,,,PLC_L_D1S1,P10,60.016273403,01,A,2015_Jan_28_1442,X,
stim/posf.jpg,stim/negf.jpg,stim/3.jpg,stim/2.jpg,stim/latef.jpg,CD,1,2,,,,,,,,,,,,,0,45,45,23,,,,,,2,1,0.733127750919,,,,,,PLC_L_D1S1,P10,60.016273403,01,A,2015_Jan_28_1442,X,
stim/negf.jpg,stim/posf.jpg,stim/4.jpg,stim/5.jpg,stim/latef.jpg,EF,1,2,,,,,,,,,,,,,0,46,46,46,,,,,,2,1,0.549815508154,,,,,,PLC_L_D1S1,P10,60.016273403,01,A,2015_Jan_28_1442,X,
stim/posf.jpg,stim/negf.jpg,stim/6.jpg,stim/1.jpg,stim/latef.jpg,AB,1,2,,,,,,,,,,,,,0,47,47,6,,,,,,2,1,0.649782073819,,,,,,PLC_L_D1S1,P10,60.016273403,01,A,2015_Jan_28_1442,X,
stim/negf.jpg,stim/posf.jpg,stim/5.jpg,stim/4.jpg,stim/latef.jpg,EF,2,4,,,,,,,,,,,,,0,48,48,56,,,,,,4,1,0.683121964497,,,,,,PLC_L_D1S1,P10,60.016273403,01,A,2015_Jan_28_1442,X,
stim/posf.jpg,stim/negf.jpg,stim/4.jpg,stim/5.jpg,stim/latef.jpg,EF,1,2,,,,,,,,,,,,,0,49,49,43,,,,,,2,1,0.599759905564,,,,,,PLC_L_D1S1,P10,60.016273403,01,A,2015_Jan_28_1442,X,
stim/negf.jpg,stim/posf.jpg,stim/4.jpg,stim/5.jpg,stim/latef.jpg,EF,1,2,,,,,,,,,,,,,0,50,50,49,,,,,,2,1,0.63312544417,,,,,,PLC_L_D1S1,P10,60.016273403,01,A,2015_Jan_28_1442,X,
stim/posf.jpg,stim/negf.jpg,stim/6.jpg,stim/1.jpg,stim/latef.jpg,AB,1,2,,,,,,,,,,,,,0,51,51,7,,,,,,2,1,0.54977319569,,,,,,PLC_L_D1S1,P10,60.016273403,01,A,2015_Jan_28_1442,X,
stim/posf.jpg,stim/negf.jpg,stim/1.jpg,stim/6.jpg,stim/latef.jpg,AB,2,4,,,,,,,,,,,,,0,52,52,14,,,,,,4,1,0.54983082834,,,,,,PLC_L_D1S1,P10,60.016273403,01,A,2015_Jan_28_1442,X,
stim/posf.jpg,stim/negf.jpg,stim/2.jpg,stim/3.jpg,stim/latef.jpg,CD,2,4,,,,,,,,,,,,,0,53,53,34,,,,,,4,1,0.749750188344,,,,,,PLC_L_D1S1,P10,60.016273403,01,A,2015_Jan_28_1442,X,
stim/negf.jpg,stim/posf.jpg,stim/2.jpg,stim/3.jpg,stim/latef.jpg,CD,2,4,,,,,,,,,,,,,0,54,54,39,,,,,,4,1,0.616457963474,,,,,,PLC_L_D1S1,P10,60.016273403,01,A,2015_Jan_28_1442,X,
stim/negf.jpg,stim/posf.jpg,stim/5.jpg,stim/4.jpg,stim/latef.jpg,EF,2,4,,,,,,,,,,,,,0,55,55,57,,,,,,4,1,1.0496621078,,,,,,PLC_L_D1S1,P10,60.016273403,01,A,2015_Jan_28_1442,X,
stim/posf.jpg,stim/negf.jpg,stim/1.jpg,stim/6.jpg,stim/latef.jpg,AB,2,4,,,,,,,,,,,,,0,56,56,17,,,,,,4,1,0.733119708875,,,,,,PLC_L_D1S1,P10,60.016273403,01,A,2015_Jan_28_1442,X,
stim/posf.jpg,stim/negf.jpg,stim/2.jpg,stim/3.jpg,stim/latef.jpg,CD,2,4,,,,,,,,,,,,,0,57,57,36,,,,,,4,1,0.633049565041,,,,,,PLC_L_D1S1,P10,60.016273403,01,A,2015_Jan_28_1442,X,
stim/posf.jpg,stim/negf.jpg,stim/1.jpg,stim/6.jpg,stim/latef.jpg,AB,2,4,,,,,,,,,,,,,0,58,58,13,,,,,,4,1,0.683106978143,,,,,,PLC_L_D1S1,P10,60.016273403,01,A,2015_Jan_28_1442,X,
stim/posf.jpg,stim/negf.jpg,stim/4.jpg,stim/5.jpg,stim/latef.jpg,EF,1,2,,,,,,,,,,,,,0,59,59,44,,,,,,2,1,0.633121170517,,,,,,PLC_L_D1S1,P10,60.016273403,01,A,2015_Jan_28_1442,X,
