fb_corr,fb_incorr,symbol2,symbol1,fb_late,pair,position,correct,block_01.thisRepN,block_01.thisTrialN,block_01.thisN,block_01.thisIndex,block_02.thisRepN,block_02.thisTrialN,block_02.thisN,block_02.thisIndex,block_03.thisRepN,block_03.thisTrialN,block_03.thisN,block_03.thisIndex,block_04.thisRepN,block_04.thisTrialN,block_04.thisN,block_04.thisIndex,mouse.x,mouse.y,mouse.leftButton,mouse.midButton,mouse.rightButton,buttonBox_2.keys,buttonBox_2.corr,buttonBox_2.rt,mouse_2.x,mouse_2.y,mouse_2.leftButton,mouse_2.midButton,mouse_2.rightButton,expName,Participant,frameRate,SessionNumber,Version,date,Group,
,,,,,,,,,,,,,,,,,,,,,,,,0.9984375,1.0,1,0,0,,,,,,,,,PLC_L_D1S1,P12,60.0166937207,01,C,2015_Jan_30_1558,X,
stim/posf.jpg,stim/negf.jpg,stim/4.jpg,stim/2.jpg,stim/latef.jpg,CD,2,4,0,0,0,32,,,,,,,,,,,,,,,,,,4,1,1.33290303983,,,,,,PLC_L_D1S1,P12,60.0166937207,01,C,2015_Jan_30_1558,X,
stim/posf.jpg,stim/negf.jpg,stim/3.jpg,stim/1.jpg,stim/latef.jpg,AB,1,2,0,1,1,5,,,,,,,,,,,,,,,,,,4,0,1.34956123939,,,,,,PLC_L_D1S1,P12,60.0166937207,01,C,2015_Jan_30_1558,X,
stim/negf.jpg,stim/posf.jpg,stim/6.jpg,stim/5.jpg,stim/latef.jpg,EF,1,2,0,2,2,48,,,,,,,,,,,,,,,,,,4,0,1.24958357907,,,,,,PLC_L_D1S1,P12,60.0166937207,01,C,2015_Jan_30_1558,X,
stim/posf.jpg,stim/negf.jpg,stim/1.jpg,stim/3.jpg,stim/latef.jpg,AB,2,4,0,3,3,12,,,,,,,,,,,,,,,,,,None,0,,,,,,,PLC_L_D1S1,P12,60.0166937207,01,C,2015_Jan_30_1558,X,
stim/posf.jpg,stim/negf.jpg,stim/2.jpg,stim/4.jpg,stim/latef.jpg,CD,1,2,0,4,4,23,,,,,,,,,,,,,,,,,,2,1,1.09972034496,,,,,,PLC_L_D1S1,P12,60.0166937207,01,C,2015_Jan_30_1558,X,
stim/posf.jpg,stim/negf.jpg,stim/2.jpg,stim/4.jpg,stim/latef.jpg,CD,1,2,0,5,5,25,,,,,,,,,,,,,,,,,,2,1,0.749743304186,,,,,,PLC_L_D1S1,P12,60.0166937207,01,C,2015_Jan_30_1558,X,
stim/posf.jpg,stim/negf.jpg,stim/1.jpg,stim/3.jpg,stim/latef.jpg,AB,2,4,0,6,6,14,,,,,,,,,,,,,,,,,,4,1,1.16629026549,,,,,,PLC_L_D1S1,P12,60.0166937207,01,C,2015_Jan_30_1558,X,
stim/posf.jpg,stim/negf.jpg,stim/3.jpg,stim/1.jpg,stim/latef.jpg,AB,1,2,0,7,7,2,,,,,,,,,,,,,,,,,,2,1,1.1662290058,,,,,,PLC_L_D1S1,P12,60.0166937207,01,C,2015_Jan_30_1558,X,
stim/posf.jpg,stim/negf.jpg,stim/4.jpg,stim/2.jpg,stim/latef.jpg,CD,2,4,0,8,8,30,,,,,,,,,,,,,,,,,,4,1,1.26622677423,,,,,,PLC_L_D1S1,P12,60.0166937207,01,C,2015_Jan_30_1558,X,
stim/posf.jpg,stim/negf.jpg,stim/5.jpg,stim/6.jpg,stim/latef.jpg,EF,2,4,0,9,9,53,,,,,,,,,,,,,,,,,,2,0,0.683116193111,,,,,,PLC_L_D1S1,P12,60.0166937207,01,C,2015_Jan_30_1558,X,
stim/posf.jpg,stim/negf.jpg,stim/1.jpg,stim/3.jpg,stim/latef.jpg,AB,2,4,0,10,10,13,,,,,,,,,,,,,,,,,,2,0,1.53284601168,,,,,,PLC_L_D1S1,P12,60.0166937207,01,C,2015_Jan_30_1558,X,
stim/posf.jpg,stim/negf.jpg,stim/3.jpg,stim/1.jpg,stim/latef.jpg,AB,1,2,0,11,11,4,,,,,,,,,,,,,,,,,,2,1,1.31620761047,,,,,,PLC_L_D1S1,P12,60.0166937207,01,C,2015_Jan_30_1558,X,
stim/posf.jpg,stim/negf.jpg,stim/6.jpg,stim/5.jpg,stim/latef.jpg,EF,1,2,0,12,12,45,,,,,,,,,,,,,,,,,,4,0,1.09964169893,,,,,,PLC_L_D1S1,P12,60.0166937207,01,C,2015_Jan_30_1558,X,
stim/posf.jpg,stim/negf.jpg,stim/4.jpg,stim/2.jpg,stim/latef.jpg,CD,2,4,0,13,13,36,,,,,,,,,,,,,,,,,,4,1,1.14964507635,,,,,,PLC_L_D1S1,P12,60.0166937207,01,C,2015_Jan_30_1558,X,
stim/posf.jpg,stim/negf.jpg,stim/2.jpg,stim/4.jpg,stim/latef.jpg,CD,1,2,0,14,14,21,,,,,,,,,,,,,,,,,,2,1,1.01629053315,,,,,,PLC_L_D1S1,P12,60.0166937207,01,C,2015_Jan_30_1558,X,
stim/posf.jpg,stim/negf.jpg,stim/3.jpg,stim/1.jpg,stim/latef.jpg,AB,1,2,0,15,15,0,,,,,,,,,,,,,,,,,,2,1,1.11632529981,,,,,,PLC_L_D1S1,P12,60.0166937207,01,C,2015_Jan_30_1558,X,
stim/posf.jpg,stim/negf.jpg,stim/3.jpg,stim/1.jpg,stim/latef.jpg,AB,1,2,0,16,16,6,,,,,,,,,,,,,,,,,,2,1,1.28292773739,,,,,,PLC_L_D1S1,P12,60.0166937207,01,C,2015_Jan_30_1558,X,
stim/posf.jpg,stim/negf.jpg,stim/2.jpg,stim/4.jpg,stim/latef.jpg,CD,1,2,0,17,17,24,,,,,,,,,,,,,,,,,,2,1,1.1162506327,,,,,,PLC_L_D1S1,P12,60.0166937207,01,C,2015_Jan_30_1558,X,
stim/posf.jpg,stim/negf.jpg,stim/1.jpg,stim/3.jpg,stim/latef.jpg,AB,2,4,0,18,18,16,,,,,,,,,,,,,,,,,,4,1,1.58284897106,,,,,,PLC_L_D1S1,P12,60.0166937207,01,C,2015_Jan_30_1558,X,
stim/posf.jpg,stim/negf.jpg,stim/6.jpg,stim/5.jpg,stim/latef.jpg,EF,1,2,0,19,19,40,,,,,,,,,,,,,,,,,,2,1,1.01638184375,,,,,,PLC_L_D1S1,P12,60.0166937207,01,C,2015_Jan_30_1558,X,
stim/negf.jpg,stim/posf.jpg,stim/4.jpg,stim/2.jpg,stim/latef.jpg,CD,2,4,0,20,20,38,,,,,,,,,,,,,,,,,,4,1,0.966375302442,,,,,,PLC_L_D1S1,P12,60.0166937207,01,C,2015_Jan_30_1558,X,
stim/posf.jpg,stim/negf.jpg,stim/6.jpg,stim/5.jpg,stim/latef.jpg,EF,1,2,0,21,21,44,,,,,,,,,,,,,,,,,,2,1,1.24957780167,,,,,,PLC_L_D1S1,P12,60.0166937207,01,C,2015_Jan_30_1558,X,
stim/negf.jpg,stim/posf.jpg,stim/3.jpg,stim/1.jpg,stim/latef.jpg,AB,1,2,0,22,22,8,,,,,,,,,,,,,,,,,,2,1,1.04965539808,,,,,,PLC_L_D1S1,P12,60.0166937207,01,C,2015_Jan_30_1558,X,
stim/posf.jpg,stim/negf.jpg,stim/4.jpg,stim/2.jpg,stim/latef.jpg,CD,2,4,0,23,23,33,,,,,,,,,,,,,,,,,,4,1,0.84975563492,,,,,,PLC_L_D1S1,P12,60.0166937207,01,C,2015_Jan_30_1558,X,
stim/negf.jpg,stim/posf.jpg,stim/1.jpg,stim/3.jpg,stim/latef.jpg,AB,2,4,0,24,24,19,,,,,,,,,,,,,,,,,,4,1,1.16632305922,,,,,,PLC_L_D1S1,P12,60.0166937207,01,C,2015_Jan_30_1558,X,
stim/negf.jpg,stim/posf.jpg,stim/2.jpg,stim/4.jpg,stim/latef.jpg,CD,1,2,0,25,25,29,,,,,,,,,,,,,,,,,,2,1,0.883062184495,,,,,,PLC_L_D1S1,P12,60.0166937207,01,C,2015_Jan_30_1558,X,
stim/posf.jpg,stim/negf.jpg,stim/1.jpg,stim/3.jpg,stim/latef.jpg,AB,2,4,0,26,26,10,,,,,,,,,,,,,,,,,,4,1,1.58280884505,,,,,,PLC_L_D1S1,P12,60.0166937207,01,C,2015_Jan_30_1558,X,
stim/posf.jpg,stim/negf.jpg,stim/3.jpg,stim/1.jpg,stim/latef.jpg,AB,1,2,0,27,27,1,,,,,,,,,,,,,,,,,,2,1,1.18294224254,,,,,,PLC_L_D1S1,P12,60.0166937207,01,C,2015_Jan_30_1558,X,
stim/negf.jpg,stim/posf.jpg,stim/6.jpg,stim/5.jpg,stim/latef.jpg,EF,1,2,0,28,28,47,,,,,,,,,,,,,,,,,,2,1,1.09965437854,,,,,,PLC_L_D1S1,P12,60.0166937207,01,C,2015_Jan_30_1558,X,
stim/negf.jpg,stim/posf.jpg,stim/4.jpg,stim/2.jpg,stim/latef.jpg,CD,2,4,0,29,29,37,,,,,,,,,,,,,,,,,,4,1,0.766412354794,,,,,,PLC_L_D1S1,P12,60.0166937207,01,C,2015_Jan_30_1558,X,
stim/negf.jpg,stim/posf.jpg,stim/5.jpg,stim/6.jpg,stim/latef.jpg,EF,2,4,0,30,30,58,,,,,,,,,,,,,,,,,,4,1,1.51618508131,,,,,,PLC_L_D1S1,P12,60.0166937207,01,C,2015_Jan_30_1558,X,
stim/posf.jpg,stim/negf.jpg,stim/4.jpg,stim/2.jpg,stim/latef.jpg,CD,2,4,0,31,31,35,,,,,,,,,,,,,,,,,,4,1,0.799686345215,,,,,,PLC_L_D1S1,P12,60.0166937207,01,C,2015_Jan_30_1558,X,
stim/posf.jpg,stim/negf.jpg,stim/1.jpg,stim/3.jpg,stim/latef.jpg,AB,2,4,0,32,32,15,,,,,,,,,,,,,,,,,,4,1,1.03298879557,,,,,,PLC_L_D1S1,P12,60.0166937207,01,C,2015_Jan_30_1558,X,
stim/negf.jpg,stim/posf.jpg,stim/5.jpg,stim/6.jpg,stim/latef.jpg,EF,2,4,0,33,33,59,,,,,,,,,,,,,,,,,,2,0,1.29957663476,,,,,,PLC_L_D1S1,P12,60.0166937207,01,C,2015_Jan_30_1558,X,
stim/posf.jpg,stim/negf.jpg,stim/4.jpg,stim/2.jpg,stim/latef.jpg,CD,2,4,0,34,34,34,,,,,,,,,,,,,,,,,,4,1,0.733080674581,,,,,,PLC_L_D1S1,P12,60.0166937207,01,C,2015_Jan_30_1558,X,
stim/posf.jpg,stim/negf.jpg,stim/6.jpg,stim/5.jpg,stim/latef.jpg,EF,1,2,0,35,35,43,,,,,,,,,,,,,,,,,,4,0,1.08291913895,,,,,,PLC_L_D1S1,P12,60.0166937207,01,C,2015_Jan_30_1558,X,
stim/posf.jpg,stim/negf.jpg,stim/5.jpg,stim/6.jpg,stim/latef.jpg,EF,2,4,0,36,36,52,,,,,,,,,,,,,,,,,,2,0,1.23296958068,,,,,,PLC_L_D1S1,P12,60.0166937207,01,C,2015_Jan_30_1558,X,
stim/posf.jpg,stim/negf.jpg,stim/3.jpg,stim/1.jpg,stim/latef.jpg,AB,1,2,0,37,37,7,,,,,,,,,,,,,,,,,,2,1,1.29955955519,,,,,,PLC_L_D1S1,P12,60.0166937207,01,C,2015_Jan_30_1558,X,
stim/posf.jpg,stim/negf.jpg,stim/5.jpg,stim/6.jpg,stim/latef.jpg,EF,2,4,0,38,38,50,,,,,,,,,,,,,,,,,,4,1,1.39954039744,,,,,,PLC_L_D1S1,P12,60.0166937207,01,C,2015_Jan_30_1558,X,
stim/negf.jpg,stim/posf.jpg,stim/1.jpg,stim/3.jpg,stim/latef.jpg,AB,2,4,0,39,39,18,,,,,,,,,,,,,,,,,,4,1,0.883033468922,,,,,,PLC_L_D1S1,P12,60.0166937207,01,C,2015_Jan_30_1558,X,
stim/negf.jpg,stim/posf.jpg,stim/6.jpg,stim/5.jpg,stim/latef.jpg,EF,1,2,0,40,40,49,,,,,,,,,,,,,,,,,,4,0,1.1162928369,,,,,,PLC_L_D1S1,P12,60.0166937207,01,C,2015_Jan_30_1558,X,
stim/posf.jpg,stim/negf.jpg,stim/2.jpg,stim/4.jpg,stim/latef.jpg,CD,1,2,0,41,41,22,,,,,,,,,,,,,,,,,,2,1,0.933017481072,,,,,,PLC_L_D1S1,P12,60.0166937207,01,C,2015_Jan_30_1558,X,
stim/negf.jpg,stim/posf.jpg,stim/2.jpg,stim/4.jpg,stim/latef.jpg,CD,1,2,0,42,42,28,,,,,,,,,,,,,,,,,,2,1,0.94969024293,,,,,,PLC_L_D1S1,P12,60.0166937207,01,C,2015_Jan_30_1558,X,
stim/posf.jpg,stim/negf.jpg,stim/4.jpg,stim/2.jpg,stim/latef.jpg,CD,2,4,0,43,43,31,,,,,,,,,,,,,,,,,,4,1,1.11628227457,,,,,,PLC_L_D1S1,P12,60.0166937207,01,C,2015_Jan_30_1558,X,
stim/negf.jpg,stim/posf.jpg,stim/4.jpg,stim/2.jpg,stim/latef.jpg,CD,2,4,0,44,44,39,,,,,,,,,,,,,,,,,,4,1,0.783048106406,,,,,,PLC_L_D1S1,P12,60.0166937207,01,C,2015_Jan_30_1558,X,
stim/posf.jpg,stim/negf.jpg,stim/2.jpg,stim/4.jpg,stim/latef.jpg,CD,1,2,0,45,45,26,,,,,,,,,,,,,,,,,,2,1,0.816345615446,,,,,,PLC_L_D1S1,P12,60.0166937207,01,C,2015_Jan_30_1558,X,
stim/negf.jpg,stim/posf.jpg,stim/5.jpg,stim/6.jpg,stim/latef.jpg,EF,2,4,0,46,46,56,,,,,,,,,,,,,,,,,,2,0,1.38289836317,,,,,,PLC_L_D1S1,P12,60.0166937207,01,C,2015_Jan_30_1558,X,
stim/posf.jpg,stim/negf.jpg,stim/1.jpg,stim/3.jpg,stim/latef.jpg,AB,2,4,0,47,47,11,,,,,,,,,,,,,,,,,,4,1,1.09961952767,,,,,,PLC_L_D1S1,P12,60.0166937207,01,C,2015_Jan_30_1558,X,
stim/posf.jpg,stim/negf.jpg,stim/2.jpg,stim/4.jpg,stim/latef.jpg,CD,1,2,0,48,48,20,,,,,,,,,,,,,,,,,,2,1,1.03299941504,,,,,,PLC_L_D1S1,P12,60.0166937207,01,C,2015_Jan_30_1558,X,
stim/negf.jpg,stim/posf.jpg,stim/3.jpg,stim/1.jpg,stim/latef.jpg,AB,1,2,0,49,49,9,,,,,,,,,,,,,,,,,,2,1,1.48282494417,,,,,,PLC_L_D1S1,P12,60.0166937207,01,C,2015_Jan_30_1558,X,
stim/posf.jpg,stim/negf.jpg,stim/5.jpg,stim/6.jpg,stim/latef.jpg,EF,2,4,0,50,50,54,,,,,,,,,,,,,,,,,,2,0,0.849718537454,,,,,,PLC_L_D1S1,P12,60.0166937207,01,C,2015_Jan_30_1558,X,
stim/posf.jpg,stim/negf.jpg,stim/5.jpg,stim/6.jpg,stim/latef.jpg,EF,2,4,0,51,51,51,,,,,,,,,,,,,,,,,,4,1,0.733131723821,,,,,,PLC_L_D1S1,P12,60.0166937207,01,C,2015_Jan_30_1558,X,
stim/posf.jpg,stim/negf.jpg,stim/1.jpg,stim/3.jpg,stim/latef.jpg,AB,2,4,0,52,52,17,,,,,,,,,,,,,,,,,,4,1,1.31628460237,,,,,,PLC_L_D1S1,P12,60.0166937207,01,C,2015_Jan_30_1558,X,
stim/negf.jpg,stim/posf.jpg,stim/2.jpg,stim/4.jpg,stim/latef.jpg,CD,1,2,0,53,53,27,,,,,,,,,,,,,,,,,,2,1,0.749727845656,,,,,,PLC_L_D1S1,P12,60.0166937207,01,C,2015_Jan_30_1558,X,
stim/posf.jpg,stim/negf.jpg,stim/5.jpg,stim/6.jpg,stim/latef.jpg,EF,2,4,0,54,54,55,,,,,,,,,,,,,,,,,,4,1,1.24957061075,,,,,,PLC_L_D1S1,P12,60.0166937207,01,C,2015_Jan_30_1558,X,
stim/posf.jpg,stim/negf.jpg,stim/6.jpg,stim/5.jpg,stim/latef.jpg,EF,1,2,0,55,55,41,,,,,,,,,,,,,,,,,,2,1,1.03099831129,,,,,,PLC_L_D1S1,P12,60.0166937207,01,C,2015_Jan_30_1558,X,
stim/negf.jpg,stim/posf.jpg,stim/5.jpg,stim/6.jpg,stim/latef.jpg,EF,2,4,0,56,56,57,,,,,,,,,,,,,,,,,,4,1,0.699760107067,,,,,,PLC_L_D1S1,P12,60.0166937207,01,C,2015_Jan_30_1558,X,
stim/posf.jpg,stim/negf.jpg,stim/6.jpg,stim/5.jpg,stim/latef.jpg,EF,1,2,0,57,57,42,,,,,,,,,,,,,,,,,,2,1,0.783005021014,,,,,,PLC_L_D1S1,P12,60.0166937207,01,C,2015_Jan_30_1558,X,
stim/posf.jpg,stim/negf.jpg,stim/3.jpg,stim/1.jpg,stim/latef.jpg,AB,1,2,0,58,58,3,,,,,,,,,,,,,,,,,,2,1,1.14961832467,,,,,,PLC_L_D1S1,P12,60.0166937207,01,C,2015_Jan_30_1558,X,
stim/negf.jpg,stim/posf.jpg,stim/6.jpg,stim/5.jpg,stim/latef.jpg,EF,1,2,0,59,59,46,,,,,,,,,,,,,,,,,,None,0,,,,,,,PLC_L_D1S1,P12,60.0166937207,01,C,2015_Jan_30_1558,X,
,,,,,,,,,,,,,,,,,,,,,,,,,,,,,,,,0.9984375,1.0,1,0,0,PLC_L_D1S1,P12,60.0166937207,01,C,2015_Jan_30_1558,X,
stim/posf.jpg,stim/negf.jpg,stim/4.jpg,stim/2.jpg,stim/latef.jpg,CD,2,4,,,,,0,0,0,34,,,,,,,,,,,,,,4,1,0.883021195329,,,,,,PLC_L_D1S1,P12,60.0166937207,01,C,2015_Jan_30_1558,X,
stim/posf.jpg,stim/negf.jpg,stim/4.jpg,stim/2.jpg,stim/latef.jpg,CD,2,4,,,,,0,1,1,36,,,,,,,,,,,,,,4,1,0.766445813189,,,,,,PLC_L_D1S1,P12,60.0166937207,01,C,2015_Jan_30_1558,X,
stim/negf.jpg,stim/posf.jpg,stim/2.jpg,stim/4.jpg,stim/latef.jpg,CD,1,2,,,,,0,2,2,29,,,,,,,,,,,,,,2,1,0.783116866791,,,,,,PLC_L_D1S1,P12,60.0166937207,01,C,2015_Jan_30_1558,X,
stim/negf.jpg,stim/posf.jpg,stim/5.jpg,stim/6.jpg,stim/latef.jpg,EF,2,4,,,,,0,3,3,56,,,,,,,,,,,,,,4,1,0.866303029301,,,,,,PLC_L_D1S1,P12,60.0166937207,01,C,2015_Jan_30_1558,X,
stim/posf.jpg,stim/negf.jpg,stim/3.jpg,stim/1.jpg,stim/latef.jpg,AB,1,2,,,,,0,4,4,3,,,,,,,,,,,,,,2,1,1.33288151518,,,,,,PLC_L_D1S1,P12,60.0166937207,01,C,2015_Jan_30_1558,X,
stim/posf.jpg,stim/negf.jpg,stim/1.jpg,stim/3.jpg,stim/latef.jpg,AB,2,4,,,,,0,5,5,11,,,,,,,,,,,,,,4,1,0.849781397132,,,,,,PLC_L_D1S1,P12,60.0166937207,01,C,2015_Jan_30_1558,X,
stim/posf.jpg,stim/negf.jpg,stim/3.jpg,stim/1.jpg,stim/latef.jpg,AB,1,2,,,,,0,6,6,2,,,,,,,,,,,,,,2,1,0.932968639334,,,,,,PLC_L_D1S1,P12,60.0166937207,01,C,2015_Jan_30_1558,X,
stim/posf.jpg,stim/negf.jpg,stim/1.jpg,stim/3.jpg,stim/latef.jpg,AB,2,4,,,,,0,7,7,10,,,,,,,,,,,,,,4,1,0.816418583319,,,,,,PLC_L_D1S1,P12,60.0166937207,01,C,2015_Jan_30_1558,X,
stim/negf.jpg,stim/posf.jpg,stim/6.jpg,stim/5.jpg,stim/latef.jpg,EF,1,2,,,,,0,8,8,49,,,,,,,,,,,,,,2,1,1.13300868114,,,,,,PLC_L_D1S1,P12,60.0166937207,01,C,2015_Jan_30_1558,X,
stim/negf.jpg,stim/posf.jpg,stim/4.jpg,stim/2.jpg,stim/latef.jpg,CD,2,4,,,,,0,9,9,39,,,,,,,,,,,,,,4,1,0.933030996759,,,,,,PLC_L_D1S1,P12,60.0166937207,01,C,2015_Jan_30_1558,X,
stim/posf.jpg,stim/negf.jpg,stim/5.jpg,stim/6.jpg,stim/latef.jpg,EF,2,4,,,,,0,10,10,54,,,,,,,,,,,,,,None,0,,,,,,,PLC_L_D1S1,P12,60.0166937207,01,C,2015_Jan_30_1558,X,
stim/posf.jpg,stim/negf.jpg,stim/2.jpg,stim/4.jpg,stim/latef.jpg,CD,1,2,,,,,0,11,11,20,,,,,,,,,,,,,,2,1,1.09961930813,,,,,,PLC_L_D1S1,P12,60.0166937207,01,C,2015_Jan_30_1558,X,
stim/posf.jpg,stim/negf.jpg,stim/3.jpg,stim/1.jpg,stim/latef.jpg,AB,1,2,,,,,0,12,12,1,,,,,,,,,,,,,,2,1,1.06632721859,,,,,,PLC_L_D1S1,P12,60.0166937207,01,C,2015_Jan_30_1558,X,
stim/posf.jpg,stim/negf.jpg,stim/3.jpg,stim/1.jpg,stim/latef.jpg,AB,1,2,,,,,0,13,13,7,,,,,,,,,,,,,,2,1,0.96635258983,,,,,,PLC_L_D1S1,P12,60.0166937207,01,C,2015_Jan_30_1558,X,
stim/negf.jpg,stim/posf.jpg,stim/6.jpg,stim/5.jpg,stim/latef.jpg,EF,1,2,,,,,0,14,14,47,,,,,,,,,,,,,,2,1,1.24958600612,,,,,,PLC_L_D1S1,P12,60.0166937207,01,C,2015_Jan_30_1558,X,
stim/posf.jpg,stim/negf.jpg,stim/2.jpg,stim/4.jpg,stim/latef.jpg,CD,1,2,,,,,0,15,15,24,,,,,,,,,,,,,,2,1,0.899708116481,,,,,,PLC_L_D1S1,P12,60.0166937207,01,C,2015_Jan_30_1558,X,
stim/posf.jpg,stim/negf.jpg,stim/2.jpg,stim/4.jpg,stim/latef.jpg,CD,1,2,,,,,0,16,16,25,,,,,,,,,,,,,,2,1,1.11630263231,,,,,,PLC_L_D1S1,P12,60.0166937207,01,C,2015_Jan_30_1558,X,
stim/posf.jpg,stim/negf.jpg,stim/6.jpg,stim/5.jpg,stim/latef.jpg,EF,1,2,,,,,0,17,17,44,,,,,,,,,,,,,,2,1,1.21628891211,,,,,,PLC_L_D1S1,P12,60.0166937207,01,C,2015_Jan_30_1558,X,
stim/negf.jpg,stim/posf.jpg,stim/1.jpg,stim/3.jpg,stim/latef.jpg,AB,2,4,,,,,0,18,18,19,,,,,,,,,,,,,,4,1,1.31617727686,,,,,,PLC_L_D1S1,P12,60.0166937207,01,C,2015_Jan_30_1558,X,
stim/negf.jpg,stim/posf.jpg,stim/6.jpg,stim/5.jpg,stim/latef.jpg,EF,1,2,,,,,0,19,19,48,,,,,,,,,,,,,,2,1,1.26624412749,,,,,,PLC_L_D1S1,P12,60.0166937207,01,C,2015_Jan_30_1558,X,
stim/negf.jpg,stim/posf.jpg,stim/4.jpg,stim/2.jpg,stim/latef.jpg,CD,2,4,,,,,0,20,20,38,,,,,,,,,,,,,,4,1,0.749722068255,,,,,,PLC_L_D1S1,P12,60.0166937207,01,C,2015_Jan_30_1558,X,
stim/posf.jpg,stim/negf.jpg,stim/6.jpg,stim/5.jpg,stim/latef.jpg,EF,1,2,,,,,0,21,21,41,,,,,,,,,,,,,,2,1,1.51617024834,,,,,,PLC_L_D1S1,P12,60.0166937207,01,C,2015_Jan_30_1558,X,
stim/negf.jpg,stim/posf.jpg,stim/5.jpg,stim/6.jpg,stim/latef.jpg,EF,2,4,,,,,0,22,22,58,,,,,,,,,,,,,,4,1,0.999669013015,,,,,,PLC_L_D1S1,P12,60.0166937207,01,C,2015_Jan_30_1558,X,
stim/posf.jpg,stim/negf.jpg,stim/5.jpg,stim/6.jpg,stim/latef.jpg,EF,2,4,,,,,0,23,23,55,,,,,,,,,,,,,,4,1,1.28289840527,,,,,,PLC_L_D1S1,P12,60.0166937207,01,C,2015_Jan_30_1558,X,
stim/posf.jpg,stim/negf.jpg,stim/1.jpg,stim/3.jpg,stim/latef.jpg,AB,2,4,,,,,0,24,24,15,,,,,,,,,,,,,,4,1,1.46617164984,,,,,,PLC_L_D1S1,P12,60.0166937207,01,C,2015_Jan_30_1558,X,
stim/negf.jpg,stim/posf.jpg,stim/2.jpg,stim/4.jpg,stim/latef.jpg,CD,1,2,,,,,0,25,25,28,,,,,,,,,,,,,,2,1,0.799696687995,,,,,,PLC_L_D1S1,P12,60.0166937207,01,C,2015_Jan_30_1558,X,
stim/posf.jpg,stim/negf.jpg,stim/4.jpg,stim/2.jpg,stim/latef.jpg,CD,2,4,,,,,0,26,26,32,,,,,,,,,,,,,,4,1,0.89972632687,,,,,,PLC_L_D1S1,P12,60.0166937207,01,C,2015_Jan_30_1558,X,
stim/negf.jpg,stim/posf.jpg,stim/5.jpg,stim/6.jpg,stim/latef.jpg,EF,2,4,,,,,0,27,27,59,,,,,,,,,,,,,,4,1,0.849737851596,,,,,,PLC_L_D1S1,P12,60.0166937207,01,C,2015_Jan_30_1558,X,
stim/negf.jpg,stim/posf.jpg,stim/2.jpg,stim/4.jpg,stim/latef.jpg,CD,1,2,,,,,0,28,28,27,,,,,,,,,,,,,,2,1,0.833005093195,,,,,,PLC_L_D1S1,P12,60.0166937207,01,C,2015_Jan_30_1558,X,
stim/posf.jpg,stim/negf.jpg,stim/2.jpg,stim/4.jpg,stim/latef.jpg,CD,1,2,,,,,0,29,29,23,,,,,,,,,,,,,,2,1,0.716433034338,,,,,,PLC_L_D1S1,P12,60.0166937207,01,C,2015_Jan_30_1558,X,
stim/negf.jpg,stim/posf.jpg,stim/6.jpg,stim/5.jpg,stim/latef.jpg,EF,1,2,,,,,0,30,30,46,,,,,,,,,,,,,,4,0,1.19959858347,,,,,,PLC_L_D1S1,P12,60.0166937207,01,C,2015_Jan_30_1558,X,
stim/posf.jpg,stim/negf.jpg,stim/2.jpg,stim/4.jpg,stim/latef.jpg,CD,1,2,,,,,0,31,31,21,,,,,,,,,,,,,,2,1,1.01631896001,,,,,,PLC_L_D1S1,P12,60.0166937207,01,C,2015_Jan_30_1558,X,
stim/posf.jpg,stim/negf.jpg,stim/6.jpg,stim/5.jpg,stim/latef.jpg,EF,1,2,,,,,0,32,32,42,,,,,,,,,,,,,,4,0,0.766406989422,,,,,,PLC_L_D1S1,P12,60.0166937207,01,C,2015_Jan_30_1558,X,
stim/posf.jpg,stim/negf.jpg,stim/4.jpg,stim/2.jpg,stim/latef.jpg,CD,2,4,,,,,0,33,33,30,,,,,,,,,,,,,,4,1,0.699736212509,,,,,,PLC_L_D1S1,P12,60.0166937207,01,C,2015_Jan_30_1558,X,
stim/posf.jpg,stim/negf.jpg,stim/3.jpg,stim/1.jpg,stim/latef.jpg,AB,1,2,,,,,0,34,34,6,,,,,,,,,,,,,,2,1,0.883043095917,,,,,,PLC_L_D1S1,P12,60.0166937207,01,C,2015_Jan_30_1558,X,
stim/posf.jpg,stim/negf.jpg,stim/3.jpg,stim/1.jpg,stim/latef.jpg,AB,1,2,,,,,0,35,35,4,,,,,,,,,,,,,,2,1,0.983047459794,,,,,,PLC_L_D1S1,P12,60.0166937207,01,C,2015_Jan_30_1558,X,
stim/posf.jpg,stim/negf.jpg,stim/1.jpg,stim/3.jpg,stim/latef.jpg,AB,2,4,,,,,0,36,36,16,,,,,,,,,,,,,,4,1,0.933030157668,,,,,,PLC_L_D1S1,P12,60.0166937207,01,C,2015_Jan_30_1558,X,
stim/negf.jpg,stim/posf.jpg,stim/3.jpg,stim/1.jpg,stim/latef.jpg,AB,1,2,,,,,0,37,37,8,,,,,,,,,,,,,,2,1,0.94971204427,,,,,,PLC_L_D1S1,P12,60.0166937207,01,C,2015_Jan_30_1558,X,
stim/negf.jpg,stim/posf.jpg,stim/4.jpg,stim/2.jpg,stim/latef.jpg,CD,2,4,,,,,0,38,38,37,,,,,,,,,,,,,,4,1,0.74974180946,,,,,,PLC_L_D1S1,P12,60.0166937207,01,C,2015_Jan_30_1558,X,
stim/posf.jpg,stim/negf.jpg,stim/5.jpg,stim/6.jpg,stim/latef.jpg,EF,2,4,,,,,0,39,39,51,,,,,,,,,,,,,,2,0,1.06626059052,,,,,,PLC_L_D1S1,P12,60.0166937207,01,C,2015_Jan_30_1558,X,
stim/posf.jpg,stim/negf.jpg,stim/1.jpg,stim/3.jpg,stim/latef.jpg,AB,2,4,,,,,0,40,40,14,,,,,,,,,,,,,,4,1,1.53282257727,,,,,,PLC_L_D1S1,P12,60.0166937207,01,C,2015_Jan_30_1558,X,
stim/posf.jpg,stim/negf.jpg,stim/6.jpg,stim/5.jpg,stim/latef.jpg,EF,1,2,,,,,0,41,41,45,,,,,,,,,,,,,,4,0,0.999646883858,,,,,,PLC_L_D1S1,P12,60.0166937207,01,C,2015_Jan_30_1558,X,
stim/posf.jpg,stim/negf.jpg,stim/3.jpg,stim/1.jpg,stim/latef.jpg,AB,1,2,,,,,0,42,42,0,,,,,,,,,,,,,,2,1,1.19960363606,,,,,,PLC_L_D1S1,P12,60.0166937207,01,C,2015_Jan_30_1558,X,
stim/negf.jpg,stim/posf.jpg,stim/3.jpg,stim/1.jpg,stim/latef.jpg,AB,1,2,,,,,0,43,43,9,,,,,,,,,,,,,,2,1,1.04964967481,,,,,,PLC_L_D1S1,P12,60.0166937207,01,C,2015_Jan_30_1558,X,
stim/negf.jpg,stim/posf.jpg,stim/5.jpg,stim/6.jpg,stim/latef.jpg,EF,2,4,,,,,0,44,44,57,,,,,,,,,,,,,,4,1,1.29958219562,,,,,,PLC_L_D1S1,P12,60.0166937207,01,C,2015_Jan_30_1558,X,
stim/posf.jpg,stim/negf.jpg,stim/1.jpg,stim/3.jpg,stim/latef.jpg,AB,2,4,,,,,0,45,45,12,,,,,,,,,,,,,,4,1,1.43289579778,,,,,,PLC_L_D1S1,P12,60.0166937207,01,C,2015_Jan_30_1558,X,
stim/posf.jpg,stim/negf.jpg,stim/1.jpg,stim/3.jpg,stim/latef.jpg,AB,2,4,,,,,0,46,46,13,,,,,,,,,,,,,,4,1,0.733044271848,,,,,,PLC_L_D1S1,P12,60.0166937207,01,C,2015_Jan_30_1558,X,
stim/negf.jpg,stim/posf.jpg,stim/1.jpg,stim/3.jpg,stim/latef.jpg,AB,2,4,,,,,0,47,47,18,,,,,,,,,,,,,,4,1,0.733070822024,,,,,,PLC_L_D1S1,P12,60.0166937207,01,C,2015_Jan_30_1558,X,
stim/posf.jpg,stim/negf.jpg,stim/3.jpg,stim/1.jpg,stim/latef.jpg,AB,1,2,,,,,0,48,48,5,,,,,,,,,,,,,,2,1,0.849708305953,,,,,,PLC_L_D1S1,P12,60.0166937207,01,C,2015_Jan_30_1558,X,
stim/posf.jpg,stim/negf.jpg,stim/2.jpg,stim/4.jpg,stim/latef.jpg,CD,1,2,,,,,0,49,49,26,,,,,,,,,,,,,,2,1,1.11631906226,,,,,,PLC_L_D1S1,P12,60.0166937207,01,C,2015_Jan_30_1558,X,
stim/posf.jpg,stim/negf.jpg,stim/2.jpg,stim/4.jpg,stim/latef.jpg,CD,1,2,,,,,0,50,50,22,,,,,,,,,,,,,,2,1,0.683078861061,,,,,,PLC_L_D1S1,P12,60.0166937207,01,C,2015_Jan_30_1558,X,
stim/posf.jpg,stim/negf.jpg,stim/5.jpg,stim/6.jpg,stim/latef.jpg,EF,2,4,,,,,0,51,51,53,,,,,,,,,,,,,,4,1,0.999663479222,,,,,,PLC_L_D1S1,P12,60.0166937207,01,C,2015_Jan_30_1558,X,
stim/posf.jpg,stim/negf.jpg,stim/4.jpg,stim/2.jpg,stim/latef.jpg,CD,2,4,,,,,0,52,52,35,,,,,,,,,,,,,,4,1,1.28290807738,,,,,,PLC_L_D1S1,P12,60.0166937207,01,C,2015_Jan_30_1558,X,
stim/posf.jpg,stim/negf.jpg,stim/6.jpg,stim/5.jpg,stim/latef.jpg,EF,1,2,,,,,0,53,53,40,,,,,,,,,,,,,,2,1,1.18294555379,,,,,,PLC_L_D1S1,P12,60.0166937207,01,C,2015_Jan_30_1558,X,
stim/posf.jpg,stim/negf.jpg,stim/4.jpg,stim/2.jpg,stim/latef.jpg,CD,2,4,,,,,0,54,54,31,,,,,,,,,,,,,,4,1,1.24958646326,,,,,,PLC_L_D1S1,P12,60.0166937207,01,C,2015_Jan_30_1558,X,
stim/posf.jpg,stim/negf.jpg,stim/4.jpg,stim/2.jpg,stim/latef.jpg,CD,2,4,,,,,0,55,55,33,,,,,,,,,,,,,,4,1,1.29956524237,,,,,,PLC_L_D1S1,P12,60.0166937207,01,C,2015_Jan_30_1558,X,
stim/posf.jpg,stim/negf.jpg,stim/1.jpg,stim/3.jpg,stim/latef.jpg,AB,2,4,,,,,0,56,56,17,,,,,,,,,,,,,,4,1,0.933045348531,,,,,,PLC_L_D1S1,P12,60.0166937207,01,C,2015_Jan_30_1558,X,
stim/posf.jpg,stim/negf.jpg,stim/6.jpg,stim/5.jpg,stim/latef.jpg,EF,1,2,,,,,0,57,57,43,,,,,,,,,,,,,,2,1,1.299557071,,,,,,PLC_L_D1S1,P12,60.0166937207,01,C,2015_Jan_30_1558,X,
stim/posf.jpg,stim/negf.jpg,stim/5.jpg,stim/6.jpg,stim/latef.jpg,EF,2,4,,,,,0,58,58,50,,,,,,,,,,,,,,4,1,0.749751806377,,,,,,PLC_L_D1S1,P12,60.0166937207,01,C,2015_Jan_30_1558,X,
stim/posf.jpg,stim/negf.jpg,stim/5.jpg,stim/6.jpg,stim/latef.jpg,EF,2,4,,,,,0,59,59,52,,,,,,,,,,,,,,4,1,0.783108824746,,,,,,PLC_L_D1S1,P12,60.0166937207,01,C,2015_Jan_30_1558,X,
,,,,,,,,,,,,,,,,,,,,,,,,,,,,,,,,0.9984375,1.0,1,0,0,PLC_L_D1S1,P12,60.0166937207,01,C,2015_Jan_30_1558,X,
stim/posf.jpg,stim/negf.jpg,stim/4.jpg,stim/2.jpg,stim/latef.jpg,CD,2,4,,,,,,,,,0,0,0,35,,,,,,,,,,4,1,0.899690233908,,,,,,PLC_L_D1S1,P12,60.0166937207,01,C,2015_Jan_30_1558,X,
stim/negf.jpg,stim/posf.jpg,stim/5.jpg,stim/6.jpg,stim/latef.jpg,EF,2,4,,,,,,,,,0,1,1,58,,,,,,,,,,4,1,0.849770958113,,,,,,PLC_L_D1S1,P12,60.0166937207,01,C,2015_Jan_30_1558,X,
stim/negf.jpg,stim/posf.jpg,stim/3.jpg,stim/1.jpg,stim/latef.jpg,AB,1,2,,,,,,,,,0,2,2,9,,,,,,,,,,2,1,1.23294020947,,,,,,PLC_L_D1S1,P12,60.0166937207,01,C,2015_Jan_30_1558,X,
stim/posf.jpg,stim/negf.jpg,stim/3.jpg,stim/1.jpg,stim/latef.jpg,AB,1,2,,,,,,,,,0,3,3,3,,,,,,,,,,2,1,0.583119946466,,,,,,PLC_L_D1S1,P12,60.0166937207,01,C,2015_Jan_30_1558,X,
stim/negf.jpg,stim/posf.jpg,stim/2.jpg,stim/4.jpg,stim/latef.jpg,CD,1,2,,,,,,,,,0,4,4,27,,,,,,,,,,2,1,1.01637659566,,,,,,PLC_L_D1S1,P12,60.0166937207,01,C,2015_Jan_30_1558,X,
stim/posf.jpg,stim/negf.jpg,stim/1.jpg,stim/3.jpg,stim/latef.jpg,AB,2,4,,,,,,,,,0,5,5,11,,,,,,,,,,4,1,1.08295086503,,,,,,PLC_L_D1S1,P12,60.0166937207,01,C,2015_Jan_30_1558,X,
stim/posf.jpg,stim/negf.jpg,stim/4.jpg,stim/2.jpg,stim/latef.jpg,CD,2,4,,,,,,,,,0,6,6,33,,,,,,,,,,4,1,0.783086373787,,,,,,PLC_L_D1S1,P12,60.0166937207,01,C,2015_Jan_30_1558,X,
stim/negf.jpg,stim/posf.jpg,stim/5.jpg,stim/6.jpg,stim/latef.jpg,EF,2,4,,,,,,,,,0,7,7,57,,,,,,,,,,4,1,0.999651202623,,,,,,PLC_L_D1S1,P12,60.0166937207,01,C,2015_Jan_30_1558,X,
stim/negf.jpg,stim/posf.jpg,stim/1.jpg,stim/3.jpg,stim/latef.jpg,AB,2,4,,,,,,,,,0,8,8,19,,,,,,,,,,4,1,0.84975535823,,,,,,PLC_L_D1S1,P12,60.0166937207,01,C,2015_Jan_30_1558,X,
stim/negf.jpg,stim/posf.jpg,stim/4.jpg,stim/2.jpg,stim/latef.jpg,CD,2,4,,,,,,,,,0,9,9,37,,,,,,,,,,4,1,0.966329744889,,,,,,PLC_L_D1S1,P12,60.0166937207,01,C,2015_Jan_30_1558,X,
stim/posf.jpg,stim/negf.jpg,stim/5.jpg,stim/6.jpg,stim/latef.jpg,EF,2,4,,,,,,,,,0,10,10,51,,,,,,,,,,4,1,0.799712396148,,,,,,PLC_L_D1S1,P12,60.0166937207,01,C,2015_Jan_30_1558,X,
stim/negf.jpg,stim/posf.jpg,stim/6.jpg,stim/5.jpg,stim/latef.jpg,EF,1,2,,,,,,,,,0,11,11,48,,,,,,,,,,2,1,1.21627944151,,,,,,PLC_L_D1S1,P12,60.0166937207,01,C,2015_Jan_30_1558,X,
stim/posf.jpg,stim/negf.jpg,stim/1.jpg,stim/3.jpg,stim/latef.jpg,AB,2,4,,,,,,,,,0,12,12,17,,,,,,,,,,4,1,0.899718889332,,,,,,PLC_L_D1S1,P12,60.0166937207,01,C,2015_Jan_30_1558,X,
stim/posf.jpg,stim/negf.jpg,stim/2.jpg,stim/4.jpg,stim/latef.jpg,CD,1,2,,,,,,,,,0,13,13,26,,,,,,,,,,2,1,1.16624255758,,,,,,PLC_L_D1S1,P12,60.0166937207,01,C,2015_Jan_30_1558,X,
stim/posf.jpg,stim/negf.jpg,stim/6.jpg,stim/5.jpg,stim/latef.jpg,EF,1,2,,,,,,,,,0,14,14,42,,,,,,,,,,None,0,,,,,,,PLC_L_D1S1,P12,60.0166937207,01,C,2015_Jan_30_1558,X,
stim/posf.jpg,stim/negf.jpg,stim/5.jpg,stim/6.jpg,stim/latef.jpg,EF,2,4,,,,,,,,,0,15,15,54,,,,,,,,,,4,1,0.666428953165,,,,,,PLC_L_D1S1,P12,60.0166937207,01,C,2015_Jan_30_1558,X,
stim/posf.jpg,stim/negf.jpg,stim/3.jpg,stim/1.jpg,stim/latef.jpg,AB,1,2,,,,,,,,,0,16,16,2,,,,,,,,,,2,1,0.716420453981,,,,,,PLC_L_D1S1,P12,60.0166937207,01,C,2015_Jan_30_1558,X,
stim/posf.jpg,stim/negf.jpg,stim/6.jpg,stim/5.jpg,stim/latef.jpg,EF,1,2,,,,,,,,,0,17,17,41,,,,,,,,,,2,1,0.949677644529,,,,,,PLC_L_D1S1,P12,60.0166937207,01,C,2015_Jan_30_1558,X,
stim/posf.jpg,stim/negf.jpg,stim/5.jpg,stim/6.jpg,stim/latef.jpg,EF,2,4,,,,,,,,,0,18,18,50,,,,,,,,,,4,1,0.699821661492,,,,,,PLC_L_D1S1,P12,60.0166937207,01,C,2015_Jan_30_1558,X,
stim/posf.jpg,stim/negf.jpg,stim/6.jpg,stim/5.jpg,stim/latef.jpg,EF,1,2,,,,,,,,,0,19,19,45,,,,,,,,,,2,1,0.583153107119,,,,,,PLC_L_D1S1,P12,60.0166937207,01,C,2015_Jan_30_1558,X,
stim/posf.jpg,stim/negf.jpg,stim/3.jpg,stim/1.jpg,stim/latef.jpg,AB,1,2,,,,,,,,,0,20,20,1,,,,,,,,,,2,1,0.849668564898,,,,,,PLC_L_D1S1,P12,60.0166937207,01,C,2015_Jan_30_1558,X,
stim/posf.jpg,stim/negf.jpg,stim/5.jpg,stim/6.jpg,stim/latef.jpg,EF,2,4,,,,,,,,,0,21,21,55,,,,,,,,,,2,0,0.666445175601,,,,,,PLC_L_D1S1,P12,60.0166937207,01,C,2015_Jan_30_1558,X,
stim/posf.jpg,stim/negf.jpg,stim/2.jpg,stim/4.jpg,stim/latef.jpg,CD,1,2,,,,,,,,,0,22,22,22,,,,,,,,,,2,1,1.5828142435,,,,,,PLC_L_D1S1,P12,60.0166937207,01,C,2015_Jan_30_1558,X,
stim/posf.jpg,stim/negf.jpg,stim/3.jpg,stim/1.jpg,stim/latef.jpg,AB,1,2,,,,,,,,,0,23,23,7,,,,,,,,,,2,1,0.749699575192,,,,,,PLC_L_D1S1,P12,60.0166937207,01,C,2015_Jan_30_1558,X,
stim/posf.jpg,stim/negf.jpg,stim/3.jpg,stim/1.jpg,stim/latef.jpg,AB,1,2,,,,,,,,,0,24,24,6,,,,,,,,,,2,1,0.666412117202,,,,,,PLC_L_D1S1,P12,60.0166937207,01,C,2015_Jan_30_1558,X,
stim/posf.jpg,stim/negf.jpg,stim/1.jpg,stim/3.jpg,stim/latef.jpg,AB,2,4,,,,,,,,,0,25,25,12,,,,,,,,,,2,0,1.63278051142,,,,,,PLC_L_D1S1,P12,60.0166937207,01,C,2015_Jan_30_1558,X,
stim/posf.jpg,stim/negf.jpg,stim/3.jpg,stim/1.jpg,stim/latef.jpg,AB,1,2,,,,,,,,,0,26,26,0,,,,,,,,,,2,1,0.816401569913,,,,,,PLC_L_D1S1,P12,60.0166937207,01,C,2015_Jan_30_1558,X,
stim/posf.jpg,stim/negf.jpg,stim/1.jpg,stim/3.jpg,stim/latef.jpg,AB,2,4,,,,,,,,,0,27,27,14,,,,,,,,,,4,1,1.09966150931,,,,,,PLC_L_D1S1,P12,60.0166937207,01,C,2015_Jan_30_1558,X,
stim/posf.jpg,stim/negf.jpg,stim/1.jpg,stim/3.jpg,stim/latef.jpg,AB,2,4,,,,,,,,,0,28,28,16,,,,,,,,,,4,1,0.766411124729,,,,,,PLC_L_D1S1,P12,60.0166937207,01,C,2015_Jan_30_1558,X,
stim/posf.jpg,stim/negf.jpg,stim/4.jpg,stim/2.jpg,stim/latef.jpg,CD,2,4,,,,,,,,,0,29,29,32,,,,,,,,,,4,1,0.866363326592,,,,,,PLC_L_D1S1,P12,60.0166937207,01,C,2015_Jan_30_1558,X,
stim/posf.jpg,stim/negf.jpg,stim/2.jpg,stim/4.jpg,stim/latef.jpg,CD,1,2,,,,,,,,,0,30,30,25,,,,,,,,,,2,1,0.749754865001,,,,,,PLC_L_D1S1,P12,60.0166937207,01,C,2015_Jan_30_1558,X,
stim/negf.jpg,stim/posf.jpg,stim/6.jpg,stim/5.jpg,stim/latef.jpg,EF,1,2,,,,,,,,,0,31,31,47,,,,,,,,,,2,1,1.01632104721,,,,,,PLC_L_D1S1,P12,60.0166937207,01,C,2015_Jan_30_1558,X,
stim/posf.jpg,stim/negf.jpg,stim/1.jpg,stim/3.jpg,stim/latef.jpg,AB,2,4,,,,,,,,,0,32,32,13,,,,,,,,,,4,1,0.849704017263,,,,,,PLC_L_D1S1,P12,60.0166937207,01,C,2015_Jan_30_1558,X,
stim/posf.jpg,stim/negf.jpg,stim/6.jpg,stim/5.jpg,stim/latef.jpg,EF,1,2,,,,,,,,,0,33,33,44,,,,,,,,,,2,1,0.833057967986,,,,,,PLC_L_D1S1,P12,60.0166937207,01,C,2015_Jan_30_1558,X,
stim/posf.jpg,stim/negf.jpg,stim/4.jpg,stim/2.jpg,stim/latef.jpg,CD,2,4,,,,,,,,,0,34,34,36,,,,,,,,,,4,1,1.13297218216,,,,,,PLC_L_D1S1,P12,60.0166937207,01,C,2015_Jan_30_1558,X,
stim/negf.jpg,stim/posf.jpg,stim/1.jpg,stim/3.jpg,stim/latef.jpg,AB,2,4,,,,,,,,,0,35,35,18,,,,,,,,,,4,1,1.04960090526,,,,,,PLC_L_D1S1,P12,60.0166937207,01,C,2015_Jan_30_1558,X,
stim/negf.jpg,stim/posf.jpg,stim/6.jpg,stim/5.jpg,stim/latef.jpg,EF,1,2,,,,,,,,,0,36,36,46,,,,,,,,,,2,1,0.733096012811,,,,,,PLC_L_D1S1,P12,60.0166937207,01,C,2015_Jan_30_1558,X,
stim/negf.jpg,stim/posf.jpg,stim/2.jpg,stim/4.jpg,stim/latef.jpg,CD,1,2,,,,,,,,,0,37,37,28,,,,,,,,,,2,1,1.04961904046,,,,,,PLC_L_D1S1,P12,60.0166937207,01,C,2015_Jan_30_1558,X,
stim/negf.jpg,stim/posf.jpg,stim/5.jpg,stim/6.jpg,stim/latef.jpg,EF,2,4,,,,,,,,,0,38,38,59,,,,,,,,,,4,1,0.733065411539,,,,,,PLC_L_D1S1,P12,60.0166937207,01,C,2015_Jan_30_1558,X,
stim/posf.jpg,stim/negf.jpg,stim/6.jpg,stim/5.jpg,stim/latef.jpg,EF,1,2,,,,,,,,,0,39,39,43,,,,,,,,,,2,1,1.4828560086,,,,,,PLC_L_D1S1,P12,60.0166937207,01,C,2015_Jan_30_1558,X,
stim/negf.jpg,stim/posf.jpg,stim/4.jpg,stim/2.jpg,stim/latef.jpg,CD,2,4,,,,,,,,,0,40,40,38,,,,,,,,,,4,1,0.683162024346,,,,,,PLC_L_D1S1,P12,60.0166937207,01,C,2015_Jan_30_1558,X,
stim/negf.jpg,stim/posf.jpg,stim/3.jpg,stim/1.jpg,stim/latef.jpg,AB,1,2,,,,,,,,,0,41,41,8,,,,,,,,,,2,1,1.0996708927,,,,,,PLC_L_D1S1,P12,60.0166937207,01,C,2015_Jan_30_1558,X,
stim/posf.jpg,stim/negf.jpg,stim/1.jpg,stim/3.jpg,stim/latef.jpg,AB,2,4,,,,,,,,,0,42,42,10,,,,,,,,,,4,1,0.766363362682,,,,,,PLC_L_D1S1,P12,60.0166937207,01,C,2015_Jan_30_1558,X,
stim/negf.jpg,stim/posf.jpg,stim/4.jpg,stim/2.jpg,stim/latef.jpg,CD,2,4,,,,,,,,,0,43,43,39,,,,,,,,,,4,1,0.7663943429,,,,,,PLC_L_D1S1,P12,60.0166937207,01,C,2015_Jan_30_1558,X,
stim/negf.jpg,stim/posf.jpg,stim/6.jpg,stim/5.jpg,stim/latef.jpg,EF,1,2,,,,,,,,,0,44,44,49,,,,,,,,,,2,1,0.833088241442,,,,,,PLC_L_D1S1,P12,60.0166937207,01,C,2015_Jan_30_1558,X,
stim/posf.jpg,stim/negf.jpg,stim/3.jpg,stim/1.jpg,stim/latef.jpg,AB,1,2,,,,,,,,,0,45,45,5,,,,,,,,,,2,1,0.899684871542,,,,,,PLC_L_D1S1,P12,60.0166937207,01,C,2015_Jan_30_1558,X,
stim/negf.jpg,stim/posf.jpg,stim/5.jpg,stim/6.jpg,stim/latef.jpg,EF,2,4,,,,,,,,,0,46,46,56,,,,,,,,,,4,1,1.09963656514,,,,,,PLC_L_D1S1,P12,60.0166937207,01,C,2015_Jan_30_1558,X,
stim/posf.jpg,stim/negf.jpg,stim/4.jpg,stim/2.jpg,stim/latef.jpg,CD,2,4,,,,,,,,,0,47,47,34,,,,,,,,,,4,1,0.999685794844,,,,,,PLC_L_D1S1,P12,60.0166937207,01,C,2015_Jan_30_1558,X,
stim/posf.jpg,stim/negf.jpg,stim/2.jpg,stim/4.jpg,stim/latef.jpg,CD,1,2,,,,,,,,,0,48,48,21,,,,,,,,,,2,1,0.883091904572,,,,,,PLC_L_D1S1,P12,60.0166937207,01,C,2015_Jan_30_1558,X,
stim/posf.jpg,stim/negf.jpg,stim/3.jpg,stim/1.jpg,stim/latef.jpg,AB,1,2,,,,,,,,,0,49,49,4,,,,,,,,,,2,1,0.832996302284,,,,,,PLC_L_D1S1,P12,60.0166937207,01,C,2015_Jan_30_1558,X,
stim/posf.jpg,stim/negf.jpg,stim/2.jpg,stim/4.jpg,stim/latef.jpg,CD,1,2,,,,,,,,,0,50,50,24,,,,,,,,,,2,1,0.982993213584,,,,,,PLC_L_D1S1,P12,60.0166937207,01,C,2015_Jan_30_1558,X,
stim/posf.jpg,stim/negf.jpg,stim/4.jpg,stim/2.jpg,stim/latef.jpg,CD,2,4,,,,,,,,,0,51,51,30,,,,,,,,,,2,0,0.666471199464,,,,,,PLC_L_D1S1,P12,60.0166937207,01,C,2015_Jan_30_1558,X,
stim/posf.jpg,stim/negf.jpg,stim/5.jpg,stim/6.jpg,stim/latef.jpg,EF,2,4,,,,,,,,,0,52,52,53,,,,,,,,,,4,1,0.882998882715,,,,,,PLC_L_D1S1,P12,60.0166937207,01,C,2015_Jan_30_1558,X,
stim/posf.jpg,stim/negf.jpg,stim/1.jpg,stim/3.jpg,stim/latef.jpg,AB,2,4,,,,,,,,,0,53,53,15,,,,,,,,,,4,1,0.816375179134,,,,,,PLC_L_D1S1,P12,60.0166937207,01,C,2015_Jan_30_1558,X,
stim/posf.jpg,stim/negf.jpg,stim/2.jpg,stim/4.jpg,stim/latef.jpg,CD,1,2,,,,,,,,,0,54,54,23,,,,,,,,,,2,1,0.89971853144,,,,,,PLC_L_D1S1,P12,60.0166937207,01,C,2015_Jan_30_1558,X,
stim/posf.jpg,stim/negf.jpg,stim/6.jpg,stim/5.jpg,stim/latef.jpg,EF,1,2,,,,,,,,,0,55,55,40,,,,,,,,,,2,1,0.86638481816,,,,,,PLC_L_D1S1,P12,60.0166937207,01,C,2015_Jan_30_1558,X,
stim/posf.jpg,stim/negf.jpg,stim/2.jpg,stim/4.jpg,stim/latef.jpg,CD,1,2,,,,,,,,,0,56,56,20,,,,,,,,,,2,1,1.33284490493,,,,,,PLC_L_D1S1,P12,60.0166937207,01,C,2015_Jan_30_1558,X,
stim/posf.jpg,stim/negf.jpg,stim/4.jpg,stim/2.jpg,stim/latef.jpg,CD,2,4,,,,,,,,,0,57,57,31,,,,,,,,,,4,1,0.749798082721,,,,,,PLC_L_D1S1,P12,60.0166937207,01,C,2015_Jan_30_1558,X,
stim/posf.jpg,stim/negf.jpg,stim/5.jpg,stim/6.jpg,stim/latef.jpg,EF,2,4,,,,,,,,,0,58,58,52,,,,,,,,,,4,1,0.98301719536,,,,,,PLC_L_D1S1,P12,60.0166937207,01,C,2015_Jan_30_1558,X,
stim/negf.jpg,stim/posf.jpg,stim/2.jpg,stim/4.jpg,stim/latef.jpg,CD,1,2,,,,,,,,,0,59,59,29,,,,,,,,,,2,1,0.933062124345,,,,,,PLC_L_D1S1,P12,60.0166937207,01,C,2015_Jan_30_1558,X,
,,,,,,,,,,,,,,,,,,,,,,,,,,,,,,,,0.9984375,1.0,1,0,0,PLC_L_D1S1,P12,60.0166937207,01,C,2015_Jan_30_1558,X,
stim/posf.jpg,stim/negf.jpg,stim/6.jpg,stim/5.jpg,stim/latef.jpg,EF,1,2,,,,,,,,,,,,,0,0,0,44,,,,,,2,1,1.23293470876,,,,,,PLC_L_D1S1,P12,60.0166937207,01,C,2015_Jan_30_1558,X,
stim/posf.jpg,stim/negf.jpg,stim/1.jpg,stim/3.jpg,stim/latef.jpg,AB,2,4,,,,,,,,,,,,,0,1,1,11,,,,,,4,1,0.933026091533,,,,,,PLC_L_D1S1,P12,60.0166937207,01,C,2015_Jan_30_1558,X,
stim/posf.jpg,stim/negf.jpg,stim/5.jpg,stim/6.jpg,stim/latef.jpg,EF,2,4,,,,,,,,,,,,,0,2,2,52,,,,,,4,1,0.783079853535,,,,,,PLC_L_D1S1,P12,60.0166937207,01,C,2015_Jan_30_1558,X,
stim/posf.jpg,stim/negf.jpg,stim/3.jpg,stim/1.jpg,stim/latef.jpg,AB,1,2,,,,,,,,,,,,,0,3,3,1,,,,,,2,1,0.916360929617,,,,,,PLC_L_D1S1,P12,60.0166937207,01,C,2015_Jan_30_1558,X,
stim/negf.jpg,stim/posf.jpg,stim/2.jpg,stim/4.jpg,stim/latef.jpg,CD,1,2,,,,,,,,,,,,,0,4,4,27,,,,,,2,1,0.683101546604,,,,,,PLC_L_D1S1,P12,60.0166937207,01,C,2015_Jan_30_1558,X,
stim/posf.jpg,stim/negf.jpg,stim/4.jpg,stim/2.jpg,stim/latef.jpg,CD,2,4,,,,,,,,,,,,,0,5,5,36,,,,,,4,1,0.783098987225,,,,,,PLC_L_D1S1,P12,60.0166937207,01,C,2015_Jan_30_1558,X,
stim/negf.jpg,stim/posf.jpg,stim/6.jpg,stim/5.jpg,stim/latef.jpg,EF,1,2,,,,,,,,,,,,,0,6,6,49,,,,,,2,1,1.16628731212,,,,,,PLC_L_D1S1,P12,60.0166937207,01,C,2015_Jan_30_1558,X,
stim/negf.jpg,stim/posf.jpg,stim/5.jpg,stim/6.jpg,stim/latef.jpg,EF,2,4,,,,,,,,,,,,,0,7,7,59,,,,,,4,1,0.933026566717,,,,,,PLC_L_D1S1,P12,60.0166937207,01,C,2015_Jan_30_1558,X,
stim/posf.jpg,stim/negf.jpg,stim/3.jpg,stim/1.jpg,stim/latef.jpg,AB,1,2,,,,,,,,,,,,,0,8,8,6,,,,,,2,1,0.683103140578,,,,,,PLC_L_D1S1,P12,60.0166937207,01,C,2015_Jan_30_1558,X,
stim/negf.jpg,stim/posf.jpg,stim/2.jpg,stim/4.jpg,stim/latef.jpg,CD,1,2,,,,,,,,,,,,,0,9,9,29,,,,,,2,1,0.599779493387,,,,,,PLC_L_D1S1,P12,60.0166937207,01,C,2015_Jan_30_1558,X,
stim/posf.jpg,stim/negf.jpg,stim/2.jpg,stim/4.jpg,stim/latef.jpg,CD,1,2,,,,,,,,,,,,,0,10,10,22,,,,,,2,1,0.683117973549,,,,,,PLC_L_D1S1,P12,60.0166937207,01,C,2015_Jan_30_1558,X,
stim/posf.jpg,stim/negf.jpg,stim/3.jpg,stim/1.jpg,stim/latef.jpg,AB,1,2,,,,,,,,,,,,,0,11,11,2,,,,,,2,1,0.816407518741,,,,,,PLC_L_D1S1,P12,60.0166937207,01,C,2015_Jan_30_1558,X,
stim/negf.jpg,stim/posf.jpg,stim/3.jpg,stim/1.jpg,stim/latef.jpg,AB,1,2,,,,,,,,,,,,,0,12,12,8,,,,,,2,1,0.633139302712,,,,,,PLC_L_D1S1,P12,60.0166937207,01,C,2015_Jan_30_1558,X,
stim/posf.jpg,stim/negf.jpg,stim/6.jpg,stim/5.jpg,stim/latef.jpg,EF,1,2,,,,,,,,,,,,,0,13,13,45,,,,,,2,1,0.999667728814,,,,,,PLC_L_D1S1,P12,60.0166937207,01,C,2015_Jan_30_1558,X,
stim/negf.jpg,stim/posf.jpg,stim/1.jpg,stim/3.jpg,stim/latef.jpg,AB,2,4,,,,,,,,,,,,,0,14,14,18,,,,,,2,0,0.749753899595,,,,,,PLC_L_D1S1,P12,60.0166937207,01,C,2015_Jan_30_1558,X,
stim/posf.jpg,stim/negf.jpg,stim/5.jpg,stim/6.jpg,stim/latef.jpg,EF,2,4,,,,,,,,,,,,,0,15,15,55,,,,,,4,1,0.866339335795,,,,,,PLC_L_D1S1,P12,60.0166937207,01,C,2015_Jan_30_1558,X,
stim/negf.jpg,stim/posf.jpg,stim/4.jpg,stim/2.jpg,stim/latef.jpg,CD,2,4,,,,,,,,,,,,,0,16,16,37,,,,,,4,1,0.783024124631,,,,,,PLC_L_D1S1,P12,60.0166937207,01,C,2015_Jan_30_1558,X,
stim/posf.jpg,stim/negf.jpg,stim/4.jpg,stim/2.jpg,stim/latef.jpg,CD,2,4,,,,,,,,,,,,,0,17,17,33,,,,,,4,1,0.633154126661,,,,,,PLC_L_D1S1,P12,60.0166937207,01,C,2015_Jan_30_1558,X,
stim/posf.jpg,stim/negf.jpg,stim/2.jpg,stim/4.jpg,stim/latef.jpg,CD,1,2,,,,,,,,,,,,,0,18,18,26,,,,,,2,1,0.73307564304,,,,,,PLC_L_D1S1,P12,60.0166937207,01,C,2015_Jan_30_1558,X,
stim/negf.jpg,stim/posf.jpg,stim/5.jpg,stim/6.jpg,stim/latef.jpg,EF,2,4,,,,,,,,,,,,,0,19,19,57,,,,,,4,1,0.849720940444,,,,,,PLC_L_D1S1,P12,60.0166937207,01,C,2015_Jan_30_1558,X,
stim/posf.jpg,stim/negf.jpg,stim/4.jpg,stim/2.jpg,stim/latef.jpg,CD,2,4,,,,,,,,,,,,,0,20,20,35,,,,,,4,1,0.716438556102,,,,,,PLC_L_D1S1,P12,60.0166937207,01,C,2015_Jan_30_1558,X,
stim/posf.jpg,stim/negf.jpg,stim/6.jpg,stim/5.jpg,stim/latef.jpg,EF,1,2,,,,,,,,,,,,,0,21,21,42,,,,,,2,1,0.949683839971,,,,,,PLC_L_D1S1,P12,60.0166937207,01,C,2015_Jan_30_1558,X,
stim/posf.jpg,stim/negf.jpg,stim/2.jpg,stim/4.jpg,stim/latef.jpg,CD,1,2,,,,,,,,,,,,,0,22,22,21,,,,,,2,1,0.999664495755,,,,,,PLC_L_D1S1,P12,60.0166937207,01,C,2015_Jan_30_1558,X,
stim/posf.jpg,stim/negf.jpg,stim/1.jpg,stim/3.jpg,stim/latef.jpg,AB,2,4,,,,,,,,,,,,,0,23,23,15,,,,,,4,1,0.733039941053,,,,,,PLC_L_D1S1,P12,60.0166937207,01,C,2015_Jan_30_1558,X,
stim/negf.jpg,stim/posf.jpg,stim/5.jpg,stim/6.jpg,stim/latef.jpg,EF,2,4,,,,,,,,,,,,,0,24,24,58,,,,,,4,1,0.749793857189,,,,,,PLC_L_D1S1,P12,60.0166937207,01,C,2015_Jan_30_1558,X,
stim/posf.jpg,stim/negf.jpg,stim/1.jpg,stim/3.jpg,stim/latef.jpg,AB,2,4,,,,,,,,,,,,,0,25,25,12,,,,,,4,1,0.949739162864,,,,,,PLC_L_D1S1,P12,60.0166937207,01,C,2015_Jan_30_1558,X,
stim/posf.jpg,stim/negf.jpg,stim/3.jpg,stim/1.jpg,stim/latef.jpg,AB,1,2,,,,,,,,,,,,,0,26,26,0,,,,,,2,1,0.932961896527,,,,,,PLC_L_D1S1,P12,60.0166937207,01,C,2015_Jan_30_1558,X,
stim/negf.jpg,stim/posf.jpg,stim/4.jpg,stim/2.jpg,stim/latef.jpg,CD,2,4,,,,,,,,,,,,,0,27,27,39,,,,,,4,1,0.716430216314,,,,,,PLC_L_D1S1,P12,60.0166937207,01,C,2015_Jan_30_1558,X,
stim/posf.jpg,stim/negf.jpg,stim/5.jpg,stim/6.jpg,stim/latef.jpg,EF,2,4,,,,,,,,,,,,,0,28,28,51,,,,,,4,1,1.24958817152,,,,,,PLC_L_D1S1,P12,60.0166937207,01,C,2015_Jan_30_1558,X,
stim/posf.jpg,stim/negf.jpg,stim/1.jpg,stim/3.jpg,stim/latef.jpg,AB,2,4,,,,,,,,,,,,,0,29,29,13,,,,,,4,1,1.13299943309,,,,,,PLC_L_D1S1,P12,60.0166937207,01,C,2015_Jan_30_1558,X,
stim/negf.jpg,stim/posf.jpg,stim/6.jpg,stim/5.jpg,stim/latef.jpg,EF,1,2,,,,,,,,,,,,,0,30,30,47,,,,,,2,1,1.03297470545,,,,,,PLC_L_D1S1,P12,60.0166937207,01,C,2015_Jan_30_1558,X,
stim/posf.jpg,stim/negf.jpg,stim/1.jpg,stim/3.jpg,stim/latef.jpg,AB,2,4,,,,,,,,,,,,,0,31,31,16,,,,,,4,1,0.982985923414,,,,,,PLC_L_D1S1,P12,60.0166937207,01,C,2015_Jan_30_1558,X,
stim/posf.jpg,stim/negf.jpg,stim/5.jpg,stim/6.jpg,stim/latef.jpg,EF,2,4,,,,,,,,,,,,,0,32,32,53,,,,,,4,1,0.766416258524,,,,,,PLC_L_D1S1,P12,60.0166937207,01,C,2015_Jan_30_1558,X,
stim/posf.jpg,stim/negf.jpg,stim/5.jpg,stim/6.jpg,stim/latef.jpg,EF,2,4,,,,,,,,,,,,,0,33,33,50,,,,,,4,1,0.799735821534,,,,,,PLC_L_D1S1,P12,60.0166937207,01,C,2015_Jan_30_1558,X,
stim/posf.jpg,stim/negf.jpg,stim/3.jpg,stim/1.jpg,stim/latef.jpg,AB,1,2,,,,,,,,,,,,,0,34,34,5,,,,,,2,1,0.766406763858,,,,,,PLC_L_D1S1,P12,60.0166937207,01,C,2015_Jan_30_1558,X,
stim/posf.jpg,stim/negf.jpg,stim/2.jpg,stim/4.jpg,stim/latef.jpg,CD,1,2,,,,,,,,,,,,,0,35,35,24,,,,,,2,1,0.666448312419,,,,,,PLC_L_D1S1,P12,60.0166937207,01,C,2015_Jan_30_1558,X,
stim/posf.jpg,stim/negf.jpg,stim/2.jpg,stim/4.jpg,stim/latef.jpg,CD,1,2,,,,,,,,,,,,,0,36,36,20,,,,,,2,1,0.616468561891,,,,,,PLC_L_D1S1,P12,60.0166937207,01,C,2015_Jan_30_1558,X,
stim/posf.jpg,stim/negf.jpg,stim/2.jpg,stim/4.jpg,stim/latef.jpg,CD,1,2,,,,,,,,,,,,,0,37,37,25,,,,,,2,1,0.63312086676,,,,,,PLC_L_D1S1,P12,60.0166937207,01,C,2015_Jan_30_1558,X,
stim/negf.jpg,stim/posf.jpg,stim/4.jpg,stim/2.jpg,stim/latef.jpg,CD,2,4,,,,,,,,,,,,,0,38,38,38,,,,,,4,1,0.649766260403,,,,,,PLC_L_D1S1,P12,60.0166937207,01,C,2015_Jan_30_1558,X,
stim/posf.jpg,stim/negf.jpg,stim/3.jpg,stim/1.jpg,stim/latef.jpg,AB,1,2,,,,,,,,,,,,,0,39,39,4,,,,,,2,1,0.799738410989,,,,,,PLC_L_D1S1,P12,60.0166937207,01,C,2015_Jan_30_1558,X,
stim/posf.jpg,stim/negf.jpg,stim/4.jpg,stim/2.jpg,stim/latef.jpg,CD,2,4,,,,,,,,,,,,,0,40,40,32,,,,,,4,1,0.899695409807,,,,,,PLC_L_D1S1,P12,60.0166937207,01,C,2015_Jan_30_1558,X,
stim/posf.jpg,stim/negf.jpg,stim/4.jpg,stim/2.jpg,stim/latef.jpg,CD,2,4,,,,,,,,,,,,,0,41,41,34,,,,,,4,1,0.549839592182,,,,,,PLC_L_D1S1,P12,60.0166937207,01,C,2015_Jan_30_1558,X,
stim/negf.jpg,stim/posf.jpg,stim/3.jpg,stim/1.jpg,stim/latef.jpg,AB,1,2,,,,,,,,,,,,,0,42,42,9,,,,,,2,1,1.21625944166,,,,,,PLC_L_D1S1,P12,60.0166937207,01,C,2015_Jan_30_1558,X,
stim/posf.jpg,stim/negf.jpg,stim/1.jpg,stim/3.jpg,stim/latef.jpg,AB,2,4,,,,,,,,,,,,,0,43,43,17,,,,,,4,1,0.766406204464,,,,,,PLC_L_D1S1,P12,60.0166937207,01,C,2015_Jan_30_1558,X,
stim/posf.jpg,stim/negf.jpg,stim/5.jpg,stim/6.jpg,stim/latef.jpg,EF,2,4,,,,,,,,,,,,,0,44,44,54,,,,,,4,1,1.51611456756,,,,,,PLC_L_D1S1,P12,60.0166937207,01,C,2015_Jan_30_1558,X,
stim/negf.jpg,stim/posf.jpg,stim/6.jpg,stim/5.jpg,stim/latef.jpg,EF,1,2,,,,,,,,,,,,,0,45,45,48,,,,,,2,1,0.999672832537,,,,,,PLC_L_D1S1,P12,60.0166937207,01,C,2015_Jan_30_1558,X,
stim/negf.jpg,stim/posf.jpg,stim/1.jpg,stim/3.jpg,stim/latef.jpg,AB,2,4,,,,,,,,,,,,,0,46,46,19,,,,,,4,1,0.949736050105,,,,,,PLC_L_D1S1,P12,60.0166937207,01,C,2015_Jan_30_1558,X,
stim/posf.jpg,stim/negf.jpg,stim/3.jpg,stim/1.jpg,stim/latef.jpg,AB,1,2,,,,,,,,,,,,,0,47,47,3,,,,,,2,1,0.799718654745,,,,,,PLC_L_D1S1,P12,60.0166937207,01,C,2015_Jan_30_1558,X,
stim/posf.jpg,stim/negf.jpg,stim/3.jpg,stim/1.jpg,stim/latef.jpg,AB,1,2,,,,,,,,,,,,,0,48,48,7,,,,,,2,1,0.716429864438,,,,,,PLC_L_D1S1,P12,60.0166937207,01,C,2015_Jan_30_1558,X,
stim/negf.jpg,stim/posf.jpg,stim/6.jpg,stim/5.jpg,stim/latef.jpg,EF,1,2,,,,,,,,,,,,,0,49,49,46,,,,,,2,1,0.783095654921,,,,,,PLC_L_D1S1,P12,60.0166937207,01,C,2015_Jan_30_1558,X,
stim/posf.jpg,stim/negf.jpg,stim/6.jpg,stim/5.jpg,stim/latef.jpg,EF,1,2,,,,,,,,,,,,,0,50,50,43,,,,,,2,1,0.7831039917,,,,,,PLC_L_D1S1,P12,60.0166937207,01,C,2015_Jan_30_1558,X,
stim/negf.jpg,stim/posf.jpg,stim/2.jpg,stim/4.jpg,stim/latef.jpg,CD,1,2,,,,,,,,,,,,,0,51,51,28,,,,,,2,1,0.93303170352,,,,,,PLC_L_D1S1,P12,60.0166937207,01,C,2015_Jan_30_1558,X,
stim/posf.jpg,stim/negf.jpg,stim/4.jpg,stim/2.jpg,stim/latef.jpg,CD,2,4,,,,,,,,,,,,,0,52,52,31,,,,,,4,1,0.749806133788,,,,,,PLC_L_D1S1,P12,60.0166937207,01,C,2015_Jan_30_1558,X,
stim/posf.jpg,stim/negf.jpg,stim/6.jpg,stim/5.jpg,stim/latef.jpg,EF,1,2,,,,,,,,,,,,,0,53,53,40,,,,,,2,1,1.26623496365,,,,,,PLC_L_D1S1,P12,60.0166937207,01,C,2015_Jan_30_1558,X,
stim/posf.jpg,stim/negf.jpg,stim/6.jpg,stim/5.jpg,stim/latef.jpg,EF,1,2,,,,,,,,,,,,,0,54,54,41,,,,,,4,0,1.34950228946,,,,,,PLC_L_D1S1,P12,60.0166937207,01,C,2015_Jan_30_1558,X,
stim/posf.jpg,stim/negf.jpg,stim/2.jpg,stim/4.jpg,stim/latef.jpg,CD,1,2,,,,,,,,,,,,,0,55,55,23,,,,,,2,1,0.733070151353,,,,,,PLC_L_D1S1,P12,60.0166937207,01,C,2015_Jan_30_1558,X,
stim/posf.jpg,stim/negf.jpg,stim/4.jpg,stim/2.jpg,stim/latef.jpg,CD,2,4,,,,,,,,,,,,,0,56,56,30,,,,,,4,1,0.633111651792,,,,,,PLC_L_D1S1,P12,60.0166937207,01,C,2015_Jan_30_1558,X,
stim/posf.jpg,stim/negf.jpg,stim/1.jpg,stim/3.jpg,stim/latef.jpg,AB,2,4,,,,,,,,,,,,,0,57,57,10,,,,,,4,1,0.816396646642,,,,,,PLC_L_D1S1,P12,60.0166937207,01,C,2015_Jan_30_1558,X,
stim/negf.jpg,stim/posf.jpg,stim/5.jpg,stim/6.jpg,stim/latef.jpg,EF,2,4,,,,,,,,,,,,,0,58,58,56,,,,,,2,0,1.18288741889,,,,,,PLC_L_D1S1,P12,60.0166937207,01,C,2015_Jan_30_1558,X,
stim/posf.jpg,stim/negf.jpg,stim/1.jpg,stim/3.jpg,stim/latef.jpg,AB,2,4,,,,,,,,,,,,,0,59,59,14,,,,,,4,1,0.666435130563,,,,,,PLC_L_D1S1,P12,60.0166937207,01,C,2015_Jan_30_1558,X,
