fb_corr,fb_incorr,symbol2,symbol1,fb_late,pair,position,correct,block_01.thisRepN,block_01.thisTrialN,block_01.thisN,block_01.thisIndex,block_02.thisRepN,block_02.thisTrialN,block_02.thisN,block_02.thisIndex,block_03.thisRepN,block_03.thisTrialN,block_03.thisN,block_03.thisIndex,block_04.thisRepN,block_04.thisTrialN,block_04.thisN,block_04.thisIndex,mouse.x,mouse.y,mouse.leftButton,mouse.midButton,mouse.rightButton,buttonBox_2.keys,buttonBox_2.corr,buttonBox_2.rt,mouse_2.x,mouse_2.y,mouse_2.leftButton,mouse_2.midButton,mouse_2.rightButton,expName,Participant,frameRate,SessionNumber,Version,date,Group,
,,,,,,,,,,,,,,,,,,,,,,,,0.9984375,1.0,1,0,0,,,,,,,,,PLC_L_D1S1,P13,60.023982244,01,C,2015_Feb_04_1449,X,
stim/posf.jpg,stim/negf.jpg,stim/4.jpg,stim/2.jpg,stim/latef.jpg,CD,2,4,0,0,0,35,,,,,,,,,,,,,,,,,,2,0,0.816466310531,,,,,,PLC_L_D1S1,P13,60.023982244,01,C,2015_Feb_04_1449,X,
stim/negf.jpg,stim/posf.jpg,stim/2.jpg,stim/4.jpg,stim/latef.jpg,CD,1,2,0,1,1,27,,,,,,,,,,,,,,,,,,2,1,1.66614453822,,,,,,PLC_L_D1S1,P13,60.023982244,01,C,2015_Feb_04_1449,X,
stim/posf.jpg,stim/negf.jpg,stim/2.jpg,stim/4.jpg,stim/latef.jpg,CD,1,2,0,2,2,20,,,,,,,,,,,,,,,,,,None,0,,,,,,,PLC_L_D1S1,P13,60.023982244,01,C,2015_Feb_04_1449,X,
stim/posf.jpg,stim/negf.jpg,stim/6.jpg,stim/5.jpg,stim/latef.jpg,EF,1,2,0,3,3,41,,,,,,,,,,,,,,,,,,4,0,1.18290124848,,,,,,PLC_L_D1S1,P13,60.023982244,01,C,2015_Feb_04_1449,X,
stim/posf.jpg,stim/negf.jpg,stim/6.jpg,stim/5.jpg,stim/latef.jpg,EF,1,2,0,4,4,40,,,,,,,,,,,,,,,,,,4,0,1.64943117484,,,,,,PLC_L_D1S1,P13,60.023982244,01,C,2015_Feb_04_1449,X,
stim/negf.jpg,stim/posf.jpg,stim/2.jpg,stim/4.jpg,stim/latef.jpg,CD,1,2,0,5,5,29,,,,,,,,,,,,,,,,,,2,1,1.09962792299,,,,,,PLC_L_D1S1,P13,60.023982244,01,C,2015_Feb_04_1449,X,
stim/posf.jpg,stim/negf.jpg,stim/5.jpg,stim/6.jpg,stim/latef.jpg,EF,2,4,0,6,6,52,,,,,,,,,,,,,,,,,,4,1,1.16627926753,,,,,,PLC_L_D1S1,P13,60.023982244,01,C,2015_Feb_04_1449,X,
stim/posf.jpg,stim/negf.jpg,stim/3.jpg,stim/1.jpg,stim/latef.jpg,AB,2,4,0,7,7,14,,,,,,,,,,,,,,,,,,4,1,1.54948063894,,,,,,PLC_L_D1S1,P13,60.023982244,01,C,2015_Feb_04_1449,X,
stim/negf.jpg,stim/posf.jpg,stim/5.jpg,stim/6.jpg,stim/latef.jpg,EF,2,4,0,8,8,57,,,,,,,,,,,,,,,,,,4,1,1.59945960609,,,,,,PLC_L_D1S1,P13,60.023982244,01,C,2015_Feb_04_1449,X,
stim/posf.jpg,stim/negf.jpg,stim/1.jpg,stim/3.jpg,stim/latef.jpg,AB,1,2,0,9,9,0,,,,,,,,,,,,,,,,,,None,0,,,,,,,PLC_L_D1S1,P13,60.023982244,01,C,2015_Feb_04_1449,X,
stim/negf.jpg,stim/posf.jpg,stim/5.jpg,stim/6.jpg,stim/latef.jpg,EF,2,4,0,10,10,59,,,,,,,,,,,,,,,,,,4,1,1.18289927858,,,,,,PLC_L_D1S1,P13,60.023982244,01,C,2015_Feb_04_1449,X,
stim/posf.jpg,stim/negf.jpg,stim/2.jpg,stim/4.jpg,stim/latef.jpg,CD,1,2,0,11,11,25,,,,,,,,,,,,,,,,,,4,0,1.51618721593,,,,,,PLC_L_D1S1,P13,60.023982244,01,C,2015_Feb_04_1449,X,
stim/negf.jpg,stim/posf.jpg,stim/5.jpg,stim/6.jpg,stim/latef.jpg,EF,2,4,0,12,12,58,,,,,,,,,,,,,,,,,,4,1,0.999648761855,,,,,,PLC_L_D1S1,P13,60.023982244,01,C,2015_Feb_04_1449,X,
stim/posf.jpg,stim/negf.jpg,stim/1.jpg,stim/3.jpg,stim/latef.jpg,AB,1,2,0,13,13,1,,,,,,,,,,,,,,,,,,2,1,0.583141895393,,,,,,PLC_L_D1S1,P13,60.023982244,01,C,2015_Feb_04_1449,X,
stim/posf.jpg,stim/negf.jpg,stim/5.jpg,stim/6.jpg,stim/latef.jpg,EF,2,4,0,14,14,51,,,,,,,,,,,,,,,,,,4,1,1.0996316613,,,,,,PLC_L_D1S1,P13,60.023982244,01,C,2015_Feb_04_1449,X,
stim/posf.jpg,stim/negf.jpg,stim/1.jpg,stim/3.jpg,stim/latef.jpg,AB,1,2,0,15,15,6,,,,,,,,,,,,,,,,,,4,0,1.11629341624,,,,,,PLC_L_D1S1,P13,60.023982244,01,C,2015_Feb_04_1449,X,
stim/negf.jpg,stim/posf.jpg,stim/6.jpg,stim/5.jpg,stim/latef.jpg,EF,1,2,0,16,16,46,,,,,,,,,,,,,,,,,,2,1,1.24958704977,,,,,,PLC_L_D1S1,P13,60.023982244,01,C,2015_Feb_04_1449,X,
stim/negf.jpg,stim/posf.jpg,stim/5.jpg,stim/6.jpg,stim/latef.jpg,EF,2,4,0,17,17,56,,,,,,,,,,,,,,,,,,4,1,0.749681093823,,,,,,PLC_L_D1S1,P13,60.023982244,01,C,2015_Feb_04_1449,X,
stim/negf.jpg,stim/posf.jpg,stim/4.jpg,stim/2.jpg,stim/latef.jpg,CD,2,4,0,18,18,37,,,,,,,,,,,,,,,,,,4,1,1.08300430597,,,,,,PLC_L_D1S1,P13,60.023982244,01,C,2015_Feb_04_1449,X,
stim/posf.jpg,stim/negf.jpg,stim/1.jpg,stim/3.jpg,stim/latef.jpg,AB,1,2,0,19,19,4,,,,,,,,,,,,,,,,,,2,1,0.699766817668,,,,,,PLC_L_D1S1,P13,60.023982244,01,C,2015_Feb_04_1449,X,
stim/posf.jpg,stim/negf.jpg,stim/1.jpg,stim/3.jpg,stim/latef.jpg,AB,1,2,0,20,20,2,,,,,,,,,,,,,,,,,,2,1,1.43285811964,,,,,,PLC_L_D1S1,P13,60.023982244,01,C,2015_Feb_04_1449,X,
stim/posf.jpg,stim/negf.jpg,stim/3.jpg,stim/1.jpg,stim/latef.jpg,AB,2,4,0,21,21,15,,,,,,,,,,,,,,,,,,4,1,1.26623302143,,,,,,PLC_L_D1S1,P13,60.023982244,01,C,2015_Feb_04_1449,X,
stim/posf.jpg,stim/negf.jpg,stim/4.jpg,stim/2.jpg,stim/latef.jpg,CD,2,4,0,22,22,36,,,,,,,,,,,,,,,,,,None,0,,,,,,,PLC_L_D1S1,P13,60.023982244,01,C,2015_Feb_04_1449,X,
stim/posf.jpg,stim/negf.jpg,stim/4.jpg,stim/2.jpg,stim/latef.jpg,CD,2,4,0,23,23,31,,,,,,,,,,,,,,,,,,4,1,1.48285509562,,,,,,PLC_L_D1S1,P13,60.023982244,01,C,2015_Feb_04_1449,X,
stim/negf.jpg,stim/posf.jpg,stim/3.jpg,stim/1.jpg,stim/latef.jpg,AB,2,4,0,24,24,19,,,,,,,,,,,,,,,,,,4,1,1.26620293455,,,,,,PLC_L_D1S1,P13,60.023982244,01,C,2015_Feb_04_1449,X,
stim/posf.jpg,stim/negf.jpg,stim/5.jpg,stim/6.jpg,stim/latef.jpg,EF,2,4,0,25,25,53,,,,,,,,,,,,,,,,,,2,0,1.06632790758,,,,,,PLC_L_D1S1,P13,60.023982244,01,C,2015_Feb_04_1449,X,
stim/negf.jpg,stim/posf.jpg,stim/4.jpg,stim/2.jpg,stim/latef.jpg,CD,2,4,0,26,26,39,,,,,,,,,,,,,,,,,,4,1,1.08286148953,,,,,,PLC_L_D1S1,P13,60.023982244,01,C,2015_Feb_04_1449,X,
stim/posf.jpg,stim/negf.jpg,stim/3.jpg,stim/1.jpg,stim/latef.jpg,AB,2,4,0,27,27,10,,,,,,,,,,,,,,,,,,4,1,0.966340517964,,,,,,PLC_L_D1S1,P13,60.023982244,01,C,2015_Feb_04_1449,X,
stim/negf.jpg,stim/posf.jpg,stim/1.jpg,stim/3.jpg,stim/latef.jpg,AB,1,2,0,28,28,9,,,,,,,,,,,,,,,,,,2,1,1.24962581926,,,,,,PLC_L_D1S1,P13,60.023982244,01,C,2015_Feb_04_1449,X,
stim/posf.jpg,stim/negf.jpg,stim/2.jpg,stim/4.jpg,stim/latef.jpg,CD,1,2,0,29,29,24,,,,,,,,,,,,,,,,,,None,0,,,,,,,PLC_L_D1S1,P13,60.023982244,01,C,2015_Feb_04_1449,X,
stim/negf.jpg,stim/posf.jpg,stim/6.jpg,stim/5.jpg,stim/latef.jpg,EF,1,2,0,30,30,49,,,,,,,,,,,,,,,,,,4,0,1.11633470901,,,,,,PLC_L_D1S1,P13,60.023982244,01,C,2015_Feb_04_1449,X,
stim/negf.jpg,stim/posf.jpg,stim/1.jpg,stim/3.jpg,stim/latef.jpg,AB,1,2,0,31,31,8,,,,,,,,,,,,,,,,,,2,1,0.999602338319,,,,,,PLC_L_D1S1,P13,60.023982244,01,C,2015_Feb_04_1449,X,
stim/posf.jpg,stim/negf.jpg,stim/3.jpg,stim/1.jpg,stim/latef.jpg,AB,2,4,0,32,32,16,,,,,,,,,,,,,,,,,,4,1,1.19967013605,,,,,,PLC_L_D1S1,P13,60.023982244,01,C,2015_Feb_04_1449,X,
stim/posf.jpg,stim/negf.jpg,stim/6.jpg,stim/5.jpg,stim/latef.jpg,EF,1,2,0,33,33,43,,,,,,,,,,,,,,,,,,2,1,1.24958689338,,,,,,PLC_L_D1S1,P13,60.023982244,01,C,2015_Feb_04_1449,X,
stim/negf.jpg,stim/posf.jpg,stim/6.jpg,stim/5.jpg,stim/latef.jpg,EF,1,2,0,34,34,48,,,,,,,,,,,,,,,,,,2,1,0.666444276192,,,,,,PLC_L_D1S1,P13,60.023982244,01,C,2015_Feb_04_1449,X,
stim/negf.jpg,stim/posf.jpg,stim/3.jpg,stim/1.jpg,stim/latef.jpg,AB,2,4,0,35,35,18,,,,,,,,,,,,,,,,,,4,1,0.883014128411,,,,,,PLC_L_D1S1,P13,60.023982244,01,C,2015_Feb_04_1449,X,
stim/negf.jpg,stim/posf.jpg,stim/2.jpg,stim/4.jpg,stim/latef.jpg,CD,1,2,0,36,36,28,,,,,,,,,,,,,,,,,,4,0,1.18290732962,,,,,,PLC_L_D1S1,P13,60.023982244,01,C,2015_Feb_04_1449,X,
stim/posf.jpg,stim/negf.jpg,stim/4.jpg,stim/2.jpg,stim/latef.jpg,CD,2,4,0,37,37,32,,,,,,,,,,,,,,,,,,2,0,0.81639519855,,,,,,PLC_L_D1S1,P13,60.023982244,01,C,2015_Feb_04_1449,X,
stim/posf.jpg,stim/negf.jpg,stim/2.jpg,stim/4.jpg,stim/latef.jpg,CD,1,2,0,38,38,26,,,,,,,,,,,,,,,,,,4,0,0.683077631455,,,,,,PLC_L_D1S1,P13,60.023982244,01,C,2015_Feb_04_1449,X,
stim/posf.jpg,stim/negf.jpg,stim/6.jpg,stim/5.jpg,stim/latef.jpg,EF,1,2,0,39,39,44,,,,,,,,,,,,,,,,,,2,1,1.14959021064,,,,,,PLC_L_D1S1,P13,60.023982244,01,C,2015_Feb_04_1449,X,
stim/posf.jpg,stim/negf.jpg,stim/4.jpg,stim/2.jpg,stim/latef.jpg,CD,2,4,0,40,40,33,,,,,,,,,,,,,,,,,,4,1,0.733072935267,,,,,,PLC_L_D1S1,P13,60.023982244,01,C,2015_Feb_04_1449,X,
stim/negf.jpg,stim/posf.jpg,stim/4.jpg,stim/2.jpg,stim/latef.jpg,CD,2,4,0,41,41,38,,,,,,,,,,,,,,,,,,4,1,0.649771880768,,,,,,PLC_L_D1S1,P13,60.023982244,01,C,2015_Feb_04_1449,X,
stim/posf.jpg,stim/negf.jpg,stim/4.jpg,stim/2.jpg,stim/latef.jpg,CD,2,4,0,42,42,30,,,,,,,,,,,,,,,,,,2,0,0.866379422789,,,,,,PLC_L_D1S1,P13,60.023982244,01,C,2015_Feb_04_1449,X,
stim/posf.jpg,stim/negf.jpg,stim/1.jpg,stim/3.jpg,stim/latef.jpg,AB,1,2,0,43,43,5,,,,,,,,,,,,,,,,,,2,1,0.966350165976,,,,,,PLC_L_D1S1,P13,60.023982244,01,C,2015_Feb_04_1449,X,
stim/posf.jpg,stim/negf.jpg,stim/1.jpg,stim/3.jpg,stim/latef.jpg,AB,1,2,0,44,44,3,,,,,,,,,,,,,,,,,,2,1,0.79973859543,,,,,,PLC_L_D1S1,P13,60.023982244,01,C,2015_Feb_04_1449,X,
stim/posf.jpg,stim/negf.jpg,stim/2.jpg,stim/4.jpg,stim/latef.jpg,CD,1,2,0,45,45,22,,,,,,,,,,,,,,,,,,2,1,0.883031562802,,,,,,PLC_L_D1S1,P13,60.023982244,01,C,2015_Feb_04_1449,X,
stim/negf.jpg,stim/posf.jpg,stim/6.jpg,stim/5.jpg,stim/latef.jpg,EF,1,2,0,46,46,47,,,,,,,,,,,,,,,,,,2,1,0.64974248862,,,,,,PLC_L_D1S1,P13,60.023982244,01,C,2015_Feb_04_1449,X,
stim/posf.jpg,stim/negf.jpg,stim/5.jpg,stim/6.jpg,stim/latef.jpg,EF,2,4,0,47,47,54,,,,,,,,,,,,,,,,,,4,1,0.966385771588,,,,,,PLC_L_D1S1,P13,60.023982244,01,C,2015_Feb_04_1449,X,
stim/posf.jpg,stim/negf.jpg,stim/3.jpg,stim/1.jpg,stim/latef.jpg,AB,2,4,0,48,48,11,,,,,,,,,,,,,,,,,,4,1,0.98301599606,,,,,,PLC_L_D1S1,P13,60.023982244,01,C,2015_Feb_04_1449,X,
stim/posf.jpg,stim/negf.jpg,stim/1.jpg,stim/3.jpg,stim/latef.jpg,AB,1,2,0,49,49,7,,,,,,,,,,,,,,,,,,2,1,0.933072787902,,,,,,PLC_L_D1S1,P13,60.023982244,01,C,2015_Feb_04_1449,X,
stim/posf.jpg,stim/negf.jpg,stim/3.jpg,stim/1.jpg,stim/latef.jpg,AB,2,4,0,50,50,13,,,,,,,,,,,,,,,,,,4,1,1.14967109393,,,,,,PLC_L_D1S1,P13,60.023982244,01,C,2015_Feb_04_1449,X,
stim/posf.jpg,stim/negf.jpg,stim/5.jpg,stim/6.jpg,stim/latef.jpg,EF,2,4,0,51,51,55,,,,,,,,,,,,,,,,,,4,1,0.866371997308,,,,,,PLC_L_D1S1,P13,60.023982244,01,C,2015_Feb_04_1449,X,
stim/posf.jpg,stim/negf.jpg,stim/4.jpg,stim/2.jpg,stim/latef.jpg,CD,2,4,0,52,52,34,,,,,,,,,,,,,,,,,,4,1,0.982983879128,,,,,,PLC_L_D1S1,P13,60.023982244,01,C,2015_Feb_04_1449,X,
stim/posf.jpg,stim/negf.jpg,stim/3.jpg,stim/1.jpg,stim/latef.jpg,AB,2,4,0,53,53,17,,,,,,,,,,,,,,,,,,4,1,0.916346173541,,,,,,PLC_L_D1S1,P13,60.023982244,01,C,2015_Feb_04_1449,X,
stim/posf.jpg,stim/negf.jpg,stim/5.jpg,stim/6.jpg,stim/latef.jpg,EF,2,4,0,54,54,50,,,,,,,,,,,,,,,,,,4,1,0.799732078209,,,,,,PLC_L_D1S1,P13,60.023982244,01,C,2015_Feb_04_1449,X,
stim/posf.jpg,stim/negf.jpg,stim/2.jpg,stim/4.jpg,stim/latef.jpg,CD,1,2,0,55,55,21,,,,,,,,,,,,,,,,,,2,1,0.749750750179,,,,,,PLC_L_D1S1,P13,60.023982244,01,C,2015_Feb_04_1449,X,
stim/posf.jpg,stim/negf.jpg,stim/3.jpg,stim/1.jpg,stim/latef.jpg,AB,2,4,0,56,56,12,,,,,,,,,,,,,,,,,,4,1,0.749757911,,,,,,PLC_L_D1S1,P13,60.023982244,01,C,2015_Feb_04_1449,X,
stim/posf.jpg,stim/negf.jpg,stim/6.jpg,stim/5.jpg,stim/latef.jpg,EF,1,2,0,57,57,42,,,,,,,,,,,,,,,,,,2,1,0.733092616249,,,,,,PLC_L_D1S1,P13,60.023982244,01,C,2015_Feb_04_1449,X,
stim/posf.jpg,stim/negf.jpg,stim/2.jpg,stim/4.jpg,stim/latef.jpg,CD,1,2,0,58,58,23,,,,,,,,,,,,,,,,,,2,1,1.13294279538,,,,,,PLC_L_D1S1,P13,60.023982244,01,C,2015_Feb_04_1449,X,
stim/posf.jpg,stim/negf.jpg,stim/6.jpg,stim/5.jpg,stim/latef.jpg,EF,1,2,0,59,59,45,,,,,,,,,,,,,,,,,,2,1,0.76647122025,,,,,,PLC_L_D1S1,P13,60.023982244,01,C,2015_Feb_04_1449,X,
,,,,,,,,,,,,,,,,,,,,,,,,,,,,,,,,0.9984375,1.0,1,0,0,PLC_L_D1S1,P13,60.023982244,01,C,2015_Feb_04_1449,X,
stim/posf.jpg,stim/negf.jpg,stim/5.jpg,stim/6.jpg,stim/latef.jpg,EF,2,4,,,,,0,0,0,55,,,,,,,,,,,,,,4,1,0.999684809569,,,,,,PLC_L_D1S1,P13,60.023982244,01,C,2015_Feb_04_1449,X,
stim/negf.jpg,stim/posf.jpg,stim/4.jpg,stim/2.jpg,stim/latef.jpg,CD,2,4,,,,,0,1,1,38,,,,,,,,,,,,,,4,1,0.94969215836,,,,,,PLC_L_D1S1,P13,60.023982244,01,C,2015_Feb_04_1449,X,
stim/posf.jpg,stim/negf.jpg,stim/4.jpg,stim/2.jpg,stim/latef.jpg,CD,2,4,,,,,0,2,2,31,,,,,,,,,,,,,,2,0,1.06624921674,,,,,,PLC_L_D1S1,P13,60.023982244,01,C,2015_Feb_04_1449,X,
stim/posf.jpg,stim/negf.jpg,stim/2.jpg,stim/4.jpg,stim/latef.jpg,CD,1,2,,,,,0,3,3,21,,,,,,,,,,,,,,2,1,1.58275225768,,,,,,PLC_L_D1S1,P13,60.023982244,01,C,2015_Feb_04_1449,X,
stim/posf.jpg,stim/negf.jpg,stim/4.jpg,stim/2.jpg,stim/latef.jpg,CD,2,4,,,,,0,4,4,34,,,,,,,,,,,,,,2,0,1.16626352635,,,,,,PLC_L_D1S1,P13,60.023982244,01,C,2015_Feb_04_1449,X,
stim/negf.jpg,stim/posf.jpg,stim/2.jpg,stim/4.jpg,stim/latef.jpg,CD,1,2,,,,,0,5,5,28,,,,,,,,,,,,,,4,0,1.11628960275,,,,,,PLC_L_D1S1,P13,60.023982244,01,C,2015_Feb_04_1449,X,
stim/posf.jpg,stim/negf.jpg,stim/5.jpg,stim/6.jpg,stim/latef.jpg,EF,2,4,,,,,0,6,6,53,,,,,,,,,,,,,,4,1,0.999630410182,,,,,,PLC_L_D1S1,P13,60.023982244,01,C,2015_Feb_04_1449,X,
stim/posf.jpg,stim/negf.jpg,stim/5.jpg,stim/6.jpg,stim/latef.jpg,EF,2,4,,,,,0,7,7,52,,,,,,,,,,,,,,4,1,0.666437716869,,,,,,PLC_L_D1S1,P13,60.023982244,01,C,2015_Feb_04_1449,X,
stim/negf.jpg,stim/posf.jpg,stim/4.jpg,stim/2.jpg,stim/latef.jpg,CD,2,4,,,,,0,8,8,37,,,,,,,,,,,,,,4,1,1.14960366612,,,,,,PLC_L_D1S1,P13,60.023982244,01,C,2015_Feb_04_1449,X,
stim/negf.jpg,stim/posf.jpg,stim/6.jpg,stim/5.jpg,stim/latef.jpg,EF,1,2,,,,,0,9,9,48,,,,,,,,,,,,,,2,1,1.08296383725,,,,,,PLC_L_D1S1,P13,60.023982244,01,C,2015_Feb_04_1449,X,
stim/negf.jpg,stim/posf.jpg,stim/1.jpg,stim/3.jpg,stim/latef.jpg,AB,1,2,,,,,0,10,10,8,,,,,,,,,,,,,,4,0,1.08290377477,,,,,,PLC_L_D1S1,P13,60.023982244,01,C,2015_Feb_04_1449,X,
stim/posf.jpg,stim/negf.jpg,stim/2.jpg,stim/4.jpg,stim/latef.jpg,CD,1,2,,,,,0,11,11,20,,,,,,,,,,,,,,4,0,1.14958443025,,,,,,PLC_L_D1S1,P13,60.023982244,01,C,2015_Feb_04_1449,X,
stim/posf.jpg,stim/negf.jpg,stim/5.jpg,stim/6.jpg,stim/latef.jpg,EF,2,4,,,,,0,12,12,54,,,,,,,,,,,,,,4,1,0.966337922506,,,,,,PLC_L_D1S1,P13,60.023982244,01,C,2015_Feb_04_1449,X,
stim/posf.jpg,stim/negf.jpg,stim/1.jpg,stim/3.jpg,stim/latef.jpg,AB,1,2,,,,,0,13,13,6,,,,,,,,,,,,,,4,0,0.733095434263,,,,,,PLC_L_D1S1,P13,60.023982244,01,C,2015_Feb_04_1449,X,
stim/posf.jpg,stim/negf.jpg,stim/6.jpg,stim/5.jpg,stim/latef.jpg,EF,1,2,,,,,0,14,14,43,,,,,,,,,,,,,,2,1,1.16628212464,,,,,,PLC_L_D1S1,P13,60.023982244,01,C,2015_Feb_04_1449,X,
stim/posf.jpg,stim/negf.jpg,stim/4.jpg,stim/2.jpg,stim/latef.jpg,CD,2,4,,,,,0,15,15,30,,,,,,,,,,,,,,4,1,0.949655545239,,,,,,PLC_L_D1S1,P13,60.023982244,01,C,2015_Feb_04_1449,X,
stim/posf.jpg,stim/negf.jpg,stim/1.jpg,stim/3.jpg,stim/latef.jpg,AB,1,2,,,,,0,16,16,0,,,,,,,,,,,,,,4,0,0.816388224193,,,,,,PLC_L_D1S1,P13,60.023982244,01,C,2015_Feb_04_1449,X,
stim/posf.jpg,stim/negf.jpg,stim/2.jpg,stim/4.jpg,stim/latef.jpg,CD,1,2,,,,,0,17,17,24,,,,,,,,,,,,,,4,0,0.882950787773,,,,,,PLC_L_D1S1,P13,60.023982244,01,C,2015_Feb_04_1449,X,
stim/posf.jpg,stim/negf.jpg,stim/5.jpg,stim/6.jpg,stim/latef.jpg,EF,2,4,,,,,0,18,18,51,,,,,,,,,,,,,,4,1,0.833066679699,,,,,,PLC_L_D1S1,P13,60.023982244,01,C,2015_Feb_04_1449,X,
stim/posf.jpg,stim/negf.jpg,stim/4.jpg,stim/2.jpg,stim/latef.jpg,CD,2,4,,,,,0,19,19,32,,,,,,,,,,,,,,4,1,1.61613088273,,,,,,PLC_L_D1S1,P13,60.023982244,01,C,2015_Feb_04_1449,X,
stim/negf.jpg,stim/posf.jpg,stim/6.jpg,stim/5.jpg,stim/latef.jpg,EF,1,2,,,,,0,20,20,47,,,,,,,,,,,,,,2,1,0.66641397879,,,,,,PLC_L_D1S1,P13,60.023982244,01,C,2015_Feb_04_1449,X,
stim/posf.jpg,stim/negf.jpg,stim/3.jpg,stim/1.jpg,stim/latef.jpg,AB,2,4,,,,,0,21,21,13,,,,,,,,,,,,,,2,0,1.04966295869,,,,,,PLC_L_D1S1,P13,60.023982244,01,C,2015_Feb_04_1449,X,
stim/posf.jpg,stim/negf.jpg,stim/6.jpg,stim/5.jpg,stim/latef.jpg,EF,1,2,,,,,0,22,22,44,,,,,,,,,,,,,,2,1,1.01637857017,,,,,,PLC_L_D1S1,P13,60.023982244,01,C,2015_Feb_04_1449,X,
stim/posf.jpg,stim/negf.jpg,stim/2.jpg,stim/4.jpg,stim/latef.jpg,CD,1,2,,,,,0,23,23,22,,,,,,,,,,,,,,4,0,0.683108001038,,,,,,PLC_L_D1S1,P13,60.023982244,01,C,2015_Feb_04_1449,X,
stim/posf.jpg,stim/negf.jpg,stim/3.jpg,stim/1.jpg,stim/latef.jpg,AB,2,4,,,,,0,24,24,15,,,,,,,,,,,,,,2,0,0.783052801658,,,,,,PLC_L_D1S1,P13,60.023982244,01,C,2015_Feb_04_1449,X,
stim/posf.jpg,stim/negf.jpg,stim/2.jpg,stim/4.jpg,stim/latef.jpg,CD,1,2,,,,,0,25,25,25,,,,,,,,,,,,,,2,1,1.08295994256,,,,,,PLC_L_D1S1,P13,60.023982244,01,C,2015_Feb_04_1449,X,
stim/posf.jpg,stim/negf.jpg,stim/3.jpg,stim/1.jpg,stim/latef.jpg,AB,2,4,,,,,0,26,26,12,,,,,,,,,,,,,,4,1,0.816407589389,,,,,,PLC_L_D1S1,P13,60.023982244,01,C,2015_Feb_04_1449,X,
stim/negf.jpg,stim/posf.jpg,stim/5.jpg,stim/6.jpg,stim/latef.jpg,EF,2,4,,,,,0,27,27,57,,,,,,,,,,,,,,4,1,0.966343979579,,,,,,PLC_L_D1S1,P13,60.023982244,01,C,2015_Feb_04_1449,X,
stim/negf.jpg,stim/posf.jpg,stim/5.jpg,stim/6.jpg,stim/latef.jpg,EF,2,4,,,,,0,28,28,56,,,,,,,,,,,,,,4,1,0.833057548974,,,,,,PLC_L_D1S1,P13,60.023982244,01,C,2015_Feb_04_1449,X,
stim/posf.jpg,stim/negf.jpg,stim/3.jpg,stim/1.jpg,stim/latef.jpg,AB,2,4,,,,,0,29,29,14,,,,,,,,,,,,,,4,1,0.916377177702,,,,,,PLC_L_D1S1,P13,60.023982244,01,C,2015_Feb_04_1449,X,
stim/negf.jpg,stim/posf.jpg,stim/2.jpg,stim/4.jpg,stim/latef.jpg,CD,1,2,,,,,0,30,30,29,,,,,,,,,,,,,,4,0,1.1829353684,,,,,,PLC_L_D1S1,P13,60.023982244,01,C,2015_Feb_04_1449,X,
stim/negf.jpg,stim/posf.jpg,stim/1.jpg,stim/3.jpg,stim/latef.jpg,AB,1,2,,,,,0,31,31,9,,,,,,,,,,,,,,2,1,1.06630901155,,,,,,PLC_L_D1S1,P13,60.023982244,01,C,2015_Feb_04_1449,X,
stim/posf.jpg,stim/negf.jpg,stim/1.jpg,stim/3.jpg,stim/latef.jpg,AB,1,2,,,,,0,32,32,1,,,,,,,,,,,,,,4,0,1.01633028199,,,,,,PLC_L_D1S1,P13,60.023982244,01,C,2015_Feb_04_1449,X,
stim/posf.jpg,stim/negf.jpg,stim/4.jpg,stim/2.jpg,stim/latef.jpg,CD,2,4,,,,,0,33,33,33,,,,,,,,,,,,,,4,1,1.03296890336,,,,,,PLC_L_D1S1,P13,60.023982244,01,C,2015_Feb_04_1449,X,
stim/posf.jpg,stim/negf.jpg,stim/6.jpg,stim/5.jpg,stim/latef.jpg,EF,1,2,,,,,0,34,34,41,,,,,,,,,,,,,,2,1,1.11631018597,,,,,,PLC_L_D1S1,P13,60.023982244,01,C,2015_Feb_04_1449,X,
stim/negf.jpg,stim/posf.jpg,stim/6.jpg,stim/5.jpg,stim/latef.jpg,EF,1,2,,,,,0,35,35,49,,,,,,,,,,,,,,2,1,0.733079013395,,,,,,PLC_L_D1S1,P13,60.023982244,01,C,2015_Feb_04_1449,X,
stim/posf.jpg,stim/negf.jpg,stim/3.jpg,stim/1.jpg,stim/latef.jpg,AB,2,4,,,,,0,36,36,17,,,,,,,,,,,,,,4,1,1.03299515569,,,,,,PLC_L_D1S1,P13,60.023982244,01,C,2015_Feb_04_1449,X,
stim/posf.jpg,stim/negf.jpg,stim/6.jpg,stim/5.jpg,stim/latef.jpg,EF,1,2,,,,,0,37,37,42,,,,,,,,,,,,,,2,1,0.799752853916,,,,,,PLC_L_D1S1,P13,60.023982244,01,C,2015_Feb_04_1449,X,
stim/posf.jpg,stim/negf.jpg,stim/3.jpg,stim/1.jpg,stim/latef.jpg,AB,2,4,,,,,0,38,38,10,,,,,,,,,,,,,,4,1,0.716436569512,,,,,,PLC_L_D1S1,P13,60.023982244,01,C,2015_Feb_04_1449,X,
stim/posf.jpg,stim/negf.jpg,stim/3.jpg,stim/1.jpg,stim/latef.jpg,AB,2,4,,,,,0,39,39,11,,,,,,,,,,,,,,4,1,0.799731230098,,,,,,PLC_L_D1S1,P13,60.023982244,01,C,2015_Feb_04_1449,X,
stim/negf.jpg,stim/posf.jpg,stim/6.jpg,stim/5.jpg,stim/latef.jpg,EF,1,2,,,,,0,40,40,46,,,,,,,,,,,,,,4,0,1.0329735018,,,,,,PLC_L_D1S1,P13,60.023982244,01,C,2015_Feb_04_1449,X,
stim/posf.jpg,stim/negf.jpg,stim/4.jpg,stim/2.jpg,stim/latef.jpg,CD,2,4,,,,,0,41,41,36,,,,,,,,,,,,,,4,1,1.03299557373,,,,,,PLC_L_D1S1,P13,60.023982244,01,C,2015_Feb_04_1449,X,
stim/posf.jpg,stim/negf.jpg,stim/1.jpg,stim/3.jpg,stim/latef.jpg,AB,1,2,,,,,0,42,42,3,,,,,,,,,,,,,,4,0,1.49952439032,,,,,,PLC_L_D1S1,P13,60.023982244,01,C,2015_Feb_04_1449,X,
stim/posf.jpg,stim/negf.jpg,stim/5.jpg,stim/6.jpg,stim/latef.jpg,EF,2,4,,,,,0,43,43,50,,,,,,,,,,,,,,4,1,1.03298887607,,,,,,PLC_L_D1S1,P13,60.023982244,01,C,2015_Feb_04_1449,X,
stim/posf.jpg,stim/negf.jpg,stim/1.jpg,stim/3.jpg,stim/latef.jpg,AB,1,2,,,,,0,44,44,7,,,,,,,,,,,,,,4,0,1.28290064097,,,,,,PLC_L_D1S1,P13,60.023982244,01,C,2015_Feb_04_1449,X,
stim/posf.jpg,stim/negf.jpg,stim/1.jpg,stim/3.jpg,stim/latef.jpg,AB,1,2,,,,,0,45,45,5,,,,,,,,,,,,,,2,1,0.932946311132,,,,,,PLC_L_D1S1,P13,60.023982244,01,C,2015_Feb_04_1449,X,
stim/posf.jpg,stim/negf.jpg,stim/6.jpg,stim/5.jpg,stim/latef.jpg,EF,1,2,,,,,0,46,46,40,,,,,,,,,,,,,,2,1,0.88301010139,,,,,,PLC_L_D1S1,P13,60.023982244,01,C,2015_Feb_04_1449,X,
stim/posf.jpg,stim/negf.jpg,stim/6.jpg,stim/5.jpg,stim/latef.jpg,EF,1,2,,,,,0,47,47,45,,,,,,,,,,,,,,2,1,0.799697789875,,,,,,PLC_L_D1S1,P13,60.023982244,01,C,2015_Feb_04_1449,X,
stim/negf.jpg,stim/posf.jpg,stim/3.jpg,stim/1.jpg,stim/latef.jpg,AB,2,4,,,,,0,48,48,19,,,,,,,,,,,,,,4,1,1.01634082022,,,,,,PLC_L_D1S1,P13,60.023982244,01,C,2015_Feb_04_1449,X,
stim/negf.jpg,stim/posf.jpg,stim/2.jpg,stim/4.jpg,stim/latef.jpg,CD,1,2,,,,,0,49,49,27,,,,,,,,,,,,,,2,1,0.983045779181,,,,,,PLC_L_D1S1,P13,60.023982244,01,C,2015_Feb_04_1449,X,
stim/negf.jpg,stim/posf.jpg,stim/3.jpg,stim/1.jpg,stim/latef.jpg,AB,2,4,,,,,0,50,50,18,,,,,,,,,,,,,,4,1,0.816397893257,,,,,,PLC_L_D1S1,P13,60.023982244,01,C,2015_Feb_04_1449,X,
stim/negf.jpg,stim/posf.jpg,stim/5.jpg,stim/6.jpg,stim/latef.jpg,EF,2,4,,,,,0,51,51,59,,,,,,,,,,,,,,4,1,0.799718252802,,,,,,PLC_L_D1S1,P13,60.023982244,01,C,2015_Feb_04_1449,X,
stim/posf.jpg,stim/negf.jpg,stim/2.jpg,stim/4.jpg,stim/latef.jpg,CD,1,2,,,,,0,52,52,23,,,,,,,,,,,,,,2,1,1.54945594448,,,,,,PLC_L_D1S1,P13,60.023982244,01,C,2015_Feb_04_1449,X,
stim/posf.jpg,stim/negf.jpg,stim/2.jpg,stim/4.jpg,stim/latef.jpg,CD,1,2,,,,,0,53,53,26,,,,,,,,,,,,,,2,1,0.699775743882,,,,,,PLC_L_D1S1,P13,60.023982244,01,C,2015_Feb_04_1449,X,
stim/negf.jpg,stim/posf.jpg,stim/5.jpg,stim/6.jpg,stim/latef.jpg,EF,2,4,,,,,0,54,54,58,,,,,,,,,,,,,,4,1,1.09967568185,,,,,,PLC_L_D1S1,P13,60.023982244,01,C,2015_Feb_04_1449,X,
stim/posf.jpg,stim/negf.jpg,stim/4.jpg,stim/2.jpg,stim/latef.jpg,CD,2,4,,,,,0,55,55,35,,,,,,,,,,,,,,4,1,1.18293669771,,,,,,PLC_L_D1S1,P13,60.023982244,01,C,2015_Feb_04_1449,X,
stim/posf.jpg,stim/negf.jpg,stim/3.jpg,stim/1.jpg,stim/latef.jpg,AB,2,4,,,,,0,56,56,16,,,,,,,,,,,,,,4,1,0.983003975143,,,,,,PLC_L_D1S1,P13,60.023982244,01,C,2015_Feb_04_1449,X,
stim/posf.jpg,stim/negf.jpg,stim/1.jpg,stim/3.jpg,stim/latef.jpg,AB,1,2,,,,,0,57,57,2,,,,,,,,,,,,,,4,0,1.11627533524,,,,,,PLC_L_D1S1,P13,60.023982244,01,C,2015_Feb_04_1449,X,
stim/negf.jpg,stim/posf.jpg,stim/4.jpg,stim/2.jpg,stim/latef.jpg,CD,2,4,,,,,0,58,58,39,,,,,,,,,,,,,,4,1,1.06628337575,,,,,,PLC_L_D1S1,P13,60.023982244,01,C,2015_Feb_04_1449,X,
stim/posf.jpg,stim/negf.jpg,stim/1.jpg,stim/3.jpg,stim/latef.jpg,AB,1,2,,,,,0,59,59,4,,,,,,,,,,,,,,2,1,0.833059867746,,,,,,PLC_L_D1S1,P13,60.023982244,01,C,2015_Feb_04_1449,X,
,,,,,,,,,,,,,,,,,,,,,,,,,,,,,,,,0.9984375,1.0,1,0,0,PLC_L_D1S1,P13,60.023982244,01,C,2015_Feb_04_1449,X,
stim/posf.jpg,stim/negf.jpg,stim/1.jpg,stim/3.jpg,stim/latef.jpg,AB,1,2,,,,,,,,,0,0,0,1,,,,,,,,,,2,1,1.23290528904,,,,,,PLC_L_D1S1,P13,60.023982244,01,C,2015_Feb_04_1449,X,
stim/negf.jpg,stim/posf.jpg,stim/2.jpg,stim/4.jpg,stim/latef.jpg,CD,1,2,,,,,,,,,0,1,1,27,,,,,,,,,,2,1,0.833048827268,,,,,,PLC_L_D1S1,P13,60.023982244,01,C,2015_Feb_04_1449,X,
stim/posf.jpg,stim/negf.jpg,stim/2.jpg,stim/4.jpg,stim/latef.jpg,CD,1,2,,,,,,,,,0,2,2,20,,,,,,,,,,4,0,1.04971068146,,,,,,PLC_L_D1S1,P13,60.023982244,01,C,2015_Feb_04_1449,X,
stim/posf.jpg,stim/negf.jpg,stim/4.jpg,stim/2.jpg,stim/latef.jpg,CD,2,4,,,,,,,,,0,3,3,33,,,,,,,,,,4,1,1.36622232982,,,,,,PLC_L_D1S1,P13,60.023982244,01,C,2015_Feb_04_1449,X,
stim/negf.jpg,stim/posf.jpg,stim/5.jpg,stim/6.jpg,stim/latef.jpg,EF,2,4,,,,,,,,,0,4,4,58,,,,,,,,,,4,1,1.49949837558,,,,,,PLC_L_D1S1,P13,60.023982244,01,C,2015_Feb_04_1449,X,
stim/posf.jpg,stim/negf.jpg,stim/5.jpg,stim/6.jpg,stim/latef.jpg,EF,2,4,,,,,,,,,0,5,5,52,,,,,,,,,,2,0,0.566428396673,,,,,,PLC_L_D1S1,P13,60.023982244,01,C,2015_Feb_04_1449,X,
stim/negf.jpg,stim/posf.jpg,stim/3.jpg,stim/1.jpg,stim/latef.jpg,AB,2,4,,,,,,,,,0,6,6,18,,,,,,,,,,4,1,0.916362465085,,,,,,PLC_L_D1S1,P13,60.023982244,01,C,2015_Feb_04_1449,X,
stim/posf.jpg,stim/negf.jpg,stim/1.jpg,stim/3.jpg,stim/latef.jpg,AB,1,2,,,,,,,,,0,7,7,0,,,,,,,,,,2,1,1.29956820938,,,,,,PLC_L_D1S1,P13,60.023982244,01,C,2015_Feb_04_1449,X,
stim/posf.jpg,stim/negf.jpg,stim/4.jpg,stim/2.jpg,stim/latef.jpg,CD,2,4,,,,,,,,,0,8,8,34,,,,,,,,,,2,0,1.0330197088,,,,,,PLC_L_D1S1,P13,60.023982244,01,C,2015_Feb_04_1449,X,
stim/posf.jpg,stim/negf.jpg,stim/5.jpg,stim/6.jpg,stim/latef.jpg,EF,2,4,,,,,,,,,0,9,9,50,,,,,,,,,,2,0,0.883043291993,,,,,,PLC_L_D1S1,P13,60.023982244,01,C,2015_Feb_04_1449,X,
stim/posf.jpg,stim/negf.jpg,stim/2.jpg,stim/4.jpg,stim/latef.jpg,CD,1,2,,,,,,,,,0,10,10,26,,,,,,,,,,4,0,1.09968725165,,,,,,PLC_L_D1S1,P13,60.023982244,01,C,2015_Feb_04_1449,X,
stim/posf.jpg,stim/negf.jpg,stim/1.jpg,stim/3.jpg,stim/latef.jpg,AB,1,2,,,,,,,,,0,11,11,7,,,,,,,,,,4,0,0.966295652304,,,,,,PLC_L_D1S1,P13,60.023982244,01,C,2015_Feb_04_1449,X,
stim/posf.jpg,stim/negf.jpg,stim/1.jpg,stim/3.jpg,stim/latef.jpg,AB,1,2,,,,,,,,,0,12,12,4,,,,,,,,,,2,1,1.06628653361,,,,,,PLC_L_D1S1,P13,60.023982244,01,C,2015_Feb_04_1449,X,
stim/posf.jpg,stim/negf.jpg,stim/3.jpg,stim/1.jpg,stim/latef.jpg,AB,2,4,,,,,,,,,0,13,13,13,,,,,,,,,,4,1,1.46617167776,,,,,,PLC_L_D1S1,P13,60.023982244,01,C,2015_Feb_04_1449,X,
stim/posf.jpg,stim/negf.jpg,stim/6.jpg,stim/5.jpg,stim/latef.jpg,EF,1,2,,,,,,,,,0,14,14,40,,,,,,,,,,2,1,0.849719054297,,,,,,PLC_L_D1S1,P13,60.023982244,01,C,2015_Feb_04_1449,X,
stim/posf.jpg,stim/negf.jpg,stim/4.jpg,stim/2.jpg,stim/latef.jpg,CD,2,4,,,,,,,,,0,15,15,31,,,,,,,,,,4,1,0.9996832547,,,,,,PLC_L_D1S1,P13,60.023982244,01,C,2015_Feb_04_1449,X,
stim/posf.jpg,stim/negf.jpg,stim/2.jpg,stim/4.jpg,stim/latef.jpg,CD,1,2,,,,,,,,,0,16,16,22,,,,,,,,,,2,1,0.982998477462,,,,,,PLC_L_D1S1,P13,60.023982244,01,C,2015_Feb_04_1449,X,
stim/posf.jpg,stim/negf.jpg,stim/1.jpg,stim/3.jpg,stim/latef.jpg,AB,1,2,,,,,,,,,0,17,17,3,,,,,,,,,,2,1,1.03298785653,,,,,,PLC_L_D1S1,P13,60.023982244,01,C,2015_Feb_04_1449,X,
stim/negf.jpg,stim/posf.jpg,stim/4.jpg,stim/2.jpg,stim/latef.jpg,CD,2,4,,,,,,,,,0,18,18,38,,,,,,,,,,4,1,0.86639251437,,,,,,PLC_L_D1S1,P13,60.023982244,01,C,2015_Feb_04_1449,X,
stim/posf.jpg,stim/negf.jpg,stim/5.jpg,stim/6.jpg,stim/latef.jpg,EF,2,4,,,,,,,,,0,19,19,51,,,,,,,,,,4,1,1.14960981643,,,,,,PLC_L_D1S1,P13,60.023982244,01,C,2015_Feb_04_1449,X,
stim/posf.jpg,stim/negf.jpg,stim/3.jpg,stim/1.jpg,stim/latef.jpg,AB,2,4,,,,,,,,,0,20,20,16,,,,,,,,,,4,1,0.883084677993,,,,,,PLC_L_D1S1,P13,60.023982244,01,C,2015_Feb_04_1449,X,
stim/negf.jpg,stim/posf.jpg,stim/2.jpg,stim/4.jpg,stim/latef.jpg,CD,1,2,,,,,,,,,0,21,21,28,,,,,,,,,,2,1,0.783068726294,,,,,,PLC_L_D1S1,P13,60.023982244,01,C,2015_Feb_04_1449,X,
stim/posf.jpg,stim/negf.jpg,stim/6.jpg,stim/5.jpg,stim/latef.jpg,EF,1,2,,,,,,,,,0,22,22,43,,,,,,,,,,4,0,0.633134687954,,,,,,PLC_L_D1S1,P13,60.023982244,01,C,2015_Feb_04_1449,X,
stim/posf.jpg,stim/negf.jpg,stim/6.jpg,stim/5.jpg,stim/latef.jpg,EF,1,2,,,,,,,,,0,23,23,41,,,,,,,,,,2,1,1.28299086852,,,,,,PLC_L_D1S1,P13,60.023982244,01,C,2015_Feb_04_1449,X,
stim/posf.jpg,stim/negf.jpg,stim/3.jpg,stim/1.jpg,stim/latef.jpg,AB,2,4,,,,,,,,,0,24,24,14,,,,,,,,,,2,0,0.616456960261,,,,,,PLC_L_D1S1,P13,60.023982244,01,C,2015_Feb_04_1449,X,
stim/posf.jpg,stim/negf.jpg,stim/6.jpg,stim/5.jpg,stim/latef.jpg,EF,1,2,,,,,,,,,0,25,25,44,,,,,,,,,,2,1,0.833063876724,,,,,,PLC_L_D1S1,P13,60.023982244,01,C,2015_Feb_04_1449,X,
stim/posf.jpg,stim/negf.jpg,stim/4.jpg,stim/2.jpg,stim/latef.jpg,CD,2,4,,,,,,,,,0,26,26,35,,,,,,,,,,4,1,0.833025450089,,,,,,PLC_L_D1S1,P13,60.023982244,01,C,2015_Feb_04_1449,X,
stim/posf.jpg,stim/negf.jpg,stim/1.jpg,stim/3.jpg,stim/latef.jpg,AB,1,2,,,,,,,,,0,27,27,5,,,,,,,,,,2,1,0.96634552242,,,,,,PLC_L_D1S1,P13,60.023982244,01,C,2015_Feb_04_1449,X,
stim/negf.jpg,stim/posf.jpg,stim/6.jpg,stim/5.jpg,stim/latef.jpg,EF,1,2,,,,,,,,,0,28,28,48,,,,,,,,,,2,1,0.949684627618,,,,,,PLC_L_D1S1,P13,60.023982244,01,C,2015_Feb_04_1449,X,
stim/posf.jpg,stim/negf.jpg,stim/3.jpg,stim/1.jpg,stim/latef.jpg,AB,2,4,,,,,,,,,0,29,29,17,,,,,,,,,,4,1,0.699812600611,,,,,,PLC_L_D1S1,P13,60.023982244,01,C,2015_Feb_04_1449,X,
stim/negf.jpg,stim/posf.jpg,stim/3.jpg,stim/1.jpg,stim/latef.jpg,AB,2,4,,,,,,,,,0,30,30,19,,,,,,,,,,4,1,0.766402231555,,,,,,PLC_L_D1S1,P13,60.023982244,01,C,2015_Feb_04_1449,X,
stim/posf.jpg,stim/negf.jpg,stim/3.jpg,stim/1.jpg,stim/latef.jpg,AB,2,4,,,,,,,,,0,31,31,10,,,,,,,,,,2,0,1.18293050229,,,,,,PLC_L_D1S1,P13,60.023982244,01,C,2015_Feb_04_1449,X,
stim/posf.jpg,stim/negf.jpg,stim/5.jpg,stim/6.jpg,stim/latef.jpg,EF,2,4,,,,,,,,,0,32,32,54,,,,,,,,,,4,1,0.633150302816,,,,,,PLC_L_D1S1,P13,60.023982244,01,C,2015_Feb_04_1449,X,
stim/negf.jpg,stim/posf.jpg,stim/4.jpg,stim/2.jpg,stim/latef.jpg,CD,2,4,,,,,,,,,0,33,33,39,,,,,,,,,,4,1,0.799724502354,,,,,,PLC_L_D1S1,P13,60.023982244,01,C,2015_Feb_04_1449,X,
stim/posf.jpg,stim/negf.jpg,stim/2.jpg,stim/4.jpg,stim/latef.jpg,CD,1,2,,,,,,,,,0,34,34,21,,,,,,,,,,2,1,0.799732694744,,,,,,PLC_L_D1S1,P13,60.023982244,01,C,2015_Feb_04_1449,X,
stim/posf.jpg,stim/negf.jpg,stim/4.jpg,stim/2.jpg,stim/latef.jpg,CD,2,4,,,,,,,,,0,35,35,30,,,,,,,,,,4,1,0.599796489512,,,,,,PLC_L_D1S1,P13,60.023982244,01,C,2015_Feb_04_1449,X,
stim/posf.jpg,stim/negf.jpg,stim/5.jpg,stim/6.jpg,stim/latef.jpg,EF,2,4,,,,,,,,,0,36,36,55,,,,,,,,,,4,1,0.916423483946,,,,,,PLC_L_D1S1,P13,60.023982244,01,C,2015_Feb_04_1449,X,
stim/posf.jpg,stim/negf.jpg,stim/1.jpg,stim/3.jpg,stim/latef.jpg,AB,1,2,,,,,,,,,0,37,37,2,,,,,,,,,,2,1,0.66638901065,,,,,,PLC_L_D1S1,P13,60.023982244,01,C,2015_Feb_04_1449,X,
stim/negf.jpg,stim/posf.jpg,stim/6.jpg,stim/5.jpg,stim/latef.jpg,EF,1,2,,,,,,,,,0,38,38,46,,,,,,,,,,2,1,0.716437177025,,,,,,PLC_L_D1S1,P13,60.023982244,01,C,2015_Feb_04_1449,X,
stim/negf.jpg,stim/posf.jpg,stim/6.jpg,stim/5.jpg,stim/latef.jpg,EF,1,2,,,,,,,,,0,39,39,47,,,,,,,,,,2,1,0.84968964711,,,,,,PLC_L_D1S1,P13,60.023982244,01,C,2015_Feb_04_1449,X,
stim/negf.jpg,stim/posf.jpg,stim/5.jpg,stim/6.jpg,stim/latef.jpg,EF,2,4,,,,,,,,,0,40,40,57,,,,,,,,,,4,1,0.633102652226,,,,,,PLC_L_D1S1,P13,60.023982244,01,C,2015_Feb_04_1449,X,
stim/negf.jpg,stim/posf.jpg,stim/4.jpg,stim/2.jpg,stim/latef.jpg,CD,2,4,,,,,,,,,0,41,41,37,,,,,,,,,,2,0,1.09962594407,,,,,,PLC_L_D1S1,P13,60.023982244,01,C,2015_Feb_04_1449,X,
stim/negf.jpg,stim/posf.jpg,stim/2.jpg,stim/4.jpg,stim/latef.jpg,CD,1,2,,,,,,,,,0,42,42,29,,,,,,,,,,4,0,0.749750386272,,,,,,PLC_L_D1S1,P13,60.023982244,01,C,2015_Feb_04_1449,X,
stim/posf.jpg,stim/negf.jpg,stim/2.jpg,stim/4.jpg,stim/latef.jpg,CD,1,2,,,,,,,,,0,43,43,25,,,,,,,,,,4,0,0.783078927681,,,,,,PLC_L_D1S1,P13,60.023982244,01,C,2015_Feb_04_1449,X,
stim/negf.jpg,stim/posf.jpg,stim/5.jpg,stim/6.jpg,stim/latef.jpg,EF,2,4,,,,,,,,,0,44,44,56,,,,,,,,,,2,0,0.866367356759,,,,,,PLC_L_D1S1,P13,60.023982244,01,C,2015_Feb_04_1449,X,
stim/posf.jpg,stim/negf.jpg,stim/4.jpg,stim/2.jpg,stim/latef.jpg,CD,2,4,,,,,,,,,0,45,45,36,,,,,,,,,,2,0,0.766417699049,,,,,,PLC_L_D1S1,P13,60.023982244,01,C,2015_Feb_04_1449,X,
stim/posf.jpg,stim/negf.jpg,stim/3.jpg,stim/1.jpg,stim/latef.jpg,AB,2,4,,,,,,,,,0,46,46,11,,,,,,,,,,2,0,1.28290053571,,,,,,PLC_L_D1S1,P13,60.023982244,01,C,2015_Feb_04_1449,X,
stim/posf.jpg,stim/negf.jpg,stim/2.jpg,stim/4.jpg,stim/latef.jpg,CD,1,2,,,,,,,,,0,47,47,23,,,,,,,,,,4,0,1.08299211362,,,,,,PLC_L_D1S1,P13,60.023982244,01,C,2015_Feb_04_1449,X,
stim/negf.jpg,stim/posf.jpg,stim/6.jpg,stim/5.jpg,stim/latef.jpg,EF,1,2,,,,,,,,,0,48,48,49,,,,,,,,,,4,0,0.96634187434,,,,,,PLC_L_D1S1,P13,60.023982244,01,C,2015_Feb_04_1449,X,
stim/posf.jpg,stim/negf.jpg,stim/2.jpg,stim/4.jpg,stim/latef.jpg,CD,1,2,,,,,,,,,0,49,49,24,,,,,,,,,,2,1,1.34953545035,,,,,,PLC_L_D1S1,P13,60.023982244,01,C,2015_Feb_04_1449,X,
stim/posf.jpg,stim/negf.jpg,stim/6.jpg,stim/5.jpg,stim/latef.jpg,EF,1,2,,,,,,,,,0,50,50,45,,,,,,,,,,None,0,,,,,,,PLC_L_D1S1,P13,60.023982244,01,C,2015_Feb_04_1449,X,
stim/posf.jpg,stim/negf.jpg,stim/6.jpg,stim/5.jpg,stim/latef.jpg,EF,1,2,,,,,,,,,0,51,51,42,,,,,,,,,,4,0,0.866401037581,,,,,,PLC_L_D1S1,P13,60.023982244,01,C,2015_Feb_04_1449,X,
stim/negf.jpg,stim/posf.jpg,stim/5.jpg,stim/6.jpg,stim/latef.jpg,EF,2,4,,,,,,,,,0,52,52,59,,,,,,,,,,4,1,1.18293713078,,,,,,PLC_L_D1S1,P13,60.023982244,01,C,2015_Feb_04_1449,X,
stim/negf.jpg,stim/posf.jpg,stim/1.jpg,stim/3.jpg,stim/latef.jpg,AB,1,2,,,,,,,,,0,53,53,9,,,,,,,,,,4,0,1.03301530584,,,,,,PLC_L_D1S1,P13,60.023982244,01,C,2015_Feb_04_1449,X,
stim/negf.jpg,stim/posf.jpg,stim/1.jpg,stim/3.jpg,stim/latef.jpg,AB,1,2,,,,,,,,,0,54,54,8,,,,,,,,,,2,1,1.41627242399,,,,,,PLC_L_D1S1,P13,60.023982244,01,C,2015_Feb_04_1449,X,
stim/posf.jpg,stim/negf.jpg,stim/4.jpg,stim/2.jpg,stim/latef.jpg,CD,2,4,,,,,,,,,0,55,55,32,,,,,,,,,,4,1,1.38284005218,,,,,,PLC_L_D1S1,P13,60.023982244,01,C,2015_Feb_04_1449,X,
stim/posf.jpg,stim/negf.jpg,stim/1.jpg,stim/3.jpg,stim/latef.jpg,AB,1,2,,,,,,,,,0,56,56,6,,,,,,,,,,4,0,1.16627581193,,,,,,PLC_L_D1S1,P13,60.023982244,01,C,2015_Feb_04_1449,X,
stim/posf.jpg,stim/negf.jpg,stim/5.jpg,stim/6.jpg,stim/latef.jpg,EF,2,4,,,,,,,,,0,57,57,53,,,,,,,,,,4,1,1.33291361075,,,,,,PLC_L_D1S1,P13,60.023982244,01,C,2015_Feb_04_1449,X,
stim/posf.jpg,stim/negf.jpg,stim/3.jpg,stim/1.jpg,stim/latef.jpg,AB,2,4,,,,,,,,,0,58,58,15,,,,,,,,,,4,1,1.0163181137,,,,,,PLC_L_D1S1,P13,60.023982244,01,C,2015_Feb_04_1449,X,
stim/posf.jpg,stim/negf.jpg,stim/3.jpg,stim/1.jpg,stim/latef.jpg,AB,2,4,,,,,,,,,0,59,59,12,,,,,,,,,,4,1,1.0163238971,,,,,,PLC_L_D1S1,P13,60.023982244,01,C,2015_Feb_04_1449,X,
,,,,,,,,,,,,,,,,,,,,,,,,,,,,,,,,0.9984375,1.0,1,0,0,PLC_L_D1S1,P13,60.023982244,01,C,2015_Feb_04_1449,X,
stim/posf.jpg,stim/negf.jpg,stim/5.jpg,stim/6.jpg,stim/latef.jpg,EF,2,4,,,,,,,,,,,,,0,0,0,51,,,,,,4,1,1.54948469303,,,,,,PLC_L_D1S1,P13,60.023982244,01,C,2015_Feb_04_1449,X,
stim/posf.jpg,stim/negf.jpg,stim/4.jpg,stim/2.jpg,stim/latef.jpg,CD,2,4,,,,,,,,,,,,,0,1,1,31,,,,,,4,1,0.899706469476,,,,,,PLC_L_D1S1,P13,60.023982244,01,C,2015_Feb_04_1449,X,
stim/posf.jpg,stim/negf.jpg,stim/4.jpg,stim/2.jpg,stim/latef.jpg,CD,2,4,,,,,,,,,,,,,0,2,2,35,,,,,,4,1,0.76639390082,,,,,,PLC_L_D1S1,P13,60.023982244,01,C,2015_Feb_04_1449,X,
stim/posf.jpg,stim/negf.jpg,stim/5.jpg,stim/6.jpg,stim/latef.jpg,EF,2,4,,,,,,,,,,,,,0,3,3,54,,,,,,4,1,1.14961913061,,,,,,PLC_L_D1S1,P13,60.023982244,01,C,2015_Feb_04_1449,X,
stim/posf.jpg,stim/negf.jpg,stim/3.jpg,stim/1.jpg,stim/latef.jpg,AB,2,4,,,,,,,,,,,,,0,4,4,13,,,,,,4,1,1.06631128822,,,,,,PLC_L_D1S1,P13,60.023982244,01,C,2015_Feb_04_1449,X,
stim/posf.jpg,stim/negf.jpg,stim/6.jpg,stim/5.jpg,stim/latef.jpg,EF,1,2,,,,,,,,,,,,,0,5,5,44,,,,,,2,1,1.09962067496,,,,,,PLC_L_D1S1,P13,60.023982244,01,C,2015_Feb_04_1449,X,
stim/posf.jpg,stim/negf.jpg,stim/1.jpg,stim/3.jpg,stim/latef.jpg,AB,1,2,,,,,,,,,,,,,0,6,6,2,,,,,,2,1,1.23290389958,,,,,,PLC_L_D1S1,P13,60.023982244,01,C,2015_Feb_04_1449,X,
stim/posf.jpg,stim/negf.jpg,stim/6.jpg,stim/5.jpg,stim/latef.jpg,EF,1,2,,,,,,,,,,,,,0,7,7,42,,,,,,2,1,0.866381470885,,,,,,PLC_L_D1S1,P13,60.023982244,01,C,2015_Feb_04_1449,X,
stim/posf.jpg,stim/negf.jpg,stim/4.jpg,stim/2.jpg,stim/latef.jpg,CD,2,4,,,,,,,,,,,,,0,8,8,32,,,,,,4,1,1.03299831957,,,,,,PLC_L_D1S1,P13,60.023982244,01,C,2015_Feb_04_1449,X,
stim/posf.jpg,stim/negf.jpg,stim/1.jpg,stim/3.jpg,stim/latef.jpg,AB,1,2,,,,,,,,,,,,,0,9,9,4,,,,,,4,0,0.799728682759,,,,,,PLC_L_D1S1,P13,60.023982244,01,C,2015_Feb_04_1449,X,
stim/posf.jpg,stim/negf.jpg,stim/1.jpg,stim/3.jpg,stim/latef.jpg,AB,1,2,,,,,,,,,,,,,0,10,10,1,,,,,,4,0,1.01627552471,,,,,,PLC_L_D1S1,P13,60.023982244,01,C,2015_Feb_04_1449,X,
stim/posf.jpg,stim/negf.jpg,stim/6.jpg,stim/5.jpg,stim/latef.jpg,EF,1,2,,,,,,,,,,,,,0,11,11,43,,,,,,2,1,0.733094947049,,,,,,PLC_L_D1S1,P13,60.023982244,01,C,2015_Feb_04_1449,X,
stim/posf.jpg,stim/negf.jpg,stim/4.jpg,stim/2.jpg,stim/latef.jpg,CD,2,4,,,,,,,,,,,,,0,12,12,30,,,,,,4,1,0.833053082859,,,,,,PLC_L_D1S1,P13,60.023982244,01,C,2015_Feb_04_1449,X,
stim/posf.jpg,stim/negf.jpg,stim/6.jpg,stim/5.jpg,stim/latef.jpg,EF,1,2,,,,,,,,,,,,,0,13,13,40,,,,,,2,1,0.899662749667,,,,,,PLC_L_D1S1,P13,60.023982244,01,C,2015_Feb_04_1449,X,
stim/posf.jpg,stim/negf.jpg,stim/1.jpg,stim/3.jpg,stim/latef.jpg,AB,1,2,,,,,,,,,,,,,0,14,14,6,,,,,,2,1,0.816389872294,,,,,,PLC_L_D1S1,P13,60.023982244,01,C,2015_Feb_04_1449,X,
stim/posf.jpg,stim/negf.jpg,stim/5.jpg,stim/6.jpg,stim/latef.jpg,EF,2,4,,,,,,,,,,,,,0,15,15,55,,,,,,4,1,0.899685149416,,,,,,PLC_L_D1S1,P13,60.023982244,01,C,2015_Feb_04_1449,X,
stim/posf.jpg,stim/negf.jpg,stim/4.jpg,stim/2.jpg,stim/latef.jpg,CD,2,4,,,,,,,,,,,,,0,16,16,34,,,,,,4,1,0.833052024227,,,,,,PLC_L_D1S1,P13,60.023982244,01,C,2015_Feb_04_1449,X,
stim/negf.jpg,stim/posf.jpg,stim/2.jpg,stim/4.jpg,stim/latef.jpg,CD,1,2,,,,,,,,,,,,,0,17,17,28,,,,,,2,1,1.58280911117,,,,,,PLC_L_D1S1,P13,60.023982244,01,C,2015_Feb_04_1449,X,
stim/posf.jpg,stim/negf.jpg,stim/1.jpg,stim/3.jpg,stim/latef.jpg,AB,1,2,,,,,,,,,,,,,0,18,18,3,,,,,,4,0,1.08294704345,,,,,,PLC_L_D1S1,P13,60.023982244,01,C,2015_Feb_04_1449,X,
stim/negf.jpg,stim/posf.jpg,stim/1.jpg,stim/3.jpg,stim/latef.jpg,AB,1,2,,,,,,,,,,,,,0,19,19,9,,,,,,4,0,0.783088476446,,,,,,PLC_L_D1S1,P13,60.023982244,01,C,2015_Feb_04_1449,X,
stim/negf.jpg,stim/posf.jpg,stim/5.jpg,stim/6.jpg,stim/latef.jpg,EF,2,4,,,,,,,,,,,,,0,20,20,59,,,,,,4,1,0.916360407966,,,,,,PLC_L_D1S1,P13,60.023982244,01,C,2015_Feb_04_1449,X,
stim/negf.jpg,stim/posf.jpg,stim/6.jpg,stim/5.jpg,stim/latef.jpg,EF,1,2,,,,,,,,,,,,,0,21,21,47,,,,,,2,1,0.68309418766,,,,,,PLC_L_D1S1,P13,60.023982244,01,C,2015_Feb_04_1449,X,
stim/negf.jpg,stim/posf.jpg,stim/4.jpg,stim/2.jpg,stim/latef.jpg,CD,2,4,,,,,,,,,,,,,0,22,22,37,,,,,,2,0,1.21626024368,,,,,,PLC_L_D1S1,P13,60.023982244,01,C,2015_Feb_04_1449,X,
stim/negf.jpg,stim/posf.jpg,stim/1.jpg,stim/3.jpg,stim/latef.jpg,AB,1,2,,,,,,,,,,,,,0,23,23,8,,,,,,4,0,1.46616814698,,,,,,PLC_L_D1S1,P13,60.023982244,01,C,2015_Feb_04_1449,X,
stim/posf.jpg,stim/negf.jpg,stim/2.jpg,stim/4.jpg,stim/latef.jpg,CD,1,2,,,,,,,,,,,,,0,24,24,26,,,,,,4,0,1.26624428446,,,,,,PLC_L_D1S1,P13,60.023982244,01,C,2015_Feb_04_1449,X,
stim/posf.jpg,stim/negf.jpg,stim/2.jpg,stim/4.jpg,stim/latef.jpg,CD,1,2,,,,,,,,,,,,,0,25,25,22,,,,,,4,0,0.733091061378,,,,,,PLC_L_D1S1,P13,60.023982244,01,C,2015_Feb_04_1449,X,
stim/posf.jpg,stim/negf.jpg,stim/1.jpg,stim/3.jpg,stim/latef.jpg,AB,1,2,,,,,,,,,,,,,0,26,26,7,,,,,,4,0,1.01633669094,,,,,,PLC_L_D1S1,P13,60.023982244,01,C,2015_Feb_04_1449,X,
stim/posf.jpg,stim/negf.jpg,stim/2.jpg,stim/4.jpg,stim/latef.jpg,CD,1,2,,,,,,,,,,,,,0,27,27,20,,,,,,2,1,0.966287929083,,,,,,PLC_L_D1S1,P13,60.023982244,01,C,2015_Feb_04_1449,X,
stim/posf.jpg,stim/negf.jpg,stim/3.jpg,stim/1.jpg,stim/latef.jpg,AB,2,4,,,,,,,,,,,,,0,28,28,12,,,,,,4,1,1.08299295271,,,,,,PLC_L_D1S1,P13,60.023982244,01,C,2015_Feb_04_1449,X,
stim/posf.jpg,stim/negf.jpg,stim/3.jpg,stim/1.jpg,stim/latef.jpg,AB,2,4,,,,,,,,,,,,,0,29,29,10,,,,,,4,1,0.783060284282,,,,,,PLC_L_D1S1,P13,60.023982244,01,C,2015_Feb_04_1449,X,
stim/posf.jpg,stim/negf.jpg,stim/3.jpg,stim/1.jpg,stim/latef.jpg,AB,2,4,,,,,,,,,,,,,0,30,30,14,,,,,,4,1,0.716430313945,,,,,,PLC_L_D1S1,P13,60.023982244,01,C,2015_Feb_04_1449,X,
stim/negf.jpg,stim/posf.jpg,stim/6.jpg,stim/5.jpg,stim/latef.jpg,EF,1,2,,,,,,,,,,,,,0,31,31,49,,,,,,2,1,0.833057855738,,,,,,PLC_L_D1S1,P13,60.023982244,01,C,2015_Feb_04_1449,X,
stim/negf.jpg,stim/posf.jpg,stim/5.jpg,stim/6.jpg,stim/latef.jpg,EF,2,4,,,,,,,,,,,,,0,32,32,56,,,,,,4,1,0.799764748517,,,,,,PLC_L_D1S1,P13,60.023982244,01,C,2015_Feb_04_1449,X,
stim/posf.jpg,stim/negf.jpg,stim/6.jpg,stim/5.jpg,stim/latef.jpg,EF,1,2,,,,,,,,,,,,,0,33,33,41,,,,,,4,0,1.21620840968,,,,,,PLC_L_D1S1,P13,60.023982244,01,C,2015_Feb_04_1449,X,
stim/negf.jpg,stim/posf.jpg,stim/2.jpg,stim/4.jpg,stim/latef.jpg,CD,1,2,,,,,,,,,,,,,0,34,34,29,,,,,,2,1,1.44946779096,,,,,,PLC_L_D1S1,P13,60.023982244,01,C,2015_Feb_04_1449,X,
stim/posf.jpg,stim/negf.jpg,stim/1.jpg,stim/3.jpg,stim/latef.jpg,AB,1,2,,,,,,,,,,,,,0,35,35,5,,,,,,4,0,1.19964419349,,,,,,PLC_L_D1S1,P13,60.023982244,01,C,2015_Feb_04_1449,X,
stim/posf.jpg,stim/negf.jpg,stim/2.jpg,stim/4.jpg,stim/latef.jpg,CD,1,2,,,,,,,,,,,,,0,36,36,25,,,,,,None,0,,,,,,,PLC_L_D1S1,P13,60.023982244,01,C,2015_Feb_04_1449,X,
stim/posf.jpg,stim/negf.jpg,stim/5.jpg,stim/6.jpg,stim/latef.jpg,EF,2,4,,,,,,,,,,,,,0,37,37,53,,,,,,4,1,0.666494338786,,,,,,PLC_L_D1S1,P13,60.023982244,01,C,2015_Feb_04_1449,X,
stim/posf.jpg,stim/negf.jpg,stim/4.jpg,stim/2.jpg,stim/latef.jpg,CD,2,4,,,,,,,,,,,,,0,38,38,33,,,,,,2,0,0.649804845809,,,,,,PLC_L_D1S1,P13,60.023982244,01,C,2015_Feb_04_1449,X,
stim/negf.jpg,stim/posf.jpg,stim/6.jpg,stim/5.jpg,stim/latef.jpg,EF,1,2,,,,,,,,,,,,,0,39,39,46,,,,,,4,0,1.09962917411,,,,,,PLC_L_D1S1,P13,60.023982244,01,C,2015_Feb_04_1449,X,
stim/negf.jpg,stim/posf.jpg,stim/4.jpg,stim/2.jpg,stim/latef.jpg,CD,2,4,,,,,,,,,,,,,0,40,40,38,,,,,,4,1,0.665451195664,,,,,,PLC_L_D1S1,P13,60.023982244,01,C,2015_Feb_04_1449,X,
stim/posf.jpg,stim/negf.jpg,stim/6.jpg,stim/5.jpg,stim/latef.jpg,EF,1,2,,,,,,,,,,,,,0,41,41,45,,,,,,2,1,0.699757416271,,,,,,PLC_L_D1S1,P13,60.023982244,01,C,2015_Feb_04_1449,X,
stim/negf.jpg,stim/posf.jpg,stim/4.jpg,stim/2.jpg,stim/latef.jpg,CD,2,4,,,,,,,,,,,,,0,42,42,39,,,,,,4,1,0.916277581833,,,,,,PLC_L_D1S1,P13,60.023982244,01,C,2015_Feb_04_1449,X,
stim/negf.jpg,stim/posf.jpg,stim/2.jpg,stim/4.jpg,stim/latef.jpg,CD,1,2,,,,,,,,,,,,,0,43,43,27,,,,,,None,0,,,,,,,PLC_L_D1S1,P13,60.023982244,01,C,2015_Feb_04_1449,X,
stim/negf.jpg,stim/posf.jpg,stim/3.jpg,stim/1.jpg,stim/latef.jpg,AB,2,4,,,,,,,,,,,,,0,44,44,18,,,,,,4,1,0.633149349444,,,,,,PLC_L_D1S1,P13,60.023982244,01,C,2015_Feb_04_1449,X,
stim/posf.jpg,stim/negf.jpg,stim/2.jpg,stim/4.jpg,stim/latef.jpg,CD,1,2,,,,,,,,,,,,,0,45,45,23,,,,,,2,1,0.483166358274,,,,,,PLC_L_D1S1,P13,60.023982244,01,C,2015_Feb_04_1449,X,
stim/posf.jpg,stim/negf.jpg,stim/3.jpg,stim/1.jpg,stim/latef.jpg,AB,2,4,,,,,,,,,,,,,0,46,46,15,,,,,,2,0,0.783086395266,,,,,,PLC_L_D1S1,P13,60.023982244,01,C,2015_Feb_04_1449,X,
stim/posf.jpg,stim/negf.jpg,stim/5.jpg,stim/6.jpg,stim/latef.jpg,EF,2,4,,,,,,,,,,,,,0,47,47,50,,,,,,4,1,0.849709240874,,,,,,PLC_L_D1S1,P13,60.023982244,01,C,2015_Feb_04_1449,X,
stim/posf.jpg,stim/negf.jpg,stim/3.jpg,stim/1.jpg,stim/latef.jpg,AB,2,4,,,,,,,,,,,,,0,48,48,17,,,,,,4,1,0.949704648445,,,,,,PLC_L_D1S1,P13,60.023982244,01,C,2015_Feb_04_1449,X,
stim/posf.jpg,stim/negf.jpg,stim/1.jpg,stim/3.jpg,stim/latef.jpg,AB,1,2,,,,,,,,,,,,,0,49,49,0,,,,,,2,1,1.01633047747,,,,,,PLC_L_D1S1,P13,60.023982244,01,C,2015_Feb_04_1449,X,
stim/negf.jpg,stim/posf.jpg,stim/5.jpg,stim/6.jpg,stim/latef.jpg,EF,2,4,,,,,,,,,,,,,0,50,50,58,,,,,,2,0,1.53283108837,,,,,,PLC_L_D1S1,P13,60.023982244,01,C,2015_Feb_04_1449,X,
stim/posf.jpg,stim/negf.jpg,stim/2.jpg,stim/4.jpg,stim/latef.jpg,CD,1,2,,,,,,,,,,,,,0,51,51,24,,,,,,2,1,0.833060583527,,,,,,PLC_L_D1S1,P13,60.023982244,01,C,2015_Feb_04_1449,X,
stim/negf.jpg,stim/posf.jpg,stim/3.jpg,stim/1.jpg,stim/latef.jpg,AB,2,4,,,,,,,,,,,,,0,52,52,19,,,,,,4,1,0.883056924922,,,,,,PLC_L_D1S1,P13,60.023982244,01,C,2015_Feb_04_1449,X,
stim/posf.jpg,stim/negf.jpg,stim/3.jpg,stim/1.jpg,stim/latef.jpg,AB,2,4,,,,,,,,,,,,,0,53,53,11,,,,,,2,0,0.79974641489,,,,,,PLC_L_D1S1,P13,60.023982244,01,C,2015_Feb_04_1449,X,
stim/negf.jpg,stim/posf.jpg,stim/6.jpg,stim/5.jpg,stim/latef.jpg,EF,1,2,,,,,,,,,,,,,0,54,54,48,,,,,,2,1,1.0329931076,,,,,,PLC_L_D1S1,P13,60.023982244,01,C,2015_Feb_04_1449,X,
stim/posf.jpg,stim/negf.jpg,stim/4.jpg,stim/2.jpg,stim/latef.jpg,CD,2,4,,,,,,,,,,,,,0,55,55,36,,,,,,4,1,0.483192821133,,,,,,PLC_L_D1S1,P13,60.023982244,01,C,2015_Feb_04_1449,X,
stim/posf.jpg,stim/negf.jpg,stim/5.jpg,stim/6.jpg,stim/latef.jpg,EF,2,4,,,,,,,,,,,,,0,56,56,52,,,,,,4,1,0.849707667958,,,,,,PLC_L_D1S1,P13,60.023982244,01,C,2015_Feb_04_1449,X,
stim/posf.jpg,stim/negf.jpg,stim/3.jpg,stim/1.jpg,stim/latef.jpg,AB,2,4,,,,,,,,,,,,,0,57,57,16,,,,,,2,0,0.683088196749,,,,,,PLC_L_D1S1,P13,60.023982244,01,C,2015_Feb_04_1449,X,
stim/posf.jpg,stim/negf.jpg,stim/2.jpg,stim/4.jpg,stim/latef.jpg,CD,1,2,,,,,,,,,,,,,0,58,58,21,,,,,,4,0,0.699748222389,,,,,,PLC_L_D1S1,P13,60.023982244,01,C,2015_Feb_04_1449,X,
stim/negf.jpg,stim/posf.jpg,stim/5.jpg,stim/6.jpg,stim/latef.jpg,EF,2,4,,,,,,,,,,,,,0,59,59,57,,,,,,4,1,0.699793322632,,,,,,PLC_L_D1S1,P13,60.023982244,01,C,2015_Feb_04_1449,X,
