fb_corr,fb_incorr,symbol2,symbol1,fb_late,pair,position,correct,block_01.thisRepN,block_01.thisTrialN,block_01.thisN,block_01.thisIndex,block_02.thisRepN,block_02.thisTrialN,block_02.thisN,block_02.thisIndex,block_03.thisRepN,block_03.thisTrialN,block_03.thisN,block_03.thisIndex,block_04.thisRepN,block_04.thisTrialN,block_04.thisN,block_04.thisIndex,mouse.x,mouse.y,mouse.leftButton,mouse.midButton,mouse.rightButton,buttonBox_2.keys,buttonBox_2.corr,buttonBox_2.rt,mouse_2.x,mouse_2.y,mouse_2.leftButton,mouse_2.midButton,mouse_2.rightButton,expName,Participant,frameRate,SessionNumber,Version,date,Group,
,,,,,,,,,,,,,,,,,,,,,,,,0.9984375,1.0,1,0,0,,,,,,,,,PLC_L_D1S1,P17,60.02479249,01,B,2015_Feb_18_1453,X,
stim/posf.jpg,stim/negf.jpg,stim/1.jpg,stim/4.jpg,stim/latef.jpg,AB,1,2,0,0,0,5,,,,,,,,,,,,,,,,,,2,1,1.13299933083,,,,,,PLC_L_D1S1,P17,60.02479249,01,B,2015_Feb_18_1453,X,
stim/posf.jpg,stim/negf.jpg,stim/4.jpg,stim/1.jpg,stim/latef.jpg,AB,2,4,0,1,1,14,,,,,,,,,,,,,,,,,,4,1,1.18294417636,,,,,,PLC_L_D1S1,P17,60.02479249,01,B,2015_Feb_18_1453,X,
stim/posf.jpg,stim/negf.jpg,stim/6.jpg,stim/3.jpg,stim/latef.jpg,EF,2,4,0,2,2,53,,,,,,,,,,,,,,,,,,4,1,1.43275544394,,,,,,PLC_L_D1S1,P17,60.02479249,01,B,2015_Feb_18_1453,X,
stim/negf.jpg,stim/posf.jpg,stim/1.jpg,stim/4.jpg,stim/latef.jpg,AB,1,2,0,3,3,8,,,,,,,,,,,,,,,,,,2,1,0.866362649905,,,,,,PLC_L_D1S1,P17,60.02479249,01,B,2015_Feb_18_1453,X,
stim/posf.jpg,stim/negf.jpg,stim/1.jpg,stim/4.jpg,stim/latef.jpg,AB,1,2,0,4,4,7,,,,,,,,,,,,,,,,,,2,1,1.03299830528,,,,,,PLC_L_D1S1,P17,60.02479249,01,B,2015_Feb_18_1453,X,
stim/posf.jpg,stim/negf.jpg,stim/5.jpg,stim/2.jpg,stim/latef.jpg,CD,2,4,0,5,5,31,,,,,,,,,,,,,,,,,,2,0,1.56609666393,,,,,,PLC_L_D1S1,P17,60.02479249,01,B,2015_Feb_18_1453,X,
stim/posf.jpg,stim/negf.jpg,stim/6.jpg,stim/3.jpg,stim/latef.jpg,EF,2,4,0,6,6,55,,,,,,,,,,,,,,,,,,4,1,1.13294836881,,,,,,PLC_L_D1S1,P17,60.02479249,01,B,2015_Feb_18_1453,X,
stim/posf.jpg,stim/negf.jpg,stim/2.jpg,stim/5.jpg,stim/latef.jpg,CD,1,2,0,7,7,24,,,,,,,,,,,,,,,,,,2,1,1.49950912249,,,,,,PLC_L_D1S1,P17,60.02479249,01,B,2015_Feb_18_1453,X,
stim/negf.jpg,stim/posf.jpg,stim/3.jpg,stim/6.jpg,stim/latef.jpg,EF,1,2,0,8,8,46,,,,,,,,,,,,,,,,,,2,1,1.4329234517,,,,,,PLC_L_D1S1,P17,60.02479249,01,B,2015_Feb_18_1453,X,
stim/posf.jpg,stim/negf.jpg,stim/6.jpg,stim/3.jpg,stim/latef.jpg,EF,2,4,0,9,9,50,,,,,,,,,,,,,,,,,,4,1,1.19953212983,,,,,,PLC_L_D1S1,P17,60.02479249,01,B,2015_Feb_18_1453,X,
stim/posf.jpg,stim/negf.jpg,stim/2.jpg,stim/5.jpg,stim/latef.jpg,CD,1,2,0,10,10,26,,,,,,,,,,,,,,,,,,2,1,1.16630021428,,,,,,PLC_L_D1S1,P17,60.02479249,01,B,2015_Feb_18_1453,X,
stim/negf.jpg,stim/posf.jpg,stim/4.jpg,stim/1.jpg,stim/latef.jpg,AB,2,4,0,11,11,19,,,,,,,,,,,,,,,,,,4,1,0.816376634762,,,,,,PLC_L_D1S1,P17,60.02479249,01,B,2015_Feb_18_1453,X,
stim/negf.jpg,stim/posf.jpg,stim/6.jpg,stim/3.jpg,stim/latef.jpg,EF,2,4,0,12,12,57,,,,,,,,,,,,,,,,,,4,1,0.999677391899,,,,,,PLC_L_D1S1,P17,60.02479249,01,B,2015_Feb_18_1453,X,
stim/posf.jpg,stim/negf.jpg,stim/4.jpg,stim/1.jpg,stim/latef.jpg,AB,2,4,0,13,13,15,,,,,,,,,,,,,,,,,,4,1,0.849696254915,,,,,,PLC_L_D1S1,P17,60.02479249,01,B,2015_Feb_18_1453,X,
stim/posf.jpg,stim/negf.jpg,stim/3.jpg,stim/6.jpg,stim/latef.jpg,EF,1,2,0,14,14,43,,,,,,,,,,,,,,,,,,2,1,0.933047667311,,,,,,PLC_L_D1S1,P17,60.02479249,01,B,2015_Feb_18_1453,X,
stim/negf.jpg,stim/posf.jpg,stim/5.jpg,stim/2.jpg,stim/latef.jpg,CD,2,4,0,15,15,39,,,,,,,,,,,,,,,,,,4,1,1.26624628386,,,,,,PLC_L_D1S1,P17,60.02479249,01,B,2015_Feb_18_1453,X,
stim/negf.jpg,stim/posf.jpg,stim/1.jpg,stim/4.jpg,stim/latef.jpg,AB,1,2,0,16,16,9,,,,,,,,,,,,,,,,,,2,1,0.74974770716,,,,,,PLC_L_D1S1,P17,60.02479249,01,B,2015_Feb_18_1453,X,
stim/posf.jpg,stim/negf.jpg,stim/3.jpg,stim/6.jpg,stim/latef.jpg,EF,1,2,0,17,17,45,,,,,,,,,,,,,,,,,,2,1,0.799708131518,,,,,,PLC_L_D1S1,P17,60.02479249,01,B,2015_Feb_18_1453,X,
stim/negf.jpg,stim/posf.jpg,stim/2.jpg,stim/5.jpg,stim/latef.jpg,CD,1,2,0,18,18,28,,,,,,,,,,,,,,,,,,2,1,1.18293848317,,,,,,PLC_L_D1S1,P17,60.02479249,01,B,2015_Feb_18_1453,X,
stim/posf.jpg,stim/negf.jpg,stim/3.jpg,stim/6.jpg,stim/latef.jpg,EF,1,2,0,19,19,41,,,,,,,,,,,,,,,,,,2,1,0.833124532898,,,,,,PLC_L_D1S1,P17,60.02479249,01,B,2015_Feb_18_1453,X,
stim/posf.jpg,stim/negf.jpg,stim/6.jpg,stim/3.jpg,stim/latef.jpg,EF,2,4,0,20,20,54,,,,,,,,,,,,,,,,,,4,1,0.949677716709,,,,,,PLC_L_D1S1,P17,60.02479249,01,B,2015_Feb_18_1453,X,
stim/negf.jpg,stim/posf.jpg,stim/3.jpg,stim/6.jpg,stim/latef.jpg,EF,1,2,0,21,21,49,,,,,,,,,,,,,,,,,,2,1,0.949675205449,,,,,,PLC_L_D1S1,P17,60.02479249,01,B,2015_Feb_18_1453,X,
stim/posf.jpg,stim/negf.jpg,stim/3.jpg,stim/6.jpg,stim/latef.jpg,EF,1,2,0,22,22,42,,,,,,,,,,,,,,,,,,2,1,0.899732122315,,,,,,PLC_L_D1S1,P17,60.02479249,01,B,2015_Feb_18_1453,X,
stim/posf.jpg,stim/negf.jpg,stim/2.jpg,stim/5.jpg,stim/latef.jpg,CD,1,2,0,23,23,21,,,,,,,,,,,,,,,,,,2,1,1.08287993624,,,,,,PLC_L_D1S1,P17,60.02479249,01,B,2015_Feb_18_1453,X,
stim/negf.jpg,stim/posf.jpg,stim/2.jpg,stim/5.jpg,stim/latef.jpg,CD,1,2,0,24,24,29,,,,,,,,,,,,,,,,,,2,1,1.1996549259,,,,,,PLC_L_D1S1,P17,60.02479249,01,B,2015_Feb_18_1453,X,
stim/posf.jpg,stim/negf.jpg,stim/3.jpg,stim/6.jpg,stim/latef.jpg,EF,1,2,0,25,25,40,,,,,,,,,,,,,,,,,,2,1,1.11627702649,,,,,,PLC_L_D1S1,P17,60.02479249,01,B,2015_Feb_18_1453,X,
stim/posf.jpg,stim/negf.jpg,stim/2.jpg,stim/5.jpg,stim/latef.jpg,CD,1,2,0,26,26,25,,,,,,,,,,,,,,,,,,2,1,1.16626396493,,,,,,PLC_L_D1S1,P17,60.02479249,01,B,2015_Feb_18_1453,X,
stim/posf.jpg,stim/negf.jpg,stim/5.jpg,stim/2.jpg,stim/latef.jpg,CD,2,4,0,27,27,34,,,,,,,,,,,,,,,,,,4,1,0.933022608852,,,,,,PLC_L_D1S1,P17,60.02479249,01,B,2015_Feb_18_1453,X,
stim/posf.jpg,stim/negf.jpg,stim/6.jpg,stim/3.jpg,stim/latef.jpg,EF,2,4,0,28,28,52,,,,,,,,,,,,,,,,,,4,1,0.999663891249,,,,,,PLC_L_D1S1,P17,60.02479249,01,B,2015_Feb_18_1453,X,
stim/negf.jpg,stim/posf.jpg,stim/6.jpg,stim/3.jpg,stim/latef.jpg,EF,2,4,0,29,29,58,,,,,,,,,,,,,,,,,,4,1,1.03300296389,,,,,,PLC_L_D1S1,P17,60.02479249,01,B,2015_Feb_18_1453,X,
stim/posf.jpg,stim/negf.jpg,stim/6.jpg,stim/3.jpg,stim/latef.jpg,EF,2,4,0,30,30,51,,,,,,,,,,,,,,,,,,4,1,0.716346511681,,,,,,PLC_L_D1S1,P17,60.02479249,01,B,2015_Feb_18_1453,X,
stim/posf.jpg,stim/negf.jpg,stim/4.jpg,stim/1.jpg,stim/latef.jpg,AB,2,4,0,31,31,11,,,,,,,,,,,,,,,,,,4,1,0.916365789731,,,,,,PLC_L_D1S1,P17,60.02479249,01,B,2015_Feb_18_1453,X,
stim/posf.jpg,stim/negf.jpg,stim/5.jpg,stim/2.jpg,stim/latef.jpg,CD,2,4,0,32,32,30,,,,,,,,,,,,,,,,,,4,1,1.18294298539,,,,,,PLC_L_D1S1,P17,60.02479249,01,B,2015_Feb_18_1453,X,
stim/negf.jpg,stim/posf.jpg,stim/6.jpg,stim/3.jpg,stim/latef.jpg,EF,2,4,0,33,33,59,,,,,,,,,,,,,,,,,,4,1,0.766420929166,,,,,,PLC_L_D1S1,P17,60.02479249,01,B,2015_Feb_18_1453,X,
stim/posf.jpg,stim/negf.jpg,stim/3.jpg,stim/6.jpg,stim/latef.jpg,EF,1,2,0,34,34,44,,,,,,,,,,,,,,,,,,2,1,0.84973198397,,,,,,PLC_L_D1S1,P17,60.02479249,01,B,2015_Feb_18_1453,X,
stim/negf.jpg,stim/posf.jpg,stim/5.jpg,stim/2.jpg,stim/latef.jpg,CD,2,4,0,35,35,38,,,,,,,,,,,,,,,,,,4,1,0.833065179961,,,,,,PLC_L_D1S1,P17,60.02479249,01,B,2015_Feb_18_1453,X,
stim/posf.jpg,stim/negf.jpg,stim/4.jpg,stim/1.jpg,stim/latef.jpg,AB,2,4,0,36,36,10,,,,,,,,,,,,,,,,,,4,1,0.649768750611,,,,,,PLC_L_D1S1,P17,60.02479249,01,B,2015_Feb_18_1453,X,
stim/posf.jpg,stim/negf.jpg,stim/1.jpg,stim/4.jpg,stim/latef.jpg,AB,1,2,0,37,37,1,,,,,,,,,,,,,,,,,,2,1,0.866281270065,,,,,,PLC_L_D1S1,P17,60.02479249,01,B,2015_Feb_18_1453,X,
stim/negf.jpg,stim/posf.jpg,stim/3.jpg,stim/6.jpg,stim/latef.jpg,EF,1,2,0,38,38,47,,,,,,,,,,,,,,,,,,2,1,1.08297577612,,,,,,PLC_L_D1S1,P17,60.02479249,01,B,2015_Feb_18_1453,X,
stim/posf.jpg,stim/negf.jpg,stim/1.jpg,stim/4.jpg,stim/latef.jpg,AB,1,2,0,39,39,2,,,,,,,,,,,,,,,,,,2,1,0.866379091887,,,,,,PLC_L_D1S1,P17,60.02479249,01,B,2015_Feb_18_1453,X,
stim/posf.jpg,stim/negf.jpg,stim/1.jpg,stim/4.jpg,stim/latef.jpg,AB,1,2,0,40,40,4,,,,,,,,,,,,,,,,,,2,1,0.899693891023,,,,,,PLC_L_D1S1,P17,60.02479249,01,B,2015_Feb_18_1453,X,
stim/posf.jpg,stim/negf.jpg,stim/4.jpg,stim/1.jpg,stim/latef.jpg,AB,2,4,0,41,41,16,,,,,,,,,,,,,,,,,,4,1,1.11631359163,,,,,,PLC_L_D1S1,P17,60.02479249,01,B,2015_Feb_18_1453,X,
stim/posf.jpg,stim/negf.jpg,stim/2.jpg,stim/5.jpg,stim/latef.jpg,CD,1,2,0,42,42,22,,,,,,,,,,,,,,,,,,4,0,1.26623661777,,,,,,PLC_L_D1S1,P17,60.02479249,01,B,2015_Feb_18_1453,X,
stim/posf.jpg,stim/negf.jpg,stim/1.jpg,stim/4.jpg,stim/latef.jpg,AB,1,2,0,43,43,0,,,,,,,,,,,,,,,,,,2,1,0.79973380952,,,,,,PLC_L_D1S1,P17,60.02479249,01,B,2015_Feb_18_1453,X,
stim/negf.jpg,stim/posf.jpg,stim/2.jpg,stim/5.jpg,stim/latef.jpg,CD,1,2,0,44,44,27,,,,,,,,,,,,,,,,,,2,1,0.983003568394,,,,,,PLC_L_D1S1,P17,60.02479249,01,B,2015_Feb_18_1453,X,
stim/posf.jpg,stim/negf.jpg,stim/5.jpg,stim/2.jpg,stim/latef.jpg,CD,2,4,0,45,45,36,,,,,,,,,,,,,,,,,,4,1,1.01633214788,,,,,,PLC_L_D1S1,P17,60.02479249,01,B,2015_Feb_18_1453,X,
stim/posf.jpg,stim/negf.jpg,stim/4.jpg,stim/1.jpg,stim/latef.jpg,AB,2,4,0,46,46,13,,,,,,,,,,,,,,,,,,4,1,0.666447629717,,,,,,PLC_L_D1S1,P17,60.02479249,01,B,2015_Feb_18_1453,X,
stim/posf.jpg,stim/negf.jpg,stim/1.jpg,stim/4.jpg,stim/latef.jpg,AB,1,2,0,47,47,3,,,,,,,,,,,,,,,,,,2,1,0.66644727784,,,,,,PLC_L_D1S1,P17,60.02479249,01,B,2015_Feb_18_1453,X,
stim/posf.jpg,stim/negf.jpg,stim/4.jpg,stim/1.jpg,stim/latef.jpg,AB,2,4,0,48,48,12,,,,,,,,,,,,,,,,,,4,1,0.733091315103,,,,,,PLC_L_D1S1,P17,60.02479249,01,B,2015_Feb_18_1453,X,
stim/posf.jpg,stim/negf.jpg,stim/1.jpg,stim/4.jpg,stim/latef.jpg,AB,1,2,0,49,49,6,,,,,,,,,,,,,,,,,,2,1,0.749756022887,,,,,,PLC_L_D1S1,P17,60.02479249,01,B,2015_Feb_18_1453,X,
stim/posf.jpg,stim/negf.jpg,stim/4.jpg,stim/1.jpg,stim/latef.jpg,AB,2,4,0,50,50,17,,,,,,,,,,,,,,,,,,4,1,0.71644689288,,,,,,PLC_L_D1S1,P17,60.02479249,01,B,2015_Feb_18_1453,X,
stim/posf.jpg,stim/negf.jpg,stim/5.jpg,stim/2.jpg,stim/latef.jpg,CD,2,4,0,51,51,35,,,,,,,,,,,,,,,,,,4,1,0.949607350321,,,,,,PLC_L_D1S1,P17,60.02479249,01,B,2015_Feb_18_1453,X,
stim/negf.jpg,stim/posf.jpg,stim/5.jpg,stim/2.jpg,stim/latef.jpg,CD,2,4,0,52,52,37,,,,,,,,,,,,,,,,,,4,1,0.76639985564,,,,,,PLC_L_D1S1,P17,60.02479249,01,B,2015_Feb_18_1453,X,
stim/negf.jpg,stim/posf.jpg,stim/3.jpg,stim/6.jpg,stim/latef.jpg,EF,1,2,0,53,53,48,,,,,,,,,,,,,,,,,,4,0,0.799732799002,,,,,,PLC_L_D1S1,P17,60.02479249,01,B,2015_Feb_18_1453,X,
stim/posf.jpg,stim/negf.jpg,stim/5.jpg,stim/2.jpg,stim/latef.jpg,CD,2,4,0,54,54,32,,,,,,,,,,,,,,,,,,4,1,0.999675175375,,,,,,PLC_L_D1S1,P17,60.02479249,01,B,2015_Feb_18_1453,X,
stim/posf.jpg,stim/negf.jpg,stim/5.jpg,stim/2.jpg,stim/latef.jpg,CD,2,4,0,55,55,33,,,,,,,,,,,,,,,,,,4,1,0.849728994519,,,,,,PLC_L_D1S1,P17,60.02479249,01,B,2015_Feb_18_1453,X,
stim/posf.jpg,stim/negf.jpg,stim/2.jpg,stim/5.jpg,stim/latef.jpg,CD,1,2,0,56,56,23,,,,,,,,,,,,,,,,,,2,1,1.2662151653,,,,,,PLC_L_D1S1,P17,60.02479249,01,B,2015_Feb_18_1453,X,
stim/negf.jpg,stim/posf.jpg,stim/4.jpg,stim/1.jpg,stim/latef.jpg,AB,2,4,0,57,57,18,,,,,,,,,,,,,,,,,,4,1,0.699764988233,,,,,,PLC_L_D1S1,P17,60.02479249,01,B,2015_Feb_18_1453,X,
stim/negf.jpg,stim/posf.jpg,stim/6.jpg,stim/3.jpg,stim/latef.jpg,EF,2,4,0,58,58,56,,,,,,,,,,,,,,,,,,4,1,0.89965323569,,,,,,PLC_L_D1S1,P17,60.02479249,01,B,2015_Feb_18_1453,X,
stim/posf.jpg,stim/negf.jpg,stim/2.jpg,stim/5.jpg,stim/latef.jpg,CD,1,2,0,59,59,20,,,,,,,,,,,,,,,,,,2,1,1.24957980466,,,,,,PLC_L_D1S1,P17,60.02479249,01,B,2015_Feb_18_1453,X,
,,,,,,,,,,,,,,,,,,,,,,,,,,,,,,,,0.9984375,1.0,1,0,0,PLC_L_D1S1,P17,60.02479249,01,B,2015_Feb_18_1453,X,
stim/posf.jpg,stim/negf.jpg,stim/2.jpg,stim/5.jpg,stim/latef.jpg,CD,1,2,,,,,0,0,0,22,,,,,,,,,,,,,,2,1,1.41618831738,,,,,,PLC_L_D1S1,P17,60.02479249,01,B,2015_Feb_18_1453,X,
stim/posf.jpg,stim/negf.jpg,stim/6.jpg,stim/3.jpg,stim/latef.jpg,EF,2,4,,,,,0,1,1,54,,,,,,,,,,,,,,4,1,0.933021499086,,,,,,PLC_L_D1S1,P17,60.02479249,01,B,2015_Feb_18_1453,X,
stim/negf.jpg,stim/posf.jpg,stim/2.jpg,stim/5.jpg,stim/latef.jpg,CD,1,2,,,,,0,2,2,27,,,,,,,,,,,,,,2,1,0.966341332772,,,,,,PLC_L_D1S1,P17,60.02479249,01,B,2015_Feb_18_1453,X,
stim/posf.jpg,stim/negf.jpg,stim/6.jpg,stim/3.jpg,stim/latef.jpg,EF,2,4,,,,,0,3,3,50,,,,,,,,,,,,,,4,1,0.833056599574,,,,,,PLC_L_D1S1,P17,60.02479249,01,B,2015_Feb_18_1453,X,
stim/posf.jpg,stim/negf.jpg,stim/6.jpg,stim/3.jpg,stim/latef.jpg,EF,2,4,,,,,0,4,4,53,,,,,,,,,,,,,,4,1,0.666381903895,,,,,,PLC_L_D1S1,P17,60.02479249,01,B,2015_Feb_18_1453,X,
stim/posf.jpg,stim/negf.jpg,stim/4.jpg,stim/1.jpg,stim/latef.jpg,AB,2,4,,,,,0,5,5,15,,,,,,,,,,,,,,4,1,0.699784461771,,,,,,PLC_L_D1S1,P17,60.02479249,01,B,2015_Feb_18_1453,X,
stim/posf.jpg,stim/negf.jpg,stim/1.jpg,stim/4.jpg,stim/latef.jpg,AB,1,2,,,,,0,6,6,6,,,,,,,,,,,,,,2,1,0.699788049714,,,,,,PLC_L_D1S1,P17,60.02479249,01,B,2015_Feb_18_1453,X,
stim/posf.jpg,stim/negf.jpg,stim/5.jpg,stim/2.jpg,stim/latef.jpg,CD,2,4,,,,,0,7,7,34,,,,,,,,,,,,,,2,0,0.866358565725,,,,,,PLC_L_D1S1,P17,60.02479249,01,B,2015_Feb_18_1453,X,
stim/posf.jpg,stim/negf.jpg,stim/3.jpg,stim/6.jpg,stim/latef.jpg,EF,1,2,,,,,0,8,8,42,,,,,,,,,,,,,,2,1,0.833138036556,,,,,,PLC_L_D1S1,P17,60.02479249,01,B,2015_Feb_18_1453,X,
stim/posf.jpg,stim/negf.jpg,stim/1.jpg,stim/4.jpg,stim/latef.jpg,AB,1,2,,,,,0,9,9,4,,,,,,,,,,,,,,2,1,0.733096599274,,,,,,PLC_L_D1S1,P17,60.02479249,01,B,2015_Feb_18_1453,X,
stim/posf.jpg,stim/negf.jpg,stim/6.jpg,stim/3.jpg,stim/latef.jpg,EF,2,4,,,,,0,10,10,51,,,,,,,,,,,,,,4,1,0.633128893768,,,,,,PLC_L_D1S1,P17,60.02479249,01,B,2015_Feb_18_1453,X,
stim/posf.jpg,stim/negf.jpg,stim/2.jpg,stim/5.jpg,stim/latef.jpg,CD,1,2,,,,,0,11,11,24,,,,,,,,,,,,,,2,1,0.966323636664,,,,,,PLC_L_D1S1,P17,60.02479249,01,B,2015_Feb_18_1453,X,
stim/posf.jpg,stim/negf.jpg,stim/3.jpg,stim/6.jpg,stim/latef.jpg,EF,1,2,,,,,0,12,12,40,,,,,,,,,,,,,,2,1,0.783230306539,,,,,,PLC_L_D1S1,P17,60.02479249,01,B,2015_Feb_18_1453,X,
stim/negf.jpg,stim/posf.jpg,stim/5.jpg,stim/2.jpg,stim/latef.jpg,CD,2,4,,,,,0,13,13,37,,,,,,,,,,,,,,4,1,1.04959014143,,,,,,PLC_L_D1S1,P17,60.02479249,01,B,2015_Feb_18_1453,X,
stim/posf.jpg,stim/negf.jpg,stim/5.jpg,stim/2.jpg,stim/latef.jpg,CD,2,4,,,,,0,14,14,35,,,,,,,,,,,,,,4,1,0.899736780927,,,,,,PLC_L_D1S1,P17,60.02479249,01,B,2015_Feb_18_1453,X,
stim/negf.jpg,stim/posf.jpg,stim/2.jpg,stim/5.jpg,stim/latef.jpg,CD,1,2,,,,,0,15,15,28,,,,,,,,,,,,,,2,1,0.716412330735,,,,,,PLC_L_D1S1,P17,60.02479249,01,B,2015_Feb_18_1453,X,
stim/posf.jpg,stim/negf.jpg,stim/3.jpg,stim/6.jpg,stim/latef.jpg,EF,1,2,,,,,0,16,16,43,,,,,,,,,,,,,,2,1,0.599795264697,,,,,,PLC_L_D1S1,P17,60.02479249,01,B,2015_Feb_18_1453,X,
stim/posf.jpg,stim/negf.jpg,stim/5.jpg,stim/2.jpg,stim/latef.jpg,CD,2,4,,,,,0,17,17,30,,,,,,,,,,,,,,4,1,0.749729923835,,,,,,PLC_L_D1S1,P17,60.02479249,01,B,2015_Feb_18_1453,X,
stim/posf.jpg,stim/negf.jpg,stim/6.jpg,stim/3.jpg,stim/latef.jpg,EF,2,4,,,,,0,18,18,52,,,,,,,,,,,,,,4,1,0.88304671995,,,,,,PLC_L_D1S1,P17,60.02479249,01,B,2015_Feb_18_1453,X,
stim/negf.jpg,stim/posf.jpg,stim/4.jpg,stim/1.jpg,stim/latef.jpg,AB,2,4,,,,,0,19,19,18,,,,,,,,,,,,,,4,1,0.983001872166,,,,,,PLC_L_D1S1,P17,60.02479249,01,B,2015_Feb_18_1453,X,
stim/negf.jpg,stim/posf.jpg,stim/3.jpg,stim/6.jpg,stim/latef.jpg,EF,1,2,,,,,0,20,20,49,,,,,,,,,,,,,,2,1,0.633108325501,,,,,,PLC_L_D1S1,P17,60.02479249,01,B,2015_Feb_18_1453,X,
stim/posf.jpg,stim/negf.jpg,stim/2.jpg,stim/5.jpg,stim/latef.jpg,CD,1,2,,,,,0,21,21,20,,,,,,,,,,,,,,2,1,0.88302304494,,,,,,PLC_L_D1S1,P17,60.02479249,01,B,2015_Feb_18_1453,X,
stim/posf.jpg,stim/negf.jpg,stim/5.jpg,stim/2.jpg,stim/latef.jpg,CD,2,4,,,,,0,22,22,33,,,,,,,,,,,,,,4,1,0.883102927045,,,,,,PLC_L_D1S1,P17,60.02479249,01,B,2015_Feb_18_1453,X,
stim/negf.jpg,stim/posf.jpg,stim/6.jpg,stim/3.jpg,stim/latef.jpg,EF,2,4,,,,,0,23,23,56,,,,,,,,,,,,,,4,1,0.766406457094,,,,,,PLC_L_D1S1,P17,60.02479249,01,B,2015_Feb_18_1453,X,
stim/posf.jpg,stim/negf.jpg,stim/1.jpg,stim/4.jpg,stim/latef.jpg,AB,1,2,,,,,0,24,24,5,,,,,,,,,,,,,,2,1,0.633110277367,,,,,,PLC_L_D1S1,P17,60.02479249,01,B,2015_Feb_18_1453,X,
stim/posf.jpg,stim/negf.jpg,stim/4.jpg,stim/1.jpg,stim/latef.jpg,AB,2,4,,,,,0,25,25,10,,,,,,,,,,,,,,4,1,0.583180508417,,,,,,PLC_L_D1S1,P17,60.02479249,01,B,2015_Feb_18_1453,X,
stim/negf.jpg,stim/posf.jpg,stim/3.jpg,stim/6.jpg,stim/latef.jpg,EF,1,2,,,,,0,26,26,48,,,,,,,,,,,,,,2,1,0.749758883016,,,,,,PLC_L_D1S1,P17,60.02479249,01,B,2015_Feb_18_1453,X,
stim/negf.jpg,stim/posf.jpg,stim/4.jpg,stim/1.jpg,stim/latef.jpg,AB,2,4,,,,,0,27,27,19,,,,,,,,,,,,,,4,1,0.583083384336,,,,,,PLC_L_D1S1,P17,60.02479249,01,B,2015_Feb_18_1453,X,
stim/posf.jpg,stim/negf.jpg,stim/3.jpg,stim/6.jpg,stim/latef.jpg,EF,1,2,,,,,0,28,28,45,,,,,,,,,,,,,,2,1,0.566479806919,,,,,,PLC_L_D1S1,P17,60.02479249,01,B,2015_Feb_18_1453,X,
stim/posf.jpg,stim/negf.jpg,stim/4.jpg,stim/1.jpg,stim/latef.jpg,AB,2,4,,,,,0,29,29,17,,,,,,,,,,,,,,4,1,0.583133116292,,,,,,PLC_L_D1S1,P17,60.02479249,01,B,2015_Feb_18_1453,X,
stim/posf.jpg,stim/negf.jpg,stim/1.jpg,stim/4.jpg,stim/latef.jpg,AB,1,2,,,,,0,30,30,0,,,,,,,,,,,,,,2,1,0.583148490613,,,,,,PLC_L_D1S1,P17,60.02479249,01,B,2015_Feb_18_1453,X,
stim/posf.jpg,stim/negf.jpg,stim/1.jpg,stim/4.jpg,stim/latef.jpg,AB,1,2,,,,,0,31,31,3,,,,,,,,,,,,,,2,1,0.549811724724,,,,,,PLC_L_D1S1,P17,60.02479249,01,B,2015_Feb_18_1453,X,
stim/negf.jpg,stim/posf.jpg,stim/6.jpg,stim/3.jpg,stim/latef.jpg,EF,2,4,,,,,0,32,32,58,,,,,,,,,,,,,,4,1,0.599802774415,,,,,,PLC_L_D1S1,P17,60.02479249,01,B,2015_Feb_18_1453,X,
stim/posf.jpg,stim/negf.jpg,stim/5.jpg,stim/2.jpg,stim/latef.jpg,CD,2,4,,,,,0,33,33,31,,,,,,,,,,,,,,4,1,0.982987827159,,,,,,PLC_L_D1S1,P17,60.02479249,01,B,2015_Feb_18_1453,X,
stim/negf.jpg,stim/posf.jpg,stim/5.jpg,stim/2.jpg,stim/latef.jpg,CD,2,4,,,,,0,34,34,39,,,,,,,,,,,,,,4,1,0.932948955271,,,,,,PLC_L_D1S1,P17,60.02479249,01,B,2015_Feb_18_1453,X,
stim/posf.jpg,stim/negf.jpg,stim/4.jpg,stim/1.jpg,stim/latef.jpg,AB,2,4,,,,,0,35,35,12,,,,,,,,,,,,,,4,1,0.53325118157,,,,,,PLC_L_D1S1,P17,60.02479249,01,B,2015_Feb_18_1453,X,
stim/posf.jpg,stim/negf.jpg,stim/5.jpg,stim/2.jpg,stim/latef.jpg,CD,2,4,,,,,0,36,36,32,,,,,,,,,,,,,,4,1,0.766362267953,,,,,,PLC_L_D1S1,P17,60.02479249,01,B,2015_Feb_18_1453,X,
stim/posf.jpg,stim/negf.jpg,stim/4.jpg,stim/1.jpg,stim/latef.jpg,AB,2,4,,,,,0,37,37,13,,,,,,,,,,,,,,4,1,0.633144478613,,,,,,PLC_L_D1S1,P17,60.02479249,01,B,2015_Feb_18_1453,X,
stim/negf.jpg,stim/posf.jpg,stim/1.jpg,stim/4.jpg,stim/latef.jpg,AB,1,2,,,,,0,38,38,9,,,,,,,,,,,,,,2,1,0.583150045488,,,,,,PLC_L_D1S1,P17,60.02479249,01,B,2015_Feb_18_1453,X,
stim/posf.jpg,stim/negf.jpg,stim/2.jpg,stim/5.jpg,stim/latef.jpg,CD,1,2,,,,,0,39,39,25,,,,,,,,,,,,,,2,1,1.13296282584,,,,,,PLC_L_D1S1,P17,60.02479249,01,B,2015_Feb_18_1453,X,
stim/posf.jpg,stim/negf.jpg,stim/2.jpg,stim/5.jpg,stim/latef.jpg,CD,1,2,,,,,0,40,40,21,,,,,,,,,,,,,,2,1,0.983005360862,,,,,,PLC_L_D1S1,P17,60.02479249,01,B,2015_Feb_18_1453,X,
stim/posf.jpg,stim/negf.jpg,stim/1.jpg,stim/4.jpg,stim/latef.jpg,AB,1,2,,,,,0,41,41,7,,,,,,,,,,,,,,2,1,0.799746859046,,,,,,PLC_L_D1S1,P17,60.02479249,01,B,2015_Feb_18_1453,X,
stim/posf.jpg,stim/negf.jpg,stim/2.jpg,stim/5.jpg,stim/latef.jpg,CD,1,2,,,,,0,42,42,23,,,,,,,,,,,,,,2,1,0.716416781829,,,,,,PLC_L_D1S1,P17,60.02479249,01,B,2015_Feb_18_1453,X,
stim/posf.jpg,stim/negf.jpg,stim/2.jpg,stim/5.jpg,stim/latef.jpg,CD,1,2,,,,,0,43,43,26,,,,,,,,,,,,,,2,1,0.666454543951,,,,,,PLC_L_D1S1,P17,60.02479249,01,B,2015_Feb_18_1453,X,
stim/posf.jpg,stim/negf.jpg,stim/3.jpg,stim/6.jpg,stim/latef.jpg,EF,1,2,,,,,0,44,44,44,,,,,,,,,,,,,,2,1,0.833062337877,,,,,,PLC_L_D1S1,P17,60.02479249,01,B,2015_Feb_18_1453,X,
stim/posf.jpg,stim/negf.jpg,stim/3.jpg,stim/6.jpg,stim/latef.jpg,EF,1,2,,,,,0,45,45,41,,,,,,,,,,,,,,2,1,0.733108057834,,,,,,PLC_L_D1S1,P17,60.02479249,01,B,2015_Feb_18_1453,X,
stim/posf.jpg,stim/negf.jpg,stim/4.jpg,stim/1.jpg,stim/latef.jpg,AB,2,4,,,,,0,46,46,11,,,,,,,,,,,,,,4,1,0.616480832475,,,,,,PLC_L_D1S1,P17,60.02479249,01,B,2015_Feb_18_1453,X,
stim/negf.jpg,stim/posf.jpg,stim/6.jpg,stim/3.jpg,stim/latef.jpg,EF,2,4,,,,,0,47,47,59,,,,,,,,,,,,,,4,1,0.666472507726,,,,,,PLC_L_D1S1,P17,60.02479249,01,B,2015_Feb_18_1453,X,
stim/negf.jpg,stim/posf.jpg,stim/3.jpg,stim/6.jpg,stim/latef.jpg,EF,1,2,,,,,0,48,48,47,,,,,,,,,,,,,,2,1,0.533087441448,,,,,,PLC_L_D1S1,P17,60.02479249,01,B,2015_Feb_18_1453,X,
stim/posf.jpg,stim/negf.jpg,stim/5.jpg,stim/2.jpg,stim/latef.jpg,CD,2,4,,,,,0,49,49,36,,,,,,,,,,,,,,4,1,1.03298229938,,,,,,PLC_L_D1S1,P17,60.02479249,01,B,2015_Feb_18_1453,X,
stim/negf.jpg,stim/posf.jpg,stim/3.jpg,stim/6.jpg,stim/latef.jpg,EF,1,2,,,,,0,50,50,46,,,,,,,,,,,,,,2,1,0.666457196563,,,,,,PLC_L_D1S1,P17,60.02479249,01,B,2015_Feb_18_1453,X,
stim/posf.jpg,stim/negf.jpg,stim/1.jpg,stim/4.jpg,stim/latef.jpg,AB,1,2,,,,,0,51,51,2,,,,,,,,,,,,,,2,1,0.633138036556,,,,,,PLC_L_D1S1,P17,60.02479249,01,B,2015_Feb_18_1453,X,
stim/negf.jpg,stim/posf.jpg,stim/1.jpg,stim/4.jpg,stim/latef.jpg,AB,1,2,,,,,0,52,52,8,,,,,,,,,,,,,,2,1,0.666432020812,,,,,,PLC_L_D1S1,P17,60.02479249,01,B,2015_Feb_18_1453,X,
stim/negf.jpg,stim/posf.jpg,stim/2.jpg,stim/5.jpg,stim/latef.jpg,CD,1,2,,,,,0,53,53,29,,,,,,,,,,,,,,2,1,0.849705442816,,,,,,PLC_L_D1S1,P17,60.02479249,01,B,2015_Feb_18_1453,X,
stim/negf.jpg,stim/posf.jpg,stim/6.jpg,stim/3.jpg,stim/latef.jpg,EF,2,4,,,,,0,54,54,57,,,,,,,,,,,,,,4,1,0.966349272562,,,,,,PLC_L_D1S1,P17,60.02479249,01,B,2015_Feb_18_1453,X,
stim/posf.jpg,stim/negf.jpg,stim/6.jpg,stim/3.jpg,stim/latef.jpg,EF,2,4,,,,,0,55,55,55,,,,,,,,,,,,,,4,1,0.616449076323,,,,,,PLC_L_D1S1,P17,60.02479249,01,B,2015_Feb_18_1453,X,
stim/posf.jpg,stim/negf.jpg,stim/4.jpg,stim/1.jpg,stim/latef.jpg,AB,2,4,,,,,0,56,56,16,,,,,,,,,,,,,,4,1,0.666450219172,,,,,,PLC_L_D1S1,P17,60.02479249,01,B,2015_Feb_18_1453,X,
stim/negf.jpg,stim/posf.jpg,stim/5.jpg,stim/2.jpg,stim/latef.jpg,CD,2,4,,,,,0,57,57,38,,,,,,,,,,,,,,4,1,1.13296462733,,,,,,PLC_L_D1S1,P17,60.02479249,01,B,2015_Feb_18_1453,X,
stim/posf.jpg,stim/negf.jpg,stim/1.jpg,stim/4.jpg,stim/latef.jpg,AB,1,2,,,,,0,58,58,1,,,,,,,,,,,,,,2,1,0.583134195983,,,,,,PLC_L_D1S1,P17,60.02479249,01,B,2015_Feb_18_1453,X,
stim/posf.jpg,stim/negf.jpg,stim/4.jpg,stim/1.jpg,stim/latef.jpg,AB,2,4,,,,,0,59,59,14,,,,,,,,,,,,,,4,1,0.516470182931,,,,,,PLC_L_D1S1,P17,60.02479249,01,B,2015_Feb_18_1453,X,
,,,,,,,,,,,,,,,,,,,,,,,,,,,,,,,,0.9984375,1.0,1,0,0,PLC_L_D1S1,P17,60.02479249,01,B,2015_Feb_18_1453,X,
stim/negf.jpg,stim/posf.jpg,stim/6.jpg,stim/3.jpg,stim/latef.jpg,EF,2,4,,,,,,,,,0,0,0,58,,,,,,,,,,2,0,0.966361422847,,,,,,PLC_L_D1S1,P17,60.02479249,01,B,2015_Feb_18_1453,X,
stim/posf.jpg,stim/negf.jpg,stim/1.jpg,stim/4.jpg,stim/latef.jpg,AB,1,2,,,,,,,,,0,1,1,5,,,,,,,,,,2,1,0.733113790122,,,,,,PLC_L_D1S1,P17,60.02479249,01,B,2015_Feb_18_1453,X,
stim/posf.jpg,stim/negf.jpg,stim/1.jpg,stim/4.jpg,stim/latef.jpg,AB,1,2,,,,,,,,,0,2,2,0,,,,,,,,,,2,1,0.799734401997,,,,,,PLC_L_D1S1,P17,60.02479249,01,B,2015_Feb_18_1453,X,
stim/negf.jpg,stim/posf.jpg,stim/3.jpg,stim/6.jpg,stim/latef.jpg,EF,1,2,,,,,,,,,0,3,3,49,,,,,,,,,,2,1,0.899701003752,,,,,,PLC_L_D1S1,P17,60.02479249,01,B,2015_Feb_18_1453,X,
stim/posf.jpg,stim/negf.jpg,stim/2.jpg,stim/5.jpg,stim/latef.jpg,CD,1,2,,,,,,,,,0,4,4,20,,,,,,,,,,2,1,0.99967687461,,,,,,PLC_L_D1S1,P17,60.02479249,01,B,2015_Feb_18_1453,X,
stim/posf.jpg,stim/negf.jpg,stim/2.jpg,stim/5.jpg,stim/latef.jpg,CD,1,2,,,,,,,,,0,5,5,21,,,,,,,,,,2,1,1.13295617928,,,,,,PLC_L_D1S1,P17,60.02479249,01,B,2015_Feb_18_1453,X,
stim/posf.jpg,stim/negf.jpg,stim/4.jpg,stim/1.jpg,stim/latef.jpg,AB,2,4,,,,,,,,,0,6,6,14,,,,,,,,,,4,1,0.583112517951,,,,,,PLC_L_D1S1,P17,60.02479249,01,B,2015_Feb_18_1453,X,
stim/posf.jpg,stim/negf.jpg,stim/1.jpg,stim/4.jpg,stim/latef.jpg,AB,1,2,,,,,,,,,0,7,7,2,,,,,,,,,,2,1,0.599770182179,,,,,,PLC_L_D1S1,P17,60.02479249,01,B,2015_Feb_18_1453,X,
stim/negf.jpg,stim/posf.jpg,stim/1.jpg,stim/4.jpg,stim/latef.jpg,AB,1,2,,,,,,,,,0,8,8,9,,,,,,,,,,2,1,0.466536182435,,,,,,PLC_L_D1S1,P17,60.02479249,01,B,2015_Feb_18_1453,X,
stim/negf.jpg,stim/posf.jpg,stim/2.jpg,stim/5.jpg,stim/latef.jpg,CD,1,2,,,,,,,,,0,9,9,29,,,,,,,,,,2,1,0.949665614544,,,,,,PLC_L_D1S1,P17,60.02479249,01,B,2015_Feb_18_1453,X,
stim/negf.jpg,stim/posf.jpg,stim/2.jpg,stim/5.jpg,stim/latef.jpg,CD,1,2,,,,,,,,,0,10,10,27,,,,,,,,,,2,1,0.866366183713,,,,,,PLC_L_D1S1,P17,60.02479249,01,B,2015_Feb_18_1453,X,
stim/negf.jpg,stim/posf.jpg,stim/6.jpg,stim/3.jpg,stim/latef.jpg,EF,2,4,,,,,,,,,0,11,11,57,,,,,,,,,,4,1,0.83305224472,,,,,,PLC_L_D1S1,P17,60.02479249,01,B,2015_Feb_18_1453,X,
stim/posf.jpg,stim/negf.jpg,stim/3.jpg,stim/6.jpg,stim/latef.jpg,EF,1,2,,,,,,,,,0,12,12,44,,,,,,,,,,4,0,0.883043029752,,,,,,PLC_L_D1S1,P17,60.02479249,01,B,2015_Feb_18_1453,X,
stim/posf.jpg,stim/negf.jpg,stim/6.jpg,stim/3.jpg,stim/latef.jpg,EF,2,4,,,,,,,,,0,13,13,52,,,,,,,,,,4,1,0.999622832911,,,,,,PLC_L_D1S1,P17,60.02479249,01,B,2015_Feb_18_1453,X,
stim/posf.jpg,stim/negf.jpg,stim/4.jpg,stim/1.jpg,stim/latef.jpg,AB,2,4,,,,,,,,,0,14,14,15,,,,,,,,,,4,1,0.883028858429,,,,,,PLC_L_D1S1,P17,60.02479249,01,B,2015_Feb_18_1453,X,
stim/posf.jpg,stim/negf.jpg,stim/5.jpg,stim/2.jpg,stim/latef.jpg,CD,2,4,,,,,,,,,0,15,15,35,,,,,,,,,,4,1,0.933003439072,,,,,,PLC_L_D1S1,P17,60.02479249,01,B,2015_Feb_18_1453,X,
stim/posf.jpg,stim/negf.jpg,stim/1.jpg,stim/4.jpg,stim/latef.jpg,AB,1,2,,,,,,,,,0,16,16,4,,,,,,,,,,2,1,0.76641798182,,,,,,PLC_L_D1S1,P17,60.02479249,01,B,2015_Feb_18_1453,X,
stim/posf.jpg,stim/negf.jpg,stim/5.jpg,stim/2.jpg,stim/latef.jpg,CD,2,4,,,,,,,,,0,17,17,34,,,,,,,,,,4,1,0.833054566507,,,,,,PLC_L_D1S1,P17,60.02479249,01,B,2015_Feb_18_1453,X,
stim/posf.jpg,stim/negf.jpg,stim/2.jpg,stim/5.jpg,stim/latef.jpg,CD,1,2,,,,,,,,,0,18,18,22,,,,,,,,,,2,1,0.916384327938,,,,,,PLC_L_D1S1,P17,60.02479249,01,B,2015_Feb_18_1453,X,
stim/posf.jpg,stim/negf.jpg,stim/3.jpg,stim/6.jpg,stim/latef.jpg,EF,1,2,,,,,,,,,0,19,19,41,,,,,,,,,,4,0,0.733095712062,,,,,,PLC_L_D1S1,P17,60.02479249,01,B,2015_Feb_18_1453,X,
stim/posf.jpg,stim/negf.jpg,stim/2.jpg,stim/5.jpg,stim/latef.jpg,CD,1,2,,,,,,,,,0,20,20,23,,,,,,,,,,2,1,0.883026019353,,,,,,PLC_L_D1S1,P17,60.02479249,01,B,2015_Feb_18_1453,X,
stim/negf.jpg,stim/posf.jpg,stim/3.jpg,stim/6.jpg,stim/latef.jpg,EF,1,2,,,,,,,,,0,21,21,46,,,,,,,,,,2,1,1.03300978489,,,,,,PLC_L_D1S1,P17,60.02479249,01,B,2015_Feb_18_1453,X,
stim/negf.jpg,stim/posf.jpg,stim/5.jpg,stim/2.jpg,stim/latef.jpg,CD,2,4,,,,,,,,,0,22,22,38,,,,,,,,,,4,1,0.999651698859,,,,,,PLC_L_D1S1,P17,60.02479249,01,B,2015_Feb_18_1453,X,
stim/posf.jpg,stim/negf.jpg,stim/6.jpg,stim/3.jpg,stim/latef.jpg,EF,2,4,,,,,,,,,0,23,23,53,,,,,,,,,,4,1,1.14961988256,,,,,,PLC_L_D1S1,P17,60.02479249,01,B,2015_Feb_18_1453,X,
stim/posf.jpg,stim/negf.jpg,stim/6.jpg,stim/3.jpg,stim/latef.jpg,EF,2,4,,,,,,,,,0,24,24,55,,,,,,,,,,4,1,1.06629988346,,,,,,PLC_L_D1S1,P17,60.02479249,01,B,2015_Feb_18_1453,X,
stim/posf.jpg,stim/negf.jpg,stim/4.jpg,stim/1.jpg,stim/latef.jpg,AB,2,4,,,,,,,,,0,25,25,17,,,,,,,,,,4,1,0.799823357719,,,,,,PLC_L_D1S1,P17,60.02479249,01,B,2015_Feb_18_1453,X,
stim/negf.jpg,stim/posf.jpg,stim/1.jpg,stim/4.jpg,stim/latef.jpg,AB,1,2,,,,,,,,,0,26,26,8,,,,,,,,,,2,1,1.31622979677,,,,,,PLC_L_D1S1,P17,60.02479249,01,B,2015_Feb_18_1453,X,
stim/posf.jpg,stim/negf.jpg,stim/2.jpg,stim/5.jpg,stim/latef.jpg,CD,1,2,,,,,,,,,0,27,27,26,,,,,,,,,,2,1,1.54948258434,,,,,,PLC_L_D1S1,P17,60.02479249,01,B,2015_Feb_18_1453,X,
stim/posf.jpg,stim/negf.jpg,stim/3.jpg,stim/6.jpg,stim/latef.jpg,EF,1,2,,,,,,,,,0,28,28,45,,,,,,,,,,2,1,1.19964486884,,,,,,PLC_L_D1S1,P17,60.02479249,01,B,2015_Feb_18_1453,X,
stim/posf.jpg,stim/negf.jpg,stim/3.jpg,stim/6.jpg,stim/latef.jpg,EF,1,2,,,,,,,,,0,29,29,43,,,,,,,,,,2,1,1.23292727724,,,,,,PLC_L_D1S1,P17,60.02479249,01,B,2015_Feb_18_1453,X,
stim/posf.jpg,stim/negf.jpg,stim/1.jpg,stim/4.jpg,stim/latef.jpg,AB,1,2,,,,,,,,,0,30,30,3,,,,,,,,,,2,1,1.0163096097,,,,,,PLC_L_D1S1,P17,60.02479249,01,B,2015_Feb_18_1453,X,
stim/negf.jpg,stim/posf.jpg,stim/3.jpg,stim/6.jpg,stim/latef.jpg,EF,1,2,,,,,,,,,0,31,31,48,,,,,,,,,,2,1,1.28290593003,,,,,,PLC_L_D1S1,P17,60.02479249,01,B,2015_Feb_18_1453,X,
stim/posf.jpg,stim/negf.jpg,stim/2.jpg,stim/5.jpg,stim/latef.jpg,CD,1,2,,,,,,,,,0,32,32,25,,,,,,,,,,2,1,0.883024046436,,,,,,PLC_L_D1S1,P17,60.02479249,01,B,2015_Feb_18_1453,X,
stim/negf.jpg,stim/posf.jpg,stim/3.jpg,stim/6.jpg,stim/latef.jpg,EF,1,2,,,,,,,,,0,33,33,47,,,,,,,,,,2,1,0.766416243487,,,,,,PLC_L_D1S1,P17,60.02479249,01,B,2015_Feb_18_1453,X,
stim/posf.jpg,stim/negf.jpg,stim/5.jpg,stim/2.jpg,stim/latef.jpg,CD,2,4,,,,,,,,,0,34,34,31,,,,,,,,,,4,1,0.833024428387,,,,,,PLC_L_D1S1,P17,60.02479249,01,B,2015_Feb_18_1453,X,
stim/posf.jpg,stim/negf.jpg,stim/1.jpg,stim/4.jpg,stim/latef.jpg,AB,1,2,,,,,,,,,0,35,35,7,,,,,,,,,,2,1,0.649824765228,,,,,,PLC_L_D1S1,P17,60.02479249,01,B,2015_Feb_18_1453,X,
stim/negf.jpg,stim/posf.jpg,stim/4.jpg,stim/1.jpg,stim/latef.jpg,AB,2,4,,,,,,,,,0,36,36,19,,,,,,,,,,4,1,0.933008972865,,,,,,PLC_L_D1S1,P17,60.02479249,01,B,2015_Feb_18_1453,X,
stim/negf.jpg,stim/posf.jpg,stim/5.jpg,stim/2.jpg,stim/latef.jpg,CD,2,4,,,,,,,,,0,37,37,37,,,,,,,,,,4,1,1.01631926376,,,,,,PLC_L_D1S1,P17,60.02479249,01,B,2015_Feb_18_1453,X,
stim/posf.jpg,stim/negf.jpg,stim/4.jpg,stim/1.jpg,stim/latef.jpg,AB,2,4,,,,,,,,,0,38,38,16,,,,,,,,,,4,1,0.966344466583,,,,,,PLC_L_D1S1,P17,60.02479249,01,B,2015_Feb_18_1453,X,
stim/posf.jpg,stim/negf.jpg,stim/4.jpg,stim/1.jpg,stim/latef.jpg,AB,2,4,,,,,,,,,0,39,39,13,,,,,,,,,,4,1,0.466517358516,,,,,,PLC_L_D1S1,P17,60.02479249,01,B,2015_Feb_18_1453,X,
stim/posf.jpg,stim/negf.jpg,stim/5.jpg,stim/2.jpg,stim/latef.jpg,CD,2,4,,,,,,,,,0,40,40,33,,,,,,,,,,4,1,1.11626956489,,,,,,PLC_L_D1S1,P17,60.02479249,01,B,2015_Feb_18_1453,X,
stim/posf.jpg,stim/negf.jpg,stim/6.jpg,stim/3.jpg,stim/latef.jpg,EF,2,4,,,,,,,,,0,41,41,54,,,,,,,,,,4,1,0.999689184292,,,,,,PLC_L_D1S1,P17,60.02479249,01,B,2015_Feb_18_1453,X,
stim/posf.jpg,stim/negf.jpg,stim/6.jpg,stim/3.jpg,stim/latef.jpg,EF,2,4,,,,,,,,,0,42,42,51,,,,,,,,,,4,1,0.699756606341,,,,,,PLC_L_D1S1,P17,60.02479249,01,B,2015_Feb_18_1453,X,
stim/negf.jpg,stim/posf.jpg,stim/6.jpg,stim/3.jpg,stim/latef.jpg,EF,2,4,,,,,,,,,0,43,43,59,,,,,,,,,,4,1,1.16628613319,,,,,,PLC_L_D1S1,P17,60.02479249,01,B,2015_Feb_18_1453,X,
stim/posf.jpg,stim/negf.jpg,stim/2.jpg,stim/5.jpg,stim/latef.jpg,CD,1,2,,,,,,,,,0,44,44,24,,,,,,,,,,2,1,0.6997656168,,,,,,PLC_L_D1S1,P17,60.02479249,01,B,2015_Feb_18_1453,X,
stim/posf.jpg,stim/negf.jpg,stim/1.jpg,stim/4.jpg,stim/latef.jpg,AB,1,2,,,,,,,,,0,45,45,1,,,,,,,,,,2,1,0.783131988481,,,,,,PLC_L_D1S1,P17,60.02479249,01,B,2015_Feb_18_1453,X,
stim/posf.jpg,stim/negf.jpg,stim/4.jpg,stim/1.jpg,stim/latef.jpg,AB,2,4,,,,,,,,,0,46,46,10,,,,,,,,,,4,1,0.516494790265,,,,,,PLC_L_D1S1,P17,60.02479249,01,B,2015_Feb_18_1453,X,
stim/posf.jpg,stim/negf.jpg,stim/3.jpg,stim/6.jpg,stim/latef.jpg,EF,1,2,,,,,,,,,0,47,47,42,,,,,,,,,,2,1,0.733100836836,,,,,,PLC_L_D1S1,P17,60.02479249,01,B,2015_Feb_18_1453,X,
stim/posf.jpg,stim/negf.jpg,stim/5.jpg,stim/2.jpg,stim/latef.jpg,CD,2,4,,,,,,,,,0,48,48,30,,,,,,,,,,4,1,1.28290803528,,,,,,PLC_L_D1S1,P17,60.02479249,01,B,2015_Feb_18_1453,X,
stim/negf.jpg,stim/posf.jpg,stim/2.jpg,stim/5.jpg,stim/latef.jpg,CD,1,2,,,,,,,,,0,49,49,28,,,,,,,,,,2,1,0.649743042534,,,,,,PLC_L_D1S1,P17,60.02479249,01,B,2015_Feb_18_1453,X,
stim/negf.jpg,stim/posf.jpg,stim/4.jpg,stim/1.jpg,stim/latef.jpg,AB,2,4,,,,,,,,,0,50,50,18,,,,,,,,,,4,1,0.683094848911,,,,,,PLC_L_D1S1,P17,60.02479249,01,B,2015_Feb_18_1453,X,
stim/negf.jpg,stim/posf.jpg,stim/6.jpg,stim/3.jpg,stim/latef.jpg,EF,2,4,,,,,,,,,0,51,51,56,,,,,,,,,,4,1,0.966330791498,,,,,,PLC_L_D1S1,P17,60.02479249,01,B,2015_Feb_18_1453,X,
stim/posf.jpg,stim/negf.jpg,stim/5.jpg,stim/2.jpg,stim/latef.jpg,CD,2,4,,,,,,,,,0,52,52,32,,,,,,,,,,4,1,0.733096629349,,,,,,PLC_L_D1S1,P17,60.02479249,01,B,2015_Feb_18_1453,X,
stim/posf.jpg,stim/negf.jpg,stim/1.jpg,stim/4.jpg,stim/latef.jpg,AB,1,2,,,,,,,,,0,53,53,6,,,,,,,,,,4,0,0.783080692626,,,,,,PLC_L_D1S1,P17,60.02479249,01,B,2015_Feb_18_1453,X,
stim/negf.jpg,stim/posf.jpg,stim/5.jpg,stim/2.jpg,stim/latef.jpg,CD,2,4,,,,,,,,,0,54,54,39,,,,,,,,,,4,1,0.899774651318,,,,,,PLC_L_D1S1,P17,60.02479249,01,B,2015_Feb_18_1453,X,
stim/posf.jpg,stim/negf.jpg,stim/4.jpg,stim/1.jpg,stim/latef.jpg,AB,2,4,,,,,,,,,0,55,55,12,,,,,,,,,,4,1,0.499829908046,,,,,,PLC_L_D1S1,P17,60.02479249,01,B,2015_Feb_18_1453,X,
stim/posf.jpg,stim/negf.jpg,stim/6.jpg,stim/3.jpg,stim/latef.jpg,EF,2,4,,,,,,,,,0,56,56,50,,,,,,,,,,4,1,0.699704859362,,,,,,PLC_L_D1S1,P17,60.02479249,01,B,2015_Feb_18_1453,X,
stim/posf.jpg,stim/negf.jpg,stim/4.jpg,stim/1.jpg,stim/latef.jpg,AB,2,4,,,,,,,,,0,57,57,11,,,,,,,,,,4,1,0.932990717363,,,,,,PLC_L_D1S1,P17,60.02479249,01,B,2015_Feb_18_1453,X,
stim/posf.jpg,stim/negf.jpg,stim/5.jpg,stim/2.jpg,stim/latef.jpg,CD,2,4,,,,,,,,,0,58,58,36,,,,,,,,,,4,1,0.716439599702,,,,,,PLC_L_D1S1,P17,60.02479249,01,B,2015_Feb_18_1453,X,
stim/posf.jpg,stim/negf.jpg,stim/3.jpg,stim/6.jpg,stim/latef.jpg,EF,1,2,,,,,,,,,0,59,59,40,,,,,,,,,,2,1,0.899702357125,,,,,,PLC_L_D1S1,P17,60.02479249,01,B,2015_Feb_18_1453,X,
,,,,,,,,,,,,,,,,,,,,,,,,,,,,,,,,0.9984375,1.0,1,0,0,PLC_L_D1S1,P17,60.02479249,01,B,2015_Feb_18_1453,X,
stim/posf.jpg,stim/negf.jpg,stim/3.jpg,stim/6.jpg,stim/latef.jpg,EF,1,2,,,,,,,,,,,,,0,0,0,40,,,,,,2,1,0.849719641206,,,,,,PLC_L_D1S1,P17,60.02479249,01,B,2015_Feb_18_1453,X,
stim/posf.jpg,stim/negf.jpg,stim/2.jpg,stim/5.jpg,stim/latef.jpg,CD,1,2,,,,,,,,,,,,,0,1,1,21,,,,,,2,1,0.883070100225,,,,,,PLC_L_D1S1,P17,60.02479249,01,B,2015_Feb_18_1453,X,
stim/posf.jpg,stim/negf.jpg,stim/4.jpg,stim/1.jpg,stim/latef.jpg,AB,2,4,,,,,,,,,,,,,0,2,2,16,,,,,,4,1,0.599783198622,,,,,,PLC_L_D1S1,P17,60.02479249,01,B,2015_Feb_18_1453,X,
stim/posf.jpg,stim/negf.jpg,stim/2.jpg,stim/5.jpg,stim/latef.jpg,CD,1,2,,,,,,,,,,,,,0,3,3,22,,,,,,2,1,0.832999403012,,,,,,PLC_L_D1S1,P17,60.02479249,01,B,2015_Feb_18_1453,X,
stim/negf.jpg,stim/posf.jpg,stim/6.jpg,stim/3.jpg,stim/latef.jpg,EF,2,4,,,,,,,,,,,,,0,4,4,58,,,,,,4,1,0.583132767423,,,,,,PLC_L_D1S1,P17,60.02479249,01,B,2015_Feb_18_1453,X,
stim/posf.jpg,stim/negf.jpg,stim/4.jpg,stim/1.jpg,stim/latef.jpg,AB,2,4,,,,,,,,,,,,,0,5,5,17,,,,,,4,1,0.583107074383,,,,,,PLC_L_D1S1,P17,60.02479249,01,B,2015_Feb_18_1453,X,
stim/negf.jpg,stim/posf.jpg,stim/1.jpg,stim/4.jpg,stim/latef.jpg,AB,1,2,,,,,,,,,,,,,0,6,6,8,,,,,,2,1,0.499838434298,,,,,,PLC_L_D1S1,P17,60.02479249,01,B,2015_Feb_18_1453,X,
stim/negf.jpg,stim/posf.jpg,stim/2.jpg,stim/5.jpg,stim/latef.jpg,CD,1,2,,,,,,,,,,,,,0,7,7,28,,,,,,2,1,0.866385503869,,,,,,PLC_L_D1S1,P17,60.02479249,01,B,2015_Feb_18_1453,X,
stim/posf.jpg,stim/negf.jpg,stim/5.jpg,stim/2.jpg,stim/latef.jpg,CD,2,4,,,,,,,,,,,,,0,8,8,36,,,,,,4,1,0.566501021797,,,,,,PLC_L_D1S1,P17,60.02479249,01,B,2015_Feb_18_1453,X,
stim/negf.jpg,stim/posf.jpg,stim/6.jpg,stim/3.jpg,stim/latef.jpg,EF,2,4,,,,,,,,,,,,,0,9,9,59,,,,,,4,1,0.816397987985,,,,,,PLC_L_D1S1,P17,60.02479249,01,B,2015_Feb_18_1453,X,
stim/negf.jpg,stim/posf.jpg,stim/3.jpg,stim/6.jpg,stim/latef.jpg,EF,1,2,,,,,,,,,,,,,0,10,10,47,,,,,,2,1,0.599773884407,,,,,,PLC_L_D1S1,P17,60.02479249,01,B,2015_Feb_18_1453,X,
stim/posf.jpg,stim/negf.jpg,stim/5.jpg,stim/2.jpg,stim/latef.jpg,CD,2,4,,,,,,,,,,,,,0,11,11,33,,,,,,4,1,0.999671217509,,,,,,PLC_L_D1S1,P17,60.02479249,01,B,2015_Feb_18_1453,X,
stim/posf.jpg,stim/negf.jpg,stim/6.jpg,stim/3.jpg,stim/latef.jpg,EF,2,4,,,,,,,,,,,,,0,12,12,53,,,,,,4,1,0.766417996857,,,,,,PLC_L_D1S1,P17,60.02479249,01,B,2015_Feb_18_1453,X,
stim/posf.jpg,stim/negf.jpg,stim/5.jpg,stim/2.jpg,stim/latef.jpg,CD,2,4,,,,,,,,,,,,,0,13,13,30,,,,,,4,1,0.933082569304,,,,,,PLC_L_D1S1,P17,60.02479249,01,B,2015_Feb_18_1453,X,
stim/posf.jpg,stim/negf.jpg,stim/5.jpg,stim/2.jpg,stim/latef.jpg,CD,2,4,,,,,,,,,,,,,0,14,14,34,,,,,,4,1,0.49983102082,,,,,,PLC_L_D1S1,P17,60.02479249,01,B,2015_Feb_18_1453,X,
stim/posf.jpg,stim/negf.jpg,stim/3.jpg,stim/6.jpg,stim/latef.jpg,EF,1,2,,,,,,,,,,,,,0,15,15,41,,,,,,2,1,0.766419290081,,,,,,PLC_L_D1S1,P17,60.02479249,01,B,2015_Feb_18_1453,X,
stim/posf.jpg,stim/negf.jpg,stim/5.jpg,stim/2.jpg,stim/latef.jpg,CD,2,4,,,,,,,,,,,,,0,16,16,31,,,,,,4,1,0.683101290967,,,,,,PLC_L_D1S1,P17,60.02479249,01,B,2015_Feb_18_1453,X,
stim/negf.jpg,stim/posf.jpg,stim/5.jpg,stim/2.jpg,stim/latef.jpg,CD,2,4,,,,,,,,,,,,,0,17,17,39,,,,,,4,1,0.649793661702,,,,,,PLC_L_D1S1,P17,60.02479249,01,B,2015_Feb_18_1453,X,
stim/posf.jpg,stim/negf.jpg,stim/2.jpg,stim/5.jpg,stim/latef.jpg,CD,1,2,,,,,,,,,,,,,0,18,18,23,,,,,,2,1,0.683088638431,,,,,,PLC_L_D1S1,P17,60.02479249,01,B,2015_Feb_18_1453,X,
stim/posf.jpg,stim/negf.jpg,stim/3.jpg,stim/6.jpg,stim/latef.jpg,EF,1,2,,,,,,,,,,,,,0,19,19,45,,,,,,2,1,0.899697945128,,,,,,PLC_L_D1S1,P17,60.02479249,01,B,2015_Feb_18_1453,X,
stim/posf.jpg,stim/negf.jpg,stim/4.jpg,stim/1.jpg,stim/latef.jpg,AB,2,4,,,,,,,,,,,,,0,20,20,12,,,,,,4,1,0.999675175375,,,,,,PLC_L_D1S1,P17,60.02479249,01,B,2015_Feb_18_1453,X,
stim/negf.jpg,stim/posf.jpg,stim/1.jpg,stim/4.jpg,stim/latef.jpg,AB,1,2,,,,,,,,,,,,,0,21,21,9,,,,,,2,1,0.649774931016,,,,,,PLC_L_D1S1,P17,60.02479249,01,B,2015_Feb_18_1453,X,
stim/posf.jpg,stim/negf.jpg,stim/2.jpg,stim/5.jpg,stim/latef.jpg,CD,1,2,,,,,,,,,,,,,0,22,22,20,,,,,,2,1,0.866368821287,,,,,,PLC_L_D1S1,P17,60.02479249,01,B,2015_Feb_18_1453,X,
stim/posf.jpg,stim/negf.jpg,stim/1.jpg,stim/4.jpg,stim/latef.jpg,AB,1,2,,,,,,,,,,,,,0,23,23,0,,,,,,2,1,0.616465617552,,,,,,PLC_L_D1S1,P17,60.02479249,01,B,2015_Feb_18_1453,X,
stim/posf.jpg,stim/negf.jpg,stim/6.jpg,stim/3.jpg,stim/latef.jpg,EF,2,4,,,,,,,,,,,,,0,24,24,52,,,,,,4,1,0.683047345508,,,,,,PLC_L_D1S1,P17,60.02479249,01,B,2015_Feb_18_1453,X,
stim/negf.jpg,stim/posf.jpg,stim/2.jpg,stim/5.jpg,stim/latef.jpg,CD,1,2,,,,,,,,,,,,,0,25,25,29,,,,,,2,1,0.516495602289,,,,,,PLC_L_D1S1,P17,60.02479249,01,B,2015_Feb_18_1453,X,
stim/posf.jpg,stim/negf.jpg,stim/1.jpg,stim/4.jpg,stim/latef.jpg,AB,1,2,,,,,,,,,,,,,0,26,26,2,,,,,,2,1,0.633180815182,,,,,,PLC_L_D1S1,P17,60.02479249,01,B,2015_Feb_18_1453,X,
stim/posf.jpg,stim/negf.jpg,stim/2.jpg,stim/5.jpg,stim/latef.jpg,CD,1,2,,,,,,,,,,,,,0,27,27,25,,,,,,2,1,0.766421870513,,,,,,PLC_L_D1S1,P17,60.02479249,01,B,2015_Feb_18_1453,X,
stim/posf.jpg,stim/negf.jpg,stim/1.jpg,stim/4.jpg,stim/latef.jpg,AB,1,2,,,,,,,,,,,,,0,28,28,3,,,,,,2,1,0.61645079661,,,,,,PLC_L_D1S1,P17,60.02479249,01,B,2015_Feb_18_1453,X,
stim/posf.jpg,stim/negf.jpg,stim/6.jpg,stim/3.jpg,stim/latef.jpg,EF,2,4,,,,,,,,,,,,,0,29,29,50,,,,,,4,1,0.749745391388,,,,,,PLC_L_D1S1,P17,60.02479249,01,B,2015_Feb_18_1453,X,
stim/posf.jpg,stim/negf.jpg,stim/3.jpg,stim/6.jpg,stim/latef.jpg,EF,1,2,,,,,,,,,,,,,0,30,30,43,,,,,,2,1,0.533152222915,,,,,,PLC_L_D1S1,P17,60.02479249,01,B,2015_Feb_18_1453,X,
stim/negf.jpg,stim/posf.jpg,stim/3.jpg,stim/6.jpg,stim/latef.jpg,EF,1,2,,,,,,,,,,,,,0,31,31,46,,,,,,2,1,0.54978919557,,,,,,PLC_L_D1S1,P17,60.02479249,01,B,2015_Feb_18_1453,X,
stim/negf.jpg,stim/posf.jpg,stim/6.jpg,stim/3.jpg,stim/latef.jpg,EF,2,4,,,,,,,,,,,,,0,32,32,57,,,,,,4,1,0.733061685251,,,,,,PLC_L_D1S1,P17,60.02479249,01,B,2015_Feb_18_1453,X,
stim/posf.jpg,stim/negf.jpg,stim/1.jpg,stim/4.jpg,stim/latef.jpg,AB,1,2,,,,,,,,,,,,,0,33,33,7,,,,,,2,1,0.56648498282,,,,,,PLC_L_D1S1,P17,60.02479249,01,B,2015_Feb_18_1453,X,
stim/negf.jpg,stim/posf.jpg,stim/4.jpg,stim/1.jpg,stim/latef.jpg,AB,2,4,,,,,,,,,,,,,0,34,34,18,,,,,,4,1,0.583148496628,,,,,,PLC_L_D1S1,P17,60.02479249,01,B,2015_Feb_18_1453,X,
stim/negf.jpg,stim/posf.jpg,stim/4.jpg,stim/1.jpg,stim/latef.jpg,AB,2,4,,,,,,,,,,,,,0,35,35,19,,,,,,4,1,0.583137456109,,,,,,PLC_L_D1S1,P17,60.02479249,01,B,2015_Feb_18_1453,X,
stim/posf.jpg,stim/negf.jpg,stim/1.jpg,stim/4.jpg,stim/latef.jpg,AB,1,2,,,,,,,,,,,,,0,36,36,5,,,,,,2,1,0.633124505831,,,,,,PLC_L_D1S1,P17,60.02479249,01,B,2015_Feb_18_1453,X,
stim/posf.jpg,stim/negf.jpg,stim/4.jpg,stim/1.jpg,stim/latef.jpg,AB,2,4,,,,,,,,,,,,,0,37,37,14,,,,,,4,1,0.46650454959,,,,,,PLC_L_D1S1,P17,60.02479249,01,B,2015_Feb_18_1453,X,
stim/posf.jpg,stim/negf.jpg,stim/5.jpg,stim/2.jpg,stim/latef.jpg,CD,2,4,,,,,,,,,,,,,0,38,38,35,,,,,,4,1,0.866381825701,,,,,,PLC_L_D1S1,P17,60.02479249,01,B,2015_Feb_18_1453,X,
stim/posf.jpg,stim/negf.jpg,stim/4.jpg,stim/1.jpg,stim/latef.jpg,AB,2,4,,,,,,,,,,,,,0,39,39,15,,,,,,4,1,0.799717214156,,,,,,PLC_L_D1S1,P17,60.02479249,01,B,2015_Feb_18_1453,X,
stim/posf.jpg,stim/negf.jpg,stim/4.jpg,stim/1.jpg,stim/latef.jpg,AB,2,4,,,,,,,,,,,,,0,40,40,11,,,,,,4,1,0.549803974406,,,,,,PLC_L_D1S1,P17,60.02479249,01,B,2015_Feb_18_1453,X,
stim/negf.jpg,stim/posf.jpg,stim/3.jpg,stim/6.jpg,stim/latef.jpg,EF,1,2,,,,,,,,,,,,,0,41,41,48,,,,,,2,1,0.666429708047,,,,,,PLC_L_D1S1,P17,60.02479249,01,B,2015_Feb_18_1453,X,
stim/negf.jpg,stim/posf.jpg,stim/5.jpg,stim/2.jpg,stim/latef.jpg,CD,2,4,,,,,,,,,,,,,0,42,42,38,,,,,,4,1,0.883037264382,,,,,,PLC_L_D1S1,P17,60.02479249,01,B,2015_Feb_18_1453,X,
stim/negf.jpg,stim/posf.jpg,stim/6.jpg,stim/3.jpg,stim/latef.jpg,EF,2,4,,,,,,,,,,,,,0,43,43,56,,,,,,4,1,0.633125952436,,,,,,PLC_L_D1S1,P17,60.02479249,01,B,2015_Feb_18_1453,X,
stim/posf.jpg,stim/negf.jpg,stim/6.jpg,stim/3.jpg,stim/latef.jpg,EF,2,4,,,,,,,,,,,,,0,44,44,55,,,,,,4,1,0.566535048609,,,,,,PLC_L_D1S1,P17,60.02479249,01,B,2015_Feb_18_1453,X,
stim/posf.jpg,stim/negf.jpg,stim/6.jpg,stim/3.jpg,stim/latef.jpg,EF,2,4,,,,,,,,,,,,,0,45,45,51,,,,,,4,1,0.766367561146,,,,,,PLC_L_D1S1,P17,60.02479249,01,B,2015_Feb_18_1453,X,
stim/posf.jpg,stim/negf.jpg,stim/1.jpg,stim/4.jpg,stim/latef.jpg,AB,1,2,,,,,,,,,,,,,0,46,46,4,,,,,,2,1,0.499844966579,,,,,,PLC_L_D1S1,P17,60.02479249,01,B,2015_Feb_18_1453,X,
stim/posf.jpg,stim/negf.jpg,stim/6.jpg,stim/3.jpg,stim/latef.jpg,EF,2,4,,,,,,,,,,,,,0,47,47,54,,,,,,4,1,0.499841240292,,,,,,PLC_L_D1S1,P17,60.02479249,01,B,2015_Feb_18_1453,X,
stim/posf.jpg,stim/negf.jpg,stim/4.jpg,stim/1.jpg,stim/latef.jpg,AB,2,4,,,,,,,,,,,,,0,48,48,13,,,,,,4,1,0.549820124661,,,,,,PLC_L_D1S1,P17,60.02479249,01,B,2015_Feb_18_1453,X,
stim/posf.jpg,stim/negf.jpg,stim/3.jpg,stim/6.jpg,stim/latef.jpg,EF,1,2,,,,,,,,,,,,,0,49,49,44,,,,,,2,1,0.583115865295,,,,,,PLC_L_D1S1,P17,60.02479249,01,B,2015_Feb_18_1453,X,
stim/negf.jpg,stim/posf.jpg,stim/2.jpg,stim/5.jpg,stim/latef.jpg,CD,1,2,,,,,,,,,,,,,0,50,50,27,,,,,,2,1,0.79973581552,,,,,,PLC_L_D1S1,P17,60.02479249,01,B,2015_Feb_18_1453,X,
stim/negf.jpg,stim/posf.jpg,stim/5.jpg,stim/2.jpg,stim/latef.jpg,CD,2,4,,,,,,,,,,,,,0,51,51,37,,,,,,4,1,0.899701430816,,,,,,PLC_L_D1S1,P17,60.02479249,01,B,2015_Feb_18_1453,X,
stim/negf.jpg,stim/posf.jpg,stim/3.jpg,stim/6.jpg,stim/latef.jpg,EF,1,2,,,,,,,,,,,,,0,52,52,49,,,,,,2,1,0.699746822957,,,,,,PLC_L_D1S1,P17,60.02479249,01,B,2015_Feb_18_1453,X,
stim/posf.jpg,stim/negf.jpg,stim/5.jpg,stim/2.jpg,stim/latef.jpg,CD,2,4,,,,,,,,,,,,,0,53,53,32,,,,,,2,0,0.983019983308,,,,,,PLC_L_D1S1,P17,60.02479249,01,B,2015_Feb_18_1453,X,
stim/posf.jpg,stim/negf.jpg,stim/4.jpg,stim/1.jpg,stim/latef.jpg,AB,2,4,,,,,,,,,,,,,0,54,54,10,,,,,,4,1,1.04964451094,,,,,,PLC_L_D1S1,P17,60.02479249,01,B,2015_Feb_18_1453,X,
stim/posf.jpg,stim/negf.jpg,stim/1.jpg,stim/4.jpg,stim/latef.jpg,AB,1,2,,,,,,,,,,,,,0,55,55,6,,,,,,2,1,0.716438285427,,,,,,PLC_L_D1S1,P17,60.02479249,01,B,2015_Feb_18_1453,X,
stim/posf.jpg,stim/negf.jpg,stim/2.jpg,stim/5.jpg,stim/latef.jpg,CD,1,2,,,,,,,,,,,,,0,56,56,26,,,,,,2,1,0.91636797618,,,,,,PLC_L_D1S1,P17,60.02479249,01,B,2015_Feb_18_1453,X,
stim/posf.jpg,stim/negf.jpg,stim/1.jpg,stim/4.jpg,stim/latef.jpg,AB,1,2,,,,,,,,,,,,,0,57,57,1,,,,,,2,1,0.516509283389,,,,,,PLC_L_D1S1,P17,60.02479249,01,B,2015_Feb_18_1453,X,
stim/posf.jpg,stim/negf.jpg,stim/3.jpg,stim/6.jpg,stim/latef.jpg,EF,1,2,,,,,,,,,,,,,0,58,58,42,,,,,,2,1,0.966358346178,,,,,,PLC_L_D1S1,P17,60.02479249,01,B,2015_Feb_18_1453,X,
stim/posf.jpg,stim/negf.jpg,stim/2.jpg,stim/5.jpg,stim/latef.jpg,CD,1,2,,,,,,,,,,,,,0,59,59,24,,,,,,2,1,0.866318854746,,,,,,PLC_L_D1S1,P17,60.02479249,01,B,2015_Feb_18_1453,X,
