fb_corr,fb_incorr,symbol2,symbol1,fb_late,pair,position,correct,block_01.thisRepN,block_01.thisTrialN,block_01.thisN,block_01.thisIndex,block_02.thisRepN,block_02.thisTrialN,block_02.thisN,block_02.thisIndex,block_03.thisRepN,block_03.thisTrialN,block_03.thisN,block_03.thisIndex,block_04.thisRepN,block_04.thisTrialN,block_04.thisN,block_04.thisIndex,mouse.x,mouse.y,mouse.leftButton,mouse.midButton,mouse.rightButton,buttonBox_2.keys,buttonBox_2.corr,buttonBox_2.rt,mouse_2.x,mouse_2.y,mouse_2.leftButton,mouse_2.midButton,mouse_2.rightButton,expName,Participant,frameRate,SessionNumber,Version,date,Group,
,,,,,,,,,,,,,,,,,,,,,,,,0.9984375,1.0,1,0,0,,,,,,,,,PLC_L_D1S1,P18,60.0221464707,01,C,2015_Feb_18_1702,X,
stim/posf.jpg,stim/negf.jpg,stim/2.jpg,stim/5.jpg,stim/latef.jpg,EF,1,2,0,0,0,40,,,,,,,,,,,,,,,,,,4,0,1.41621449764,,,,,,PLC_L_D1S1,P18,60.0221464707,01,C,2015_Feb_18_1702,X,
stim/negf.jpg,stim/posf.jpg,stim/4.jpg,stim/6.jpg,stim/latef.jpg,CD,2,4,0,1,1,37,,,,,,,,,,,,,,,,,,2,0,1.24960819843,,,,,,PLC_L_D1S1,P18,60.0221464707,01,C,2015_Feb_18_1702,X,
stim/posf.jpg,stim/negf.jpg,stim/2.jpg,stim/5.jpg,stim/latef.jpg,EF,1,2,0,2,2,44,,,,,,,,,,,,,,,,,,2,1,1.26623946587,,,,,,PLC_L_D1S1,P18,60.0221464707,01,C,2015_Feb_18_1702,X,
stim/posf.jpg,stim/negf.jpg,stim/5.jpg,stim/2.jpg,stim/latef.jpg,EF,2,4,0,3,3,53,,,,,,,,,,,,,,,,,,None,0,,,,,,,PLC_L_D1S1,P18,60.0221464707,01,C,2015_Feb_18_1702,X,
stim/posf.jpg,stim/negf.jpg,stim/4.jpg,stim/6.jpg,stim/latef.jpg,CD,2,4,0,4,4,32,,,,,,,,,,,,,,,,,,2,0,1.28290577063,,,,,,PLC_L_D1S1,P18,60.0221464707,01,C,2015_Feb_18_1702,X,
stim/posf.jpg,stim/negf.jpg,stim/3.jpg,stim/1.jpg,stim/latef.jpg,AB,1,2,0,5,5,2,,,,,,,,,,,,,,,,,,4,0,1.28295536725,,,,,,PLC_L_D1S1,P18,60.0221464707,01,C,2015_Feb_18_1702,X,
stim/posf.jpg,stim/negf.jpg,stim/5.jpg,stim/2.jpg,stim/latef.jpg,EF,2,4,0,6,6,55,,,,,,,,,,,,,,,,,,4,1,1.04968488658,,,,,,PLC_L_D1S1,P18,60.0221464707,01,C,2015_Feb_18_1702,X,
stim/posf.jpg,stim/negf.jpg,stim/4.jpg,stim/6.jpg,stim/latef.jpg,CD,2,4,0,7,7,33,,,,,,,,,,,,,,,,,,2,0,0.783044259817,,,,,,PLC_L_D1S1,P18,60.0221464707,01,C,2015_Feb_18_1702,X,
stim/posf.jpg,stim/negf.jpg,stim/3.jpg,stim/1.jpg,stim/latef.jpg,AB,1,2,0,8,8,7,,,,,,,,,,,,,,,,,,2,1,1.33288606552,,,,,,PLC_L_D1S1,P18,60.0221464707,01,C,2015_Feb_18_1702,X,
stim/posf.jpg,stim/negf.jpg,stim/5.jpg,stim/2.jpg,stim/latef.jpg,EF,2,4,0,9,9,51,,,,,,,,,,,,,,,,,,4,1,1.08296547846,,,,,,PLC_L_D1S1,P18,60.0221464707,01,C,2015_Feb_18_1702,X,
stim/negf.jpg,stim/posf.jpg,stim/4.jpg,stim/6.jpg,stim/latef.jpg,CD,2,4,0,10,10,39,,,,,,,,,,,,,,,,,,4,1,0.616398839105,,,,,,PLC_L_D1S1,P18,60.0221464707,01,C,2015_Feb_18_1702,X,
stim/posf.jpg,stim/negf.jpg,stim/4.jpg,stim/6.jpg,stim/latef.jpg,CD,2,4,0,11,11,36,,,,,,,,,,,,,,,,,,2,0,1.19960344358,,,,,,PLC_L_D1S1,P18,60.0221464707,01,C,2015_Feb_18_1702,X,
stim/posf.jpg,stim/negf.jpg,stim/1.jpg,stim/3.jpg,stim/latef.jpg,AB,2,4,0,12,12,17,,,,,,,,,,,,,,,,,,4,1,1.53283526891,,,,,,PLC_L_D1S1,P18,60.0221464707,01,C,2015_Feb_18_1702,X,
stim/negf.jpg,stim/posf.jpg,stim/5.jpg,stim/2.jpg,stim/latef.jpg,EF,2,4,0,13,13,58,,,,,,,,,,,,,,,,,,4,1,0.999692739153,,,,,,PLC_L_D1S1,P18,60.0221464707,01,C,2015_Feb_18_1702,X,
stim/negf.jpg,stim/posf.jpg,stim/2.jpg,stim/5.jpg,stim/latef.jpg,EF,1,2,0,14,14,48,,,,,,,,,,,,,,,,,,2,1,1.64944280419,,,,,,PLC_L_D1S1,P18,60.0221464707,01,C,2015_Feb_18_1702,X,
stim/negf.jpg,stim/posf.jpg,stim/3.jpg,stim/1.jpg,stim/latef.jpg,AB,1,2,0,15,15,9,,,,,,,,,,,,,,,,,,None,0,,,,,,,PLC_L_D1S1,P18,60.0221464707,01,C,2015_Feb_18_1702,X,
stim/negf.jpg,stim/posf.jpg,stim/1.jpg,stim/3.jpg,stim/latef.jpg,AB,2,4,0,16,16,18,,,,,,,,,,,,,,,,,,2,0,1.08297406786,,,,,,PLC_L_D1S1,P18,60.0221464707,01,C,2015_Feb_18_1702,X,
stim/negf.jpg,stim/posf.jpg,stim/6.jpg,stim/4.jpg,stim/latef.jpg,CD,1,2,0,17,17,28,,,,,,,,,,,,,,,,,,4,0,0.999611654048,,,,,,PLC_L_D1S1,P18,60.0221464707,01,C,2015_Feb_18_1702,X,
stim/posf.jpg,stim/negf.jpg,stim/1.jpg,stim/3.jpg,stim/latef.jpg,AB,2,4,0,18,18,11,,,,,,,,,,,,,,,,,,4,1,1.29952022917,,,,,,PLC_L_D1S1,P18,60.0221464707,01,C,2015_Feb_18_1702,X,
stim/negf.jpg,stim/posf.jpg,stim/5.jpg,stim/2.jpg,stim/latef.jpg,EF,2,4,0,19,19,56,,,,,,,,,,,,,,,,,,4,1,0.96636271607,,,,,,PLC_L_D1S1,P18,60.0221464707,01,C,2015_Feb_18_1702,X,
stim/posf.jpg,stim/negf.jpg,stim/3.jpg,stim/1.jpg,stim/latef.jpg,AB,1,2,0,20,20,4,,,,,,,,,,,,,,,,,,4,0,1.54950283381,,,,,,PLC_L_D1S1,P18,60.0221464707,01,C,2015_Feb_18_1702,X,
stim/posf.jpg,stim/negf.jpg,stim/2.jpg,stim/5.jpg,stim/latef.jpg,EF,1,2,0,21,21,43,,,,,,,,,,,,,,,,,,2,1,1.14962959677,,,,,,PLC_L_D1S1,P18,60.0221464707,01,C,2015_Feb_18_1702,X,
stim/negf.jpg,stim/posf.jpg,stim/2.jpg,stim/5.jpg,stim/latef.jpg,EF,1,2,0,22,22,47,,,,,,,,,,,,,,,,,,2,1,0.883048250766,,,,,,PLC_L_D1S1,P18,60.0221464707,01,C,2015_Feb_18_1702,X,
stim/posf.jpg,stim/negf.jpg,stim/6.jpg,stim/4.jpg,stim/latef.jpg,CD,1,2,0,23,23,20,,,,,,,,,,,,,,,,,,None,0,,,,,,,PLC_L_D1S1,P18,60.0221464707,01,C,2015_Feb_18_1702,X,
stim/posf.jpg,stim/negf.jpg,stim/1.jpg,stim/3.jpg,stim/latef.jpg,AB,2,4,0,24,24,10,,,,,,,,,,,,,,,,,,2,0,1.23289214367,,,,,,PLC_L_D1S1,P18,60.0221464707,01,C,2015_Feb_18_1702,X,
stim/posf.jpg,stim/negf.jpg,stim/5.jpg,stim/2.jpg,stim/latef.jpg,EF,2,4,0,25,25,50,,,,,,,,,,,,,,,,,,4,1,0.899697385734,,,,,,PLC_L_D1S1,P18,60.0221464707,01,C,2015_Feb_18_1702,X,
stim/negf.jpg,stim/posf.jpg,stim/1.jpg,stim/3.jpg,stim/latef.jpg,AB,2,4,0,26,26,19,,,,,,,,,,,,,,,,,,4,1,1.33288519635,,,,,,PLC_L_D1S1,P18,60.0221464707,01,C,2015_Feb_18_1702,X,
stim/posf.jpg,stim/negf.jpg,stim/5.jpg,stim/2.jpg,stim/latef.jpg,EF,2,4,0,27,27,52,,,,,,,,,,,,,,,,,,4,1,0.933026834384,,,,,,PLC_L_D1S1,P18,60.0221464707,01,C,2015_Feb_18_1702,X,
stim/posf.jpg,stim/negf.jpg,stim/2.jpg,stim/5.jpg,stim/latef.jpg,EF,1,2,0,28,28,45,,,,,,,,,,,,,,,,,,2,1,1.21627050624,,,,,,PLC_L_D1S1,P18,60.0221464707,01,C,2015_Feb_18_1702,X,
stim/posf.jpg,stim/negf.jpg,stim/3.jpg,stim/1.jpg,stim/latef.jpg,AB,1,2,0,29,29,3,,,,,,,,,,,,,,,,,,4,0,1.39952145022,,,,,,PLC_L_D1S1,P18,60.0221464707,01,C,2015_Feb_18_1702,X,
stim/negf.jpg,stim/posf.jpg,stim/5.jpg,stim/2.jpg,stim/latef.jpg,EF,2,4,0,30,30,57,,,,,,,,,,,,,,,,,,4,1,1.08296264539,,,,,,PLC_L_D1S1,P18,60.0221464707,01,C,2015_Feb_18_1702,X,
stim/posf.jpg,stim/negf.jpg,stim/6.jpg,stim/4.jpg,stim/latef.jpg,CD,1,2,0,31,31,23,,,,,,,,,,,,,,,,,,2,1,1.31625702062,,,,,,PLC_L_D1S1,P18,60.0221464707,01,C,2015_Feb_18_1702,X,
stim/negf.jpg,stim/posf.jpg,stim/4.jpg,stim/6.jpg,stim/latef.jpg,CD,2,4,0,32,32,38,,,,,,,,,,,,,,,,,,4,1,1.54949249404,,,,,,PLC_L_D1S1,P18,60.0221464707,01,C,2015_Feb_18_1702,X,
stim/posf.jpg,stim/negf.jpg,stim/6.jpg,stim/4.jpg,stim/latef.jpg,CD,1,2,0,33,33,25,,,,,,,,,,,,,,,,,,None,0,,,,,,,PLC_L_D1S1,P18,60.0221464707,01,C,2015_Feb_18_1702,X,
stim/posf.jpg,stim/negf.jpg,stim/2.jpg,stim/5.jpg,stim/latef.jpg,EF,1,2,0,34,34,42,,,,,,,,,,,,,,,,,,2,1,1.18294464553,,,,,,PLC_L_D1S1,P18,60.0221464707,01,C,2015_Feb_18_1702,X,
stim/posf.jpg,stim/negf.jpg,stim/3.jpg,stim/1.jpg,stim/latef.jpg,AB,1,2,0,35,35,1,,,,,,,,,,,,,,,,,,2,1,1.13291797205,,,,,,PLC_L_D1S1,P18,60.0221464707,01,C,2015_Feb_18_1702,X,
stim/posf.jpg,stim/negf.jpg,stim/5.jpg,stim/2.jpg,stim/latef.jpg,EF,2,4,0,36,36,54,,,,,,,,,,,,,,,,,,4,1,1.06631888181,,,,,,PLC_L_D1S1,P18,60.0221464707,01,C,2015_Feb_18_1702,X,
stim/posf.jpg,stim/negf.jpg,stim/3.jpg,stim/1.jpg,stim/latef.jpg,AB,1,2,0,37,37,0,,,,,,,,,,,,,,,,,,2,1,1.53284322373,,,,,,PLC_L_D1S1,P18,60.0221464707,01,C,2015_Feb_18_1702,X,
stim/posf.jpg,stim/negf.jpg,stim/6.jpg,stim/4.jpg,stim/latef.jpg,CD,1,2,0,38,38,24,,,,,,,,,,,,,,,,,,2,1,1.53287928963,,,,,,PLC_L_D1S1,P18,60.0221464707,01,C,2015_Feb_18_1702,X,
stim/posf.jpg,stim/negf.jpg,stim/6.jpg,stim/4.jpg,stim/latef.jpg,CD,1,2,0,39,39,22,,,,,,,,,,,,,,,,,,2,1,1.11630193758,,,,,,PLC_L_D1S1,P18,60.0221464707,01,C,2015_Feb_18_1702,X,
stim/posf.jpg,stim/negf.jpg,stim/1.jpg,stim/3.jpg,stim/latef.jpg,AB,2,4,0,40,40,15,,,,,,,,,,,,,,,,,,4,1,1.38286795137,,,,,,PLC_L_D1S1,P18,60.0221464707,01,C,2015_Feb_18_1702,X,
stim/posf.jpg,stim/negf.jpg,stim/1.jpg,stim/3.jpg,stim/latef.jpg,AB,2,4,0,41,41,12,,,,,,,,,,,,,,,,,,2,0,1.19958048135,,,,,,PLC_L_D1S1,P18,60.0221464707,01,C,2015_Feb_18_1702,X,
stim/negf.jpg,stim/posf.jpg,stim/3.jpg,stim/1.jpg,stim/latef.jpg,AB,1,2,0,42,42,8,,,,,,,,,,,,,,,,,,4,0,1.44952383817,,,,,,PLC_L_D1S1,P18,60.0221464707,01,C,2015_Feb_18_1702,X,
stim/posf.jpg,stim/negf.jpg,stim/6.jpg,stim/4.jpg,stim/latef.jpg,CD,1,2,0,43,43,26,,,,,,,,,,,,,,,,,,2,1,1.14962569304,,,,,,PLC_L_D1S1,P18,60.0221464707,01,C,2015_Feb_18_1702,X,
stim/negf.jpg,stim/posf.jpg,stim/6.jpg,stim/4.jpg,stim/latef.jpg,CD,1,2,0,44,44,27,,,,,,,,,,,,,,,,,,2,1,0.999726435139,,,,,,PLC_L_D1S1,P18,60.0221464707,01,C,2015_Feb_18_1702,X,
stim/negf.jpg,stim/posf.jpg,stim/5.jpg,stim/2.jpg,stim/latef.jpg,EF,2,4,0,45,45,59,,,,,,,,,,,,,,,,,,4,1,1.09965251991,,,,,,PLC_L_D1S1,P18,60.0221464707,01,C,2015_Feb_18_1702,X,
stim/posf.jpg,stim/negf.jpg,stim/3.jpg,stim/1.jpg,stim/latef.jpg,AB,1,2,0,46,46,6,,,,,,,,,,,,,,,,,,4,0,1.66608678431,,,,,,PLC_L_D1S1,P18,60.0221464707,01,C,2015_Feb_18_1702,X,
stim/negf.jpg,stim/posf.jpg,stim/2.jpg,stim/5.jpg,stim/latef.jpg,EF,1,2,0,47,47,49,,,,,,,,,,,,,,,,,,2,1,0.933020542703,,,,,,PLC_L_D1S1,P18,60.0221464707,01,C,2015_Feb_18_1702,X,
stim/posf.jpg,stim/negf.jpg,stim/1.jpg,stim/3.jpg,stim/latef.jpg,AB,2,4,0,48,48,14,,,,,,,,,,,,,,,,,,2,0,1.44952752235,,,,,,PLC_L_D1S1,P18,60.0221464707,01,C,2015_Feb_18_1702,X,
stim/posf.jpg,stim/negf.jpg,stim/4.jpg,stim/6.jpg,stim/latef.jpg,CD,2,4,0,49,49,31,,,,,,,,,,,,,,,,,,4,1,1.51618584221,,,,,,PLC_L_D1S1,P18,60.0221464707,01,C,2015_Feb_18_1702,X,
stim/posf.jpg,stim/negf.jpg,stim/6.jpg,stim/4.jpg,stim/latef.jpg,CD,1,2,0,50,50,21,,,,,,,,,,,,,,,,,,2,1,1.06630726085,,,,,,PLC_L_D1S1,P18,60.0221464707,01,C,2015_Feb_18_1702,X,
stim/negf.jpg,stim/posf.jpg,stim/2.jpg,stim/5.jpg,stim/latef.jpg,EF,1,2,0,51,51,46,,,,,,,,,,,,,,,,,,None,0,,,,,,,PLC_L_D1S1,P18,60.0221464707,01,C,2015_Feb_18_1702,X,
stim/negf.jpg,stim/posf.jpg,stim/6.jpg,stim/4.jpg,stim/latef.jpg,CD,1,2,0,52,52,29,,,,,,,,,,,,,,,,,,2,1,0.799773093435,,,,,,PLC_L_D1S1,P18,60.0221464707,01,C,2015_Feb_18_1702,X,
stim/posf.jpg,stim/negf.jpg,stim/4.jpg,stim/6.jpg,stim/latef.jpg,CD,2,4,0,53,53,30,,,,,,,,,,,,,,,,,,2,0,1.13294223352,,,,,,PLC_L_D1S1,P18,60.0221464707,01,C,2015_Feb_18_1702,X,
stim/posf.jpg,stim/negf.jpg,stim/4.jpg,stim/6.jpg,stim/latef.jpg,CD,2,4,0,54,54,34,,,,,,,,,,,,,,,,,,4,1,0.883021763746,,,,,,PLC_L_D1S1,P18,60.0221464707,01,C,2015_Feb_18_1702,X,
stim/posf.jpg,stim/negf.jpg,stim/3.jpg,stim/1.jpg,stim/latef.jpg,AB,1,2,0,55,55,5,,,,,,,,,,,,,,,,,,2,1,1.29957209645,,,,,,PLC_L_D1S1,P18,60.0221464707,01,C,2015_Feb_18_1702,X,
stim/posf.jpg,stim/negf.jpg,stim/4.jpg,stim/6.jpg,stim/latef.jpg,CD,2,4,0,56,56,35,,,,,,,,,,,,,,,,,,4,1,0.849726651679,,,,,,PLC_L_D1S1,P18,60.0221464707,01,C,2015_Feb_18_1702,X,
stim/posf.jpg,stim/negf.jpg,stim/2.jpg,stim/5.jpg,stim/latef.jpg,EF,1,2,0,57,57,41,,,,,,,,,,,,,,,,,,2,1,1.18293478094,,,,,,PLC_L_D1S1,P18,60.0221464707,01,C,2015_Feb_18_1702,X,
stim/posf.jpg,stim/negf.jpg,stim/1.jpg,stim/3.jpg,stim/latef.jpg,AB,2,4,0,58,58,13,,,,,,,,,,,,,,,,,,2,0,0.966353732678,,,,,,PLC_L_D1S1,P18,60.0221464707,01,C,2015_Feb_18_1702,X,
stim/posf.jpg,stim/negf.jpg,stim/1.jpg,stim/3.jpg,stim/latef.jpg,AB,2,4,0,59,59,16,,,,,,,,,,,,,,,,,,4,1,1.16630328193,,,,,,PLC_L_D1S1,P18,60.0221464707,01,C,2015_Feb_18_1702,X,
,,,,,,,,,,,,,,,,,,,,,,,,,,,,,,,,0.9984375,1.0,1,0,0,PLC_L_D1S1,P18,60.0221464707,01,C,2015_Feb_18_1702,X,
stim/posf.jpg,stim/negf.jpg,stim/5.jpg,stim/2.jpg,stim/latef.jpg,EF,2,4,,,,,0,0,0,50,,,,,,,,,,,,,,2,0,1.14965790633,,,,,,PLC_L_D1S1,P18,60.0221464707,01,C,2015_Feb_18_1702,X,
stim/posf.jpg,stim/negf.jpg,stim/6.jpg,stim/4.jpg,stim/latef.jpg,CD,1,2,,,,,0,1,1,21,,,,,,,,,,,,,,2,1,0.833051420666,,,,,,PLC_L_D1S1,P18,60.0221464707,01,C,2015_Feb_18_1702,X,
stim/posf.jpg,stim/negf.jpg,stim/4.jpg,stim/6.jpg,stim/latef.jpg,CD,2,4,,,,,0,2,2,36,,,,,,,,,,,,,,4,1,1.04961268562,,,,,,PLC_L_D1S1,P18,60.0221464707,01,C,2015_Feb_18_1702,X,
stim/posf.jpg,stim/negf.jpg,stim/3.jpg,stim/1.jpg,stim/latef.jpg,AB,1,2,,,,,0,3,3,6,,,,,,,,,,,,,,2,1,1.09968671213,,,,,,PLC_L_D1S1,P18,60.0221464707,01,C,2015_Feb_18_1702,X,
stim/posf.jpg,stim/negf.jpg,stim/6.jpg,stim/4.jpg,stim/latef.jpg,CD,1,2,,,,,0,4,4,26,,,,,,,,,,,,,,2,1,0.982991222623,,,,,,PLC_L_D1S1,P18,60.0221464707,01,C,2015_Feb_18_1702,X,
stim/negf.jpg,stim/posf.jpg,stim/6.jpg,stim/4.jpg,stim/latef.jpg,CD,1,2,,,,,0,5,5,27,,,,,,,,,,,,,,2,1,0.766413984858,,,,,,PLC_L_D1S1,P18,60.0221464707,01,C,2015_Feb_18_1702,X,
stim/negf.jpg,stim/posf.jpg,stim/6.jpg,stim/4.jpg,stim/latef.jpg,CD,1,2,,,,,0,6,6,28,,,,,,,,,,,,,,2,1,1.34956567845,,,,,,PLC_L_D1S1,P18,60.0221464707,01,C,2015_Feb_18_1702,X,
stim/negf.jpg,stim/posf.jpg,stim/1.jpg,stim/3.jpg,stim/latef.jpg,AB,2,4,,,,,0,7,7,19,,,,,,,,,,,,,,4,1,1.06631474049,,,,,,PLC_L_D1S1,P18,60.0221464707,01,C,2015_Feb_18_1702,X,
stim/posf.jpg,stim/negf.jpg,stim/4.jpg,stim/6.jpg,stim/latef.jpg,CD,2,4,,,,,0,8,8,35,,,,,,,,,,,,,,4,1,1.04966162059,,,,,,PLC_L_D1S1,P18,60.0221464707,01,C,2015_Feb_18_1702,X,
stim/posf.jpg,stim/negf.jpg,stim/3.jpg,stim/1.jpg,stim/latef.jpg,AB,1,2,,,,,0,9,9,0,,,,,,,,,,,,,,2,1,1.41618557454,,,,,,PLC_L_D1S1,P18,60.0221464707,01,C,2015_Feb_18_1702,X,
stim/negf.jpg,stim/posf.jpg,stim/3.jpg,stim/1.jpg,stim/latef.jpg,AB,1,2,,,,,0,10,10,8,,,,,,,,,,,,,,2,1,1.23293580349,,,,,,PLC_L_D1S1,P18,60.0221464707,01,C,2015_Feb_18_1702,X,
stim/negf.jpg,stim/posf.jpg,stim/2.jpg,stim/5.jpg,stim/latef.jpg,EF,1,2,,,,,0,11,11,47,,,,,,,,,,,,,,None,0,,,,,,,PLC_L_D1S1,P18,60.0221464707,01,C,2015_Feb_18_1702,X,
stim/posf.jpg,stim/negf.jpg,stim/1.jpg,stim/3.jpg,stim/latef.jpg,AB,2,4,,,,,0,12,12,12,,,,,,,,,,,,,,4,1,1.19960829768,,,,,,PLC_L_D1S1,P18,60.0221464707,01,C,2015_Feb_18_1702,X,
stim/negf.jpg,stim/posf.jpg,stim/4.jpg,stim/6.jpg,stim/latef.jpg,CD,2,4,,,,,0,13,13,38,,,,,,,,,,,,,,2,0,1.44953854783,,,,,,PLC_L_D1S1,P18,60.0221464707,01,C,2015_Feb_18_1702,X,
stim/posf.jpg,stim/negf.jpg,stim/3.jpg,stim/1.jpg,stim/latef.jpg,AB,1,2,,,,,0,14,14,4,,,,,,,,,,,,,,2,1,1.11631212999,,,,,,PLC_L_D1S1,P18,60.0221464707,01,C,2015_Feb_18_1702,X,
stim/posf.jpg,stim/negf.jpg,stim/6.jpg,stim/4.jpg,stim/latef.jpg,CD,1,2,,,,,0,15,15,25,,,,,,,,,,,,,,2,1,1.13299805565,,,,,,PLC_L_D1S1,P18,60.0221464707,01,C,2015_Feb_18_1702,X,
stim/negf.jpg,stim/posf.jpg,stim/5.jpg,stim/2.jpg,stim/latef.jpg,EF,2,4,,,,,0,16,16,56,,,,,,,,,,,,,,4,1,1.2995593176,,,,,,PLC_L_D1S1,P18,60.0221464707,01,C,2015_Feb_18_1702,X,
stim/posf.jpg,stim/negf.jpg,stim/6.jpg,stim/4.jpg,stim/latef.jpg,CD,1,2,,,,,0,17,17,22,,,,,,,,,,,,,,2,1,1.01632489079,,,,,,PLC_L_D1S1,P18,60.0221464707,01,C,2015_Feb_18_1702,X,
stim/posf.jpg,stim/negf.jpg,stim/3.jpg,stim/1.jpg,stim/latef.jpg,AB,1,2,,,,,0,18,18,5,,,,,,,,,,,,,,2,1,1.39954446057,,,,,,PLC_L_D1S1,P18,60.0221464707,01,C,2015_Feb_18_1702,X,
stim/posf.jpg,stim/negf.jpg,stim/1.jpg,stim/3.jpg,stim/latef.jpg,AB,2,4,,,,,0,19,19,16,,,,,,,,,,,,,,4,1,0.933031640365,,,,,,PLC_L_D1S1,P18,60.0221464707,01,C,2015_Feb_18_1702,X,
stim/posf.jpg,stim/negf.jpg,stim/3.jpg,stim/1.jpg,stim/latef.jpg,AB,1,2,,,,,0,20,20,2,,,,,,,,,,,,,,2,1,0.849727731371,,,,,,PLC_L_D1S1,P18,60.0221464707,01,C,2015_Feb_18_1702,X,
stim/posf.jpg,stim/negf.jpg,stim/1.jpg,stim/3.jpg,stim/latef.jpg,AB,2,4,,,,,0,21,21,17,,,,,,,,,,,,,,4,1,1.31623101781,,,,,,PLC_L_D1S1,P18,60.0221464707,01,C,2015_Feb_18_1702,X,
stim/posf.jpg,stim/negf.jpg,stim/1.jpg,stim/3.jpg,stim/latef.jpg,AB,2,4,,,,,0,22,22,13,,,,,,,,,,,,,,4,1,0.783059718347,,,,,,PLC_L_D1S1,P18,60.0221464707,01,C,2015_Feb_18_1702,X,
stim/posf.jpg,stim/negf.jpg,stim/1.jpg,stim/3.jpg,stim/latef.jpg,AB,2,4,,,,,0,23,23,15,,,,,,,,,,,,,,4,1,0.683133465162,,,,,,PLC_L_D1S1,P18,60.0221464707,01,C,2015_Feb_18_1702,X,
stim/posf.jpg,stim/negf.jpg,stim/4.jpg,stim/6.jpg,stim/latef.jpg,CD,2,4,,,,,0,24,24,30,,,,,,,,,,,,,,None,0,,,,,,,PLC_L_D1S1,P18,60.0221464707,01,C,2015_Feb_18_1702,X,
stim/negf.jpg,stim/posf.jpg,stim/3.jpg,stim/1.jpg,stim/latef.jpg,AB,1,2,,,,,0,25,25,9,,,,,,,,,,,,,,2,1,0.866375118983,,,,,,PLC_L_D1S1,P18,60.0221464707,01,C,2015_Feb_18_1702,X,
stim/negf.jpg,stim/posf.jpg,stim/2.jpg,stim/5.jpg,stim/latef.jpg,EF,1,2,,,,,0,26,26,46,,,,,,,,,,,,,,4,0,1.18298345125,,,,,,PLC_L_D1S1,P18,60.0221464707,01,C,2015_Feb_18_1702,X,
stim/posf.jpg,stim/negf.jpg,stim/1.jpg,stim/3.jpg,stim/latef.jpg,AB,2,4,,,,,0,27,27,14,,,,,,,,,,,,,,4,1,1.01636969045,,,,,,PLC_L_D1S1,P18,60.0221464707,01,C,2015_Feb_18_1702,X,
stim/posf.jpg,stim/negf.jpg,stim/5.jpg,stim/2.jpg,stim/latef.jpg,EF,2,4,,,,,0,28,28,53,,,,,,,,,,,,,,2,0,1.2662847347,,,,,,PLC_L_D1S1,P18,60.0221464707,01,C,2015_Feb_18_1702,X,
stim/posf.jpg,stim/negf.jpg,stim/2.jpg,stim/5.jpg,stim/latef.jpg,EF,1,2,,,,,0,29,29,42,,,,,,,,,,,,,,4,0,1.1663079646,,,,,,PLC_L_D1S1,P18,60.0221464707,01,C,2015_Feb_18_1702,X,
stim/posf.jpg,stim/negf.jpg,stim/3.jpg,stim/1.jpg,stim/latef.jpg,AB,1,2,,,,,0,30,30,7,,,,,,,,,,,,,,2,1,1.11636595514,,,,,,PLC_L_D1S1,P18,60.0221464707,01,C,2015_Feb_18_1702,X,
stim/posf.jpg,stim/negf.jpg,stim/5.jpg,stim/2.jpg,stim/latef.jpg,EF,2,4,,,,,0,31,31,51,,,,,,,,,,,,,,4,1,1.33295945745,,,,,,PLC_L_D1S1,P18,60.0221464707,01,C,2015_Feb_18_1702,X,
stim/posf.jpg,stim/negf.jpg,stim/4.jpg,stim/6.jpg,stim/latef.jpg,CD,2,4,,,,,0,32,32,33,,,,,,,,,,,,,,2,0,1.21621600439,,,,,,PLC_L_D1S1,P18,60.0221464707,01,C,2015_Feb_18_1702,X,
stim/negf.jpg,stim/posf.jpg,stim/5.jpg,stim/2.jpg,stim/latef.jpg,EF,2,4,,,,,0,33,33,57,,,,,,,,,,,,,,4,1,0.883033330576,,,,,,PLC_L_D1S1,P18,60.0221464707,01,C,2015_Feb_18_1702,X,
stim/posf.jpg,stim/negf.jpg,stim/3.jpg,stim/1.jpg,stim/latef.jpg,AB,1,2,,,,,0,34,34,3,,,,,,,,,,,,,,2,1,0.882971057361,,,,,,PLC_L_D1S1,P18,60.0221464707,01,C,2015_Feb_18_1702,X,
stim/negf.jpg,stim/posf.jpg,stim/1.jpg,stim/3.jpg,stim/latef.jpg,AB,2,4,,,,,0,35,35,18,,,,,,,,,,,,,,4,1,0.866390246689,,,,,,PLC_L_D1S1,P18,60.0221464707,01,C,2015_Feb_18_1702,X,
stim/posf.jpg,stim/negf.jpg,stim/2.jpg,stim/5.jpg,stim/latef.jpg,EF,1,2,,,,,0,36,36,44,,,,,,,,,,,,,,4,0,1.18295671461,,,,,,PLC_L_D1S1,P18,60.0221464707,01,C,2015_Feb_18_1702,X,
stim/posf.jpg,stim/negf.jpg,stim/2.jpg,stim/5.jpg,stim/latef.jpg,EF,1,2,,,,,0,37,37,41,,,,,,,,,,,,,,2,1,0.583153428923,,,,,,PLC_L_D1S1,P18,60.0221464707,01,C,2015_Feb_18_1702,X,
stim/posf.jpg,stim/negf.jpg,stim/4.jpg,stim/6.jpg,stim/latef.jpg,CD,2,4,,,,,0,38,38,31,,,,,,,,,,,,,,4,1,1.29956562733,,,,,,PLC_L_D1S1,P18,60.0221464707,01,C,2015_Feb_18_1702,X,
stim/posf.jpg,stim/negf.jpg,stim/2.jpg,stim/5.jpg,stim/latef.jpg,EF,1,2,,,,,0,39,39,40,,,,,,,,,,,,,,2,1,0.932978034751,,,,,,PLC_L_D1S1,P18,60.0221464707,01,C,2015_Feb_18_1702,X,
stim/posf.jpg,stim/negf.jpg,stim/4.jpg,stim/6.jpg,stim/latef.jpg,CD,2,4,,,,,0,40,40,32,,,,,,,,,,,,,,4,1,1.04967708514,,,,,,PLC_L_D1S1,P18,60.0221464707,01,C,2015_Feb_18_1702,X,
stim/posf.jpg,stim/negf.jpg,stim/1.jpg,stim/3.jpg,stim/latef.jpg,AB,2,4,,,,,0,41,41,10,,,,,,,,,,,,,,4,1,0.899703021782,,,,,,PLC_L_D1S1,P18,60.0221464707,01,C,2015_Feb_18_1702,X,
stim/posf.jpg,stim/negf.jpg,stim/6.jpg,stim/4.jpg,stim/latef.jpg,CD,1,2,,,,,0,42,42,23,,,,,,,,,,,,,,2,1,0.899684931692,,,,,,PLC_L_D1S1,P18,60.0221464707,01,C,2015_Feb_18_1702,X,
stim/negf.jpg,stim/posf.jpg,stim/2.jpg,stim/5.jpg,stim/latef.jpg,EF,1,2,,,,,0,43,43,48,,,,,,,,,,,,,,2,1,1.21625244923,,,,,,PLC_L_D1S1,P18,60.0221464707,01,C,2015_Feb_18_1702,X,
stim/posf.jpg,stim/negf.jpg,stim/2.jpg,stim/5.jpg,stim/latef.jpg,EF,1,2,,,,,0,44,44,45,,,,,,,,,,,,,,4,0,0.516474925753,,,,,,PLC_L_D1S1,P18,60.0221464707,01,C,2015_Feb_18_1702,X,
stim/negf.jpg,stim/posf.jpg,stim/4.jpg,stim/6.jpg,stim/latef.jpg,CD,2,4,,,,,0,45,45,39,,,,,,,,,,,,,,4,1,1.04966297697,,,,,,PLC_L_D1S1,P18,60.0221464707,01,C,2015_Feb_18_1702,X,
stim/negf.jpg,stim/posf.jpg,stim/2.jpg,stim/5.jpg,stim/latef.jpg,EF,1,2,,,,,0,46,46,49,,,,,,,,,,,,,,2,1,1.26620014286,,,,,,PLC_L_D1S1,P18,60.0221464707,01,C,2015_Feb_18_1702,X,
stim/negf.jpg,stim/posf.jpg,stim/5.jpg,stim/2.jpg,stim/latef.jpg,EF,2,4,,,,,0,47,47,58,,,,,,,,,,,,,,2,0,0.649787776032,,,,,,PLC_L_D1S1,P18,60.0221464707,01,C,2015_Feb_18_1702,X,
stim/posf.jpg,stim/negf.jpg,stim/4.jpg,stim/6.jpg,stim/latef.jpg,CD,2,4,,,,,0,48,48,34,,,,,,,,,,,,,,4,1,1.09963559071,,,,,,PLC_L_D1S1,P18,60.0221464707,01,C,2015_Feb_18_1702,X,
stim/posf.jpg,stim/negf.jpg,stim/2.jpg,stim/5.jpg,stim/latef.jpg,EF,1,2,,,,,0,49,49,43,,,,,,,,,,,,,,4,0,1.36621872918,,,,,,PLC_L_D1S1,P18,60.0221464707,01,C,2015_Feb_18_1702,X,
stim/negf.jpg,stim/posf.jpg,stim/5.jpg,stim/2.jpg,stim/latef.jpg,EF,2,4,,,,,0,50,50,59,,,,,,,,,,,,,,4,1,0.93306639499,,,,,,PLC_L_D1S1,P18,60.0221464707,01,C,2015_Feb_18_1702,X,
stim/posf.jpg,stim/negf.jpg,stim/5.jpg,stim/2.jpg,stim/latef.jpg,EF,2,4,,,,,0,51,51,54,,,,,,,,,,,,,,2,0,1.23297936106,,,,,,PLC_L_D1S1,P18,60.0221464707,01,C,2015_Feb_18_1702,X,
stim/posf.jpg,stim/negf.jpg,stim/5.jpg,stim/2.jpg,stim/latef.jpg,EF,2,4,,,,,0,52,52,55,,,,,,,,,,,,,,4,1,1.28290556011,,,,,,PLC_L_D1S1,P18,60.0221464707,01,C,2015_Feb_18_1702,X,
stim/posf.jpg,stim/negf.jpg,stim/3.jpg,stim/1.jpg,stim/latef.jpg,AB,1,2,,,,,0,53,53,1,,,,,,,,,,,,,,2,1,0.899662937874,,,,,,PLC_L_D1S1,P18,60.0221464707,01,C,2015_Feb_18_1702,X,
stim/posf.jpg,stim/negf.jpg,stim/1.jpg,stim/3.jpg,stim/latef.jpg,AB,2,4,,,,,0,54,54,11,,,,,,,,,,,,,,4,1,0.783071342321,,,,,,PLC_L_D1S1,P18,60.0221464707,01,C,2015_Feb_18_1702,X,
stim/posf.jpg,stim/negf.jpg,stim/6.jpg,stim/4.jpg,stim/latef.jpg,CD,1,2,,,,,0,55,55,24,,,,,,,,,,,,,,2,1,0.849765667926,,,,,,PLC_L_D1S1,P18,60.0221464707,01,C,2015_Feb_18_1702,X,
stim/posf.jpg,stim/negf.jpg,stim/5.jpg,stim/2.jpg,stim/latef.jpg,EF,2,4,,,,,0,56,56,52,,,,,,,,,,,,,,4,1,0.898709062338,,,,,,PLC_L_D1S1,P18,60.0221464707,01,C,2015_Feb_18_1702,X,
stim/negf.jpg,stim/posf.jpg,stim/6.jpg,stim/4.jpg,stim/latef.jpg,CD,1,2,,,,,0,57,57,29,,,,,,,,,,,,,,2,1,0.816342701182,,,,,,PLC_L_D1S1,P18,60.0221464707,01,C,2015_Feb_18_1702,X,
stim/posf.jpg,stim/negf.jpg,stim/6.jpg,stim/4.jpg,stim/latef.jpg,CD,1,2,,,,,0,58,58,20,,,,,,,,,,,,,,4,0,0.949706143561,,,,,,PLC_L_D1S1,P18,60.0221464707,01,C,2015_Feb_18_1702,X,
stim/negf.jpg,stim/posf.jpg,stim/4.jpg,stim/6.jpg,stim/latef.jpg,CD,2,4,,,,,0,59,59,37,,,,,,,,,,,,,,4,1,1.03298799859,,,,,,PLC_L_D1S1,P18,60.0221464707,01,C,2015_Feb_18_1702,X,
,,,,,,,,,,,,,,,,,,,,,,,,,,,,,,,,0.99375,0.962890625,0,0,1,PLC_L_D1S1,P18,60.0221464707,01,C,2015_Feb_18_1702,X,
stim/posf.jpg,stim/negf.jpg,stim/2.jpg,stim/5.jpg,stim/latef.jpg,EF,1,2,,,,,,,,,0,0,0,45,,,,,,,,,,4,0,1.28291491041,,,,,,PLC_L_D1S1,P18,60.0221464707,01,C,2015_Feb_18_1702,X,
stim/posf.jpg,stim/negf.jpg,stim/4.jpg,stim/6.jpg,stim/latef.jpg,CD,2,4,,,,,,,,,0,1,1,30,,,,,,,,,,4,1,0.883047071828,,,,,,PLC_L_D1S1,P18,60.0221464707,01,C,2015_Feb_18_1702,X,
stim/posf.jpg,stim/negf.jpg,stim/6.jpg,stim/4.jpg,stim/latef.jpg,CD,1,2,,,,,,,,,0,2,2,25,,,,,,,,,,2,1,0.983017234457,,,,,,PLC_L_D1S1,P18,60.0221464707,01,C,2015_Feb_18_1702,X,
stim/posf.jpg,stim/negf.jpg,stim/5.jpg,stim/2.jpg,stim/latef.jpg,EF,2,4,,,,,,,,,0,3,3,51,,,,,,,,,,4,1,0.649760131126,,,,,,PLC_L_D1S1,P18,60.0221464707,01,C,2015_Feb_18_1702,X,
stim/negf.jpg,stim/posf.jpg,stim/2.jpg,stim/5.jpg,stim/latef.jpg,EF,1,2,,,,,,,,,0,4,4,46,,,,,,,,,,2,1,0.666443762078,,,,,,PLC_L_D1S1,P18,60.0221464707,01,C,2015_Feb_18_1702,X,
stim/negf.jpg,stim/posf.jpg,stim/6.jpg,stim/4.jpg,stim/latef.jpg,CD,1,2,,,,,,,,,0,5,5,29,,,,,,,,,,2,1,1.36621979384,,,,,,PLC_L_D1S1,P18,60.0221464707,01,C,2015_Feb_18_1702,X,
stim/posf.jpg,stim/negf.jpg,stim/3.jpg,stim/1.jpg,stim/latef.jpg,AB,1,2,,,,,,,,,0,6,6,3,,,,,,,,,,2,1,0.932970269396,,,,,,PLC_L_D1S1,P18,60.0221464707,01,C,2015_Feb_18_1702,X,
stim/posf.jpg,stim/negf.jpg,stim/2.jpg,stim/5.jpg,stim/latef.jpg,EF,1,2,,,,,,,,,0,7,7,41,,,,,,,,,,2,1,0.599801685701,,,,,,PLC_L_D1S1,P18,60.0221464707,01,C,2015_Feb_18_1702,X,
stim/posf.jpg,stim/negf.jpg,stim/1.jpg,stim/3.jpg,stim/latef.jpg,AB,2,4,,,,,,,,,0,8,8,15,,,,,,,,,,4,1,0.783058879257,,,,,,PLC_L_D1S1,P18,60.0221464707,01,C,2015_Feb_18_1702,X,
stim/negf.jpg,stim/posf.jpg,stim/5.jpg,stim/2.jpg,stim/latef.jpg,EF,2,4,,,,,,,,,0,9,9,58,,,,,,,,,,4,1,1.11629573913,,,,,,PLC_L_D1S1,P18,60.0221464707,01,C,2015_Feb_18_1702,X,
stim/posf.jpg,stim/negf.jpg,stim/3.jpg,stim/1.jpg,stim/latef.jpg,AB,1,2,,,,,,,,,0,10,10,1,,,,,,,,,,2,1,0.699811306682,,,,,,PLC_L_D1S1,P18,60.0221464707,01,C,2015_Feb_18_1702,X,
stim/negf.jpg,stim/posf.jpg,stim/1.jpg,stim/3.jpg,stim/latef.jpg,AB,2,4,,,,,,,,,0,11,11,19,,,,,,,,,,2,0,0.71641424651,,,,,,PLC_L_D1S1,P18,60.0221464707,01,C,2015_Feb_18_1702,X,
stim/negf.jpg,stim/posf.jpg,stim/3.jpg,stim/1.jpg,stim/latef.jpg,AB,1,2,,,,,,,,,0,12,12,8,,,,,,,,,,2,1,1.29961326607,,,,,,PLC_L_D1S1,P18,60.0221464707,01,C,2015_Feb_18_1702,X,
stim/negf.jpg,stim/posf.jpg,stim/1.jpg,stim/3.jpg,stim/latef.jpg,AB,2,4,,,,,,,,,0,13,13,18,,,,,,,,,,2,0,1.14955391012,,,,,,PLC_L_D1S1,P18,60.0221464707,01,C,2015_Feb_18_1702,X,
stim/negf.jpg,stim/posf.jpg,stim/5.jpg,stim/2.jpg,stim/latef.jpg,EF,2,4,,,,,,,,,0,14,14,57,,,,,,,,,,4,1,1.11628597981,,,,,,PLC_L_D1S1,P18,60.0221464707,01,C,2015_Feb_18_1702,X,
stim/negf.jpg,stim/posf.jpg,stim/2.jpg,stim/5.jpg,stim/latef.jpg,EF,1,2,,,,,,,,,0,15,15,47,,,,,,,,,,4,0,0.766405575898,,,,,,PLC_L_D1S1,P18,60.0221464707,01,C,2015_Feb_18_1702,X,
stim/posf.jpg,stim/negf.jpg,stim/3.jpg,stim/1.jpg,stim/latef.jpg,AB,1,2,,,,,,,,,0,16,16,6,,,,,,,,,,2,1,1.31623505688,,,,,,PLC_L_D1S1,P18,60.0221464707,01,C,2015_Feb_18_1702,X,
stim/posf.jpg,stim/negf.jpg,stim/6.jpg,stim/4.jpg,stim/latef.jpg,CD,1,2,,,,,,,,,0,17,17,23,,,,,,,,,,2,1,1.26624578762,,,,,,PLC_L_D1S1,P18,60.0221464707,01,C,2015_Feb_18_1702,X,
stim/negf.jpg,stim/posf.jpg,stim/4.jpg,stim/6.jpg,stim/latef.jpg,CD,2,4,,,,,,,,,0,18,18,38,,,,,,,,,,4,1,1.21627442801,,,,,,PLC_L_D1S1,P18,60.0221464707,01,C,2015_Feb_18_1702,X,
stim/posf.jpg,stim/negf.jpg,stim/2.jpg,stim/5.jpg,stim/latef.jpg,EF,1,2,,,,,,,,,0,19,19,42,,,,,,,,,,None,0,,,,,,,PLC_L_D1S1,P18,60.0221464707,01,C,2015_Feb_18_1702,X,
stim/posf.jpg,stim/negf.jpg,stim/3.jpg,stim/1.jpg,stim/latef.jpg,AB,1,2,,,,,,,,,0,20,20,5,,,,,,,,,,2,1,1.11625198006,,,,,,PLC_L_D1S1,P18,60.0221464707,01,C,2015_Feb_18_1702,X,
stim/posf.jpg,stim/negf.jpg,stim/4.jpg,stim/6.jpg,stim/latef.jpg,CD,2,4,,,,,,,,,0,21,21,34,,,,,,,,,,4,1,0.716407380396,,,,,,PLC_L_D1S1,P18,60.0221464707,01,C,2015_Feb_18_1702,X,
stim/posf.jpg,stim/negf.jpg,stim/6.jpg,stim/4.jpg,stim/latef.jpg,CD,1,2,,,,,,,,,0,22,22,22,,,,,,,,,,2,1,0.83308546853,,,,,,PLC_L_D1S1,P18,60.0221464707,01,C,2015_Feb_18_1702,X,
stim/negf.jpg,stim/posf.jpg,stim/2.jpg,stim/5.jpg,stim/latef.jpg,EF,1,2,,,,,,,,,0,23,23,48,,,,,,,,,,4,0,0.866369368652,,,,,,PLC_L_D1S1,P18,60.0221464707,01,C,2015_Feb_18_1702,X,
stim/negf.jpg,stim/posf.jpg,stim/5.jpg,stim/2.jpg,stim/latef.jpg,EF,2,4,,,,,,,,,0,24,24,56,,,,,,,,,,2,0,0.616454077788,,,,,,PLC_L_D1S1,P18,60.0221464707,01,C,2015_Feb_18_1702,X,
stim/posf.jpg,stim/negf.jpg,stim/5.jpg,stim/2.jpg,stim/latef.jpg,EF,2,4,,,,,,,,,0,25,25,53,,,,,,,,,,2,0,0.599830942623,,,,,,PLC_L_D1S1,P18,60.0221464707,01,C,2015_Feb_18_1702,X,
stim/posf.jpg,stim/negf.jpg,stim/5.jpg,stim/2.jpg,stim/latef.jpg,EF,2,4,,,,,,,,,0,26,26,55,,,,,,,,,,2,0,0.616454128916,,,,,,PLC_L_D1S1,P18,60.0221464707,01,C,2015_Feb_18_1702,X,
stim/posf.jpg,stim/negf.jpg,stim/3.jpg,stim/1.jpg,stim/latef.jpg,AB,1,2,,,,,,,,,0,27,27,7,,,,,,,,,,2,1,0.999613217946,,,,,,PLC_L_D1S1,P18,60.0221464707,01,C,2015_Feb_18_1702,X,
stim/posf.jpg,stim/negf.jpg,stim/1.jpg,stim/3.jpg,stim/latef.jpg,AB,2,4,,,,,,,,,0,28,28,11,,,,,,,,,,4,1,0.883037174157,,,,,,PLC_L_D1S1,P18,60.0221464707,01,C,2015_Feb_18_1702,X,
stim/posf.jpg,stim/negf.jpg,stim/4.jpg,stim/6.jpg,stim/latef.jpg,CD,2,4,,,,,,,,,0,29,29,36,,,,,,,,,,4,1,0.849741686154,,,,,,PLC_L_D1S1,P18,60.0221464707,01,C,2015_Feb_18_1702,X,
stim/negf.jpg,stim/posf.jpg,stim/5.jpg,stim/2.jpg,stim/latef.jpg,EF,2,4,,,,,,,,,0,30,30,59,,,,,,,,,,2,0,0.549799195494,,,,,,PLC_L_D1S1,P18,60.0221464707,01,C,2015_Feb_18_1702,X,
stim/posf.jpg,stim/negf.jpg,stim/4.jpg,stim/6.jpg,stim/latef.jpg,CD,2,4,,,,,,,,,0,31,31,31,,,,,,,,,,4,1,0.949650682325,,,,,,PLC_L_D1S1,P18,60.0221464707,01,C,2015_Feb_18_1702,X,
stim/posf.jpg,stim/negf.jpg,stim/4.jpg,stim/6.jpg,stim/latef.jpg,CD,2,4,,,,,,,,,0,32,32,33,,,,,,,,,,4,1,0.716374932519,,,,,,PLC_L_D1S1,P18,60.0221464707,01,C,2015_Feb_18_1702,X,
stim/negf.jpg,stim/posf.jpg,stim/6.jpg,stim/4.jpg,stim/latef.jpg,CD,1,2,,,,,,,,,0,33,33,28,,,,,,,,,,2,1,0.69976956865,,,,,,PLC_L_D1S1,P18,60.0221464707,01,C,2015_Feb_18_1702,X,
stim/posf.jpg,stim/negf.jpg,stim/1.jpg,stim/3.jpg,stim/latef.jpg,AB,2,4,,,,,,,,,0,34,34,12,,,,,,,,,,4,1,1.6494375922,,,,,,PLC_L_D1S1,P18,60.0221464707,01,C,2015_Feb_18_1702,X,
stim/posf.jpg,stim/negf.jpg,stim/4.jpg,stim/6.jpg,stim/latef.jpg,CD,2,4,,,,,,,,,0,35,35,35,,,,,,,,,,4,1,1.01632921858,,,,,,PLC_L_D1S1,P18,60.0221464707,01,C,2015_Feb_18_1702,X,
stim/negf.jpg,stim/posf.jpg,stim/6.jpg,stim/4.jpg,stim/latef.jpg,CD,1,2,,,,,,,,,0,36,36,27,,,,,,,,,,2,1,0.816382911407,,,,,,PLC_L_D1S1,P18,60.0221464707,01,C,2015_Feb_18_1702,X,
stim/negf.jpg,stim/posf.jpg,stim/2.jpg,stim/5.jpg,stim/latef.jpg,EF,1,2,,,,,,,,,0,37,37,49,,,,,,,,,,4,0,0.833119215644,,,,,,PLC_L_D1S1,P18,60.0221464707,01,C,2015_Feb_18_1702,X,
stim/posf.jpg,stim/negf.jpg,stim/1.jpg,stim/3.jpg,stim/latef.jpg,AB,2,4,,,,,,,,,0,38,38,10,,,,,,,,,,4,1,0.749739162864,,,,,,PLC_L_D1S1,P18,60.0221464707,01,C,2015_Feb_18_1702,X,
stim/posf.jpg,stim/negf.jpg,stim/2.jpg,stim/5.jpg,stim/latef.jpg,EF,1,2,,,,,,,,,0,39,39,40,,,,,,,,,,4,0,0.933027805806,,,,,,PLC_L_D1S1,P18,60.0221464707,01,C,2015_Feb_18_1702,X,
stim/posf.jpg,stim/negf.jpg,stim/2.jpg,stim/5.jpg,stim/latef.jpg,EF,1,2,,,,,,,,,0,40,40,43,,,,,,,,,,2,1,0.666492170734,,,,,,PLC_L_D1S1,P18,60.0221464707,01,C,2015_Feb_18_1702,X,
stim/posf.jpg,stim/negf.jpg,stim/6.jpg,stim/4.jpg,stim/latef.jpg,CD,1,2,,,,,,,,,0,41,41,26,,,,,,,,,,2,1,0.699726741903,,,,,,PLC_L_D1S1,P18,60.0221464707,01,C,2015_Feb_18_1702,X,
stim/posf.jpg,stim/negf.jpg,stim/6.jpg,stim/4.jpg,stim/latef.jpg,CD,1,2,,,,,,,,,0,42,42,24,,,,,,,,,,2,1,0.51648076631,,,,,,PLC_L_D1S1,P18,60.0221464707,01,C,2015_Feb_18_1702,X,
stim/posf.jpg,stim/negf.jpg,stim/3.jpg,stim/1.jpg,stim/latef.jpg,AB,1,2,,,,,,,,,0,43,43,0,,,,,,,,,,2,1,0.799734305758,,,,,,PLC_L_D1S1,P18,60.0221464707,01,C,2015_Feb_18_1702,X,
stim/negf.jpg,stim/posf.jpg,stim/3.jpg,stim/1.jpg,stim/latef.jpg,AB,1,2,,,,,,,,,0,44,44,9,,,,,,,,,,2,1,0.56644803573,,,,,,PLC_L_D1S1,P18,60.0221464707,01,C,2015_Feb_18_1702,X,
stim/posf.jpg,stim/negf.jpg,stim/1.jpg,stim/3.jpg,stim/latef.jpg,AB,2,4,,,,,,,,,0,45,45,17,,,,,,,,,,2,0,1.31624219668,,,,,,PLC_L_D1S1,P18,60.0221464707,01,C,2015_Feb_18_1702,X,
stim/posf.jpg,stim/negf.jpg,stim/5.jpg,stim/2.jpg,stim/latef.jpg,EF,2,4,,,,,,,,,0,46,46,52,,,,,,,,,,4,1,1.34960501049,,,,,,PLC_L_D1S1,P18,60.0221464707,01,C,2015_Feb_18_1702,X,
stim/posf.jpg,stim/negf.jpg,stim/1.jpg,stim/3.jpg,stim/latef.jpg,AB,2,4,,,,,,,,,0,47,47,13,,,,,,,,,,4,1,0.86638401215,,,,,,PLC_L_D1S1,P18,60.0221464707,01,C,2015_Feb_18_1702,X,
stim/posf.jpg,stim/negf.jpg,stim/3.jpg,stim/1.jpg,stim/latef.jpg,AB,1,2,,,,,,,,,0,48,48,2,,,,,,,,,,2,1,0.766427987759,,,,,,PLC_L_D1S1,P18,60.0221464707,01,C,2015_Feb_18_1702,X,
stim/negf.jpg,stim/posf.jpg,stim/4.jpg,stim/6.jpg,stim/latef.jpg,CD,2,4,,,,,,,,,0,49,49,39,,,,,,,,,,4,1,1.04965672739,,,,,,PLC_L_D1S1,P18,60.0221464707,01,C,2015_Feb_18_1702,X,
stim/posf.jpg,stim/negf.jpg,stim/4.jpg,stim/6.jpg,stim/latef.jpg,CD,2,4,,,,,,,,,0,50,50,32,,,,,,,,,,2,0,0.633143155315,,,,,,PLC_L_D1S1,P18,60.0221464707,01,C,2015_Feb_18_1702,X,
stim/posf.jpg,stim/negf.jpg,stim/3.jpg,stim/1.jpg,stim/latef.jpg,AB,1,2,,,,,,,,,0,51,51,4,,,,,,,,,,2,1,1.31622139984,,,,,,PLC_L_D1S1,P18,60.0221464707,01,C,2015_Feb_18_1702,X,
stim/posf.jpg,stim/negf.jpg,stim/5.jpg,stim/2.jpg,stim/latef.jpg,EF,2,4,,,,,,,,,0,52,52,54,,,,,,,,,,2,0,0.666447449268,,,,,,PLC_L_D1S1,P18,60.0221464707,01,C,2015_Feb_18_1702,X,
stim/posf.jpg,stim/negf.jpg,stim/5.jpg,stim/2.jpg,stim/latef.jpg,EF,2,4,,,,,,,,,0,53,53,50,,,,,,,,,,4,1,0.783065237103,,,,,,PLC_L_D1S1,P18,60.0221464707,01,C,2015_Feb_18_1702,X,
stim/posf.jpg,stim/negf.jpg,stim/1.jpg,stim/3.jpg,stim/latef.jpg,AB,2,4,,,,,,,,,0,54,54,14,,,,,,,,,,4,1,1.03296135217,,,,,,PLC_L_D1S1,P18,60.0221464707,01,C,2015_Feb_18_1702,X,
stim/posf.jpg,stim/negf.jpg,stim/6.jpg,stim/4.jpg,stim/latef.jpg,CD,1,2,,,,,,,,,0,55,55,21,,,,,,,,,,2,1,0.766448351516,,,,,,PLC_L_D1S1,P18,60.0221464707,01,C,2015_Feb_18_1702,X,
stim/negf.jpg,stim/posf.jpg,stim/4.jpg,stim/6.jpg,stim/latef.jpg,CD,2,4,,,,,,,,,0,56,56,37,,,,,,,,,,4,1,0.849720227667,,,,,,PLC_L_D1S1,P18,60.0221464707,01,C,2015_Feb_18_1702,X,
stim/posf.jpg,stim/negf.jpg,stim/1.jpg,stim/3.jpg,stim/latef.jpg,AB,2,4,,,,,,,,,0,57,57,16,,,,,,,,,,4,1,0.933017730693,,,,,,PLC_L_D1S1,P18,60.0221464707,01,C,2015_Feb_18_1702,X,
stim/posf.jpg,stim/negf.jpg,stim/2.jpg,stim/5.jpg,stim/latef.jpg,EF,1,2,,,,,,,,,0,58,58,44,,,,,,,,,,2,1,0.56645362065,,,,,,PLC_L_D1S1,P18,60.0221464707,01,C,2015_Feb_18_1702,X,
stim/posf.jpg,stim/negf.jpg,stim/6.jpg,stim/4.jpg,stim/latef.jpg,CD,1,2,,,,,,,,,0,59,59,20,,,,,,,,,,2,1,0.999743692151,,,,,,PLC_L_D1S1,P18,60.0221464707,01,C,2015_Feb_18_1702,X,
,,,,,,,,,,,,,,,,,,,,,,,,,,,,,,,,0.99375,0.962890625,1,0,0,PLC_L_D1S1,P18,60.0221464707,01,C,2015_Feb_18_1702,X,
stim/posf.jpg,stim/negf.jpg,stim/6.jpg,stim/4.jpg,stim/latef.jpg,CD,1,2,,,,,,,,,,,,,0,0,0,23,,,,,,2,1,0.799732402011,,,,,,PLC_L_D1S1,P18,60.0221464707,01,C,2015_Feb_18_1702,X,
stim/posf.jpg,stim/negf.jpg,stim/4.jpg,stim/6.jpg,stim/latef.jpg,CD,2,4,,,,,,,,,,,,,0,1,1,35,,,,,,4,1,0.749743767339,,,,,,PLC_L_D1S1,P18,60.0221464707,01,C,2015_Feb_18_1702,X,
stim/posf.jpg,stim/negf.jpg,stim/4.jpg,stim/6.jpg,stim/latef.jpg,CD,2,4,,,,,,,,,,,,,0,2,2,30,,,,,,4,1,0.783072891181,,,,,,PLC_L_D1S1,P18,60.0221464707,01,C,2015_Feb_18_1702,X,
stim/posf.jpg,stim/negf.jpg,stim/6.jpg,stim/4.jpg,stim/latef.jpg,CD,1,2,,,,,,,,,,,,,0,3,3,22,,,,,,2,1,0.533157937158,,,,,,PLC_L_D1S1,P18,60.0221464707,01,C,2015_Feb_18_1702,X,
stim/posf.jpg,stim/negf.jpg,stim/4.jpg,stim/6.jpg,stim/latef.jpg,CD,2,4,,,,,,,,,,,,,0,4,4,36,,,,,,4,1,0.566540516236,,,,,,PLC_L_D1S1,P18,60.0221464707,01,C,2015_Feb_18_1702,X,
stim/posf.jpg,stim/negf.jpg,stim/1.jpg,stim/3.jpg,stim/latef.jpg,AB,2,4,,,,,,,,,,,,,0,5,5,17,,,,,,4,1,1.01626963105,,,,,,PLC_L_D1S1,P18,60.0221464707,01,C,2015_Feb_18_1702,X,
stim/posf.jpg,stim/negf.jpg,stim/5.jpg,stim/2.jpg,stim/latef.jpg,EF,2,4,,,,,,,,,,,,,0,6,6,50,,,,,,4,1,0.883050283832,,,,,,PLC_L_D1S1,P18,60.0221464707,01,C,2015_Feb_18_1702,X,
stim/posf.jpg,stim/negf.jpg,stim/3.jpg,stim/1.jpg,stim/latef.jpg,AB,1,2,,,,,,,,,,,,,0,7,7,1,,,,,,2,1,0.783059240155,,,,,,PLC_L_D1S1,P18,60.0221464707,01,C,2015_Feb_18_1702,X,
stim/negf.jpg,stim/posf.jpg,stim/6.jpg,stim/4.jpg,stim/latef.jpg,CD,1,2,,,,,,,,,,,,,0,8,8,28,,,,,,2,1,0.649799667672,,,,,,PLC_L_D1S1,P18,60.0221464707,01,C,2015_Feb_18_1702,X,
stim/posf.jpg,stim/negf.jpg,stim/3.jpg,stim/1.jpg,stim/latef.jpg,AB,1,2,,,,,,,,,,,,,0,9,9,7,,,,,,4,0,0.699759740151,,,,,,PLC_L_D1S1,P18,60.0221464707,01,C,2015_Feb_18_1702,X,
stim/posf.jpg,stim/negf.jpg,stim/2.jpg,stim/5.jpg,stim/latef.jpg,EF,1,2,,,,,,,,,,,,,0,10,10,45,,,,,,4,0,1.14955583191,,,,,,PLC_L_D1S1,P18,60.0221464707,01,C,2015_Feb_18_1702,X,
stim/posf.jpg,stim/negf.jpg,stim/5.jpg,stim/2.jpg,stim/latef.jpg,EF,2,4,,,,,,,,,,,,,0,11,11,52,,,,,,4,1,0.834062357426,,,,,,PLC_L_D1S1,P18,60.0221464707,01,C,2015_Feb_18_1702,X,
stim/posf.jpg,stim/negf.jpg,stim/6.jpg,stim/4.jpg,stim/latef.jpg,CD,1,2,,,,,,,,,,,,,0,12,12,24,,,,,,2,1,0.733055928904,,,,,,PLC_L_D1S1,P18,60.0221464707,01,C,2015_Feb_18_1702,X,
stim/negf.jpg,stim/posf.jpg,stim/1.jpg,stim/3.jpg,stim/latef.jpg,AB,2,4,,,,,,,,,,,,,0,13,13,19,,,,,,4,1,0.699706293939,,,,,,PLC_L_D1S1,P18,60.0221464707,01,C,2015_Feb_18_1702,X,
stim/negf.jpg,stim/posf.jpg,stim/5.jpg,stim/2.jpg,stim/latef.jpg,EF,2,4,,,,,,,,,,,,,0,14,14,56,,,,,,2,0,1.36617310246,,,,,,PLC_L_D1S1,P18,60.0221464707,01,C,2015_Feb_18_1702,X,
stim/posf.jpg,stim/negf.jpg,stim/5.jpg,stim/2.jpg,stim/latef.jpg,EF,2,4,,,,,,,,,,,,,0,15,15,53,,,,,,2,0,0.649812248028,,,,,,PLC_L_D1S1,P18,60.0221464707,01,C,2015_Feb_18_1702,X,
stim/posf.jpg,stim/negf.jpg,stim/1.jpg,stim/3.jpg,stim/latef.jpg,AB,2,4,,,,,,,,,,,,,0,16,16,15,,,,,,4,1,1.04966895587,,,,,,PLC_L_D1S1,P18,60.0221464707,01,C,2015_Feb_18_1702,X,
stim/posf.jpg,stim/negf.jpg,stim/5.jpg,stim/2.jpg,stim/latef.jpg,EF,2,4,,,,,,,,,,,,,0,17,17,51,,,,,,4,1,1.51611072699,,,,,,PLC_L_D1S1,P18,60.0221464707,01,C,2015_Feb_18_1702,X,
stim/negf.jpg,stim/posf.jpg,stim/3.jpg,stim/1.jpg,stim/latef.jpg,AB,1,2,,,,,,,,,,,,,0,18,18,9,,,,,,2,1,1.08299711732,,,,,,PLC_L_D1S1,P18,60.0221464707,01,C,2015_Feb_18_1702,X,
stim/negf.jpg,stim/posf.jpg,stim/3.jpg,stim/1.jpg,stim/latef.jpg,AB,1,2,,,,,,,,,,,,,0,19,19,8,,,,,,4,0,1.06628495726,,,,,,PLC_L_D1S1,P18,60.0221464707,01,C,2015_Feb_18_1702,X,
stim/posf.jpg,stim/negf.jpg,stim/5.jpg,stim/2.jpg,stim/latef.jpg,EF,2,4,,,,,,,,,,,,,0,20,20,54,,,,,,4,1,1.09961788558,,,,,,PLC_L_D1S1,P18,60.0221464707,01,C,2015_Feb_18_1702,X,
stim/negf.jpg,stim/posf.jpg,stim/2.jpg,stim/5.jpg,stim/latef.jpg,EF,1,2,,,,,,,,,,,,,0,21,21,46,,,,,,2,1,0.766408411966,,,,,,PLC_L_D1S1,P18,60.0221464707,01,C,2015_Feb_18_1702,X,
stim/negf.jpg,stim/posf.jpg,stim/4.jpg,stim/6.jpg,stim/latef.jpg,CD,2,4,,,,,,,,,,,,,0,22,22,37,,,,,,4,1,0.983014530717,,,,,,PLC_L_D1S1,P18,60.0221464707,01,C,2015_Feb_18_1702,X,
stim/posf.jpg,stim/negf.jpg,stim/4.jpg,stim/6.jpg,stim/latef.jpg,CD,2,4,,,,,,,,,,,,,0,23,23,33,,,,,,2,0,1.19958151593,,,,,,PLC_L_D1S1,P18,60.0221464707,01,C,2015_Feb_18_1702,X,
stim/posf.jpg,stim/negf.jpg,stim/4.jpg,stim/6.jpg,stim/latef.jpg,CD,2,4,,,,,,,,,,,,,0,24,24,31,,,,,,4,1,0.549825685521,,,,,,PLC_L_D1S1,P18,60.0221464707,01,C,2015_Feb_18_1702,X,
stim/posf.jpg,stim/negf.jpg,stim/4.jpg,stim/6.jpg,stim/latef.jpg,CD,2,4,,,,,,,,,,,,,0,25,25,34,,,,,,4,1,0.699783986587,,,,,,PLC_L_D1S1,P18,60.0221464707,01,C,2015_Feb_18_1702,X,
stim/posf.jpg,stim/negf.jpg,stim/6.jpg,stim/4.jpg,stim/latef.jpg,CD,1,2,,,,,,,,,,,,,0,26,26,26,,,,,,2,1,0.633112554042,,,,,,PLC_L_D1S1,P18,60.0221464707,01,C,2015_Feb_18_1702,X,
stim/posf.jpg,stim/negf.jpg,stim/1.jpg,stim/3.jpg,stim/latef.jpg,AB,2,4,,,,,,,,,,,,,0,27,27,11,,,,,,4,1,0.599781117437,,,,,,PLC_L_D1S1,P18,60.0221464707,01,C,2015_Feb_18_1702,X,
stim/negf.jpg,stim/posf.jpg,stim/5.jpg,stim/2.jpg,stim/latef.jpg,EF,2,4,,,,,,,,,,,,,0,28,28,58,,,,,,4,1,0.683094445907,,,,,,PLC_L_D1S1,P18,60.0221464707,01,C,2015_Feb_18_1702,X,
stim/posf.jpg,stim/negf.jpg,stim/2.jpg,stim/5.jpg,stim/latef.jpg,EF,1,2,,,,,,,,,,,,,0,29,29,40,,,,,,4,0,1.44951810287,,,,,,PLC_L_D1S1,P18,60.0221464707,01,C,2015_Feb_18_1702,X,
stim/posf.jpg,stim/negf.jpg,stim/3.jpg,stim/1.jpg,stim/latef.jpg,AB,1,2,,,,,,,,,,,,,0,30,30,4,,,,,,2,1,1.6494644311,,,,,,PLC_L_D1S1,P18,60.0221464707,01,C,2015_Feb_18_1702,X,
stim/posf.jpg,stim/negf.jpg,stim/3.jpg,stim/1.jpg,stim/latef.jpg,AB,1,2,,,,,,,,,,,,,0,31,31,0,,,,,,2,1,0.916416613409,,,,,,PLC_L_D1S1,P18,60.0221464707,01,C,2015_Feb_18_1702,X,
stim/posf.jpg,stim/negf.jpg,stim/1.jpg,stim/3.jpg,stim/latef.jpg,AB,2,4,,,,,,,,,,,,,0,32,32,16,,,,,,4,1,0.866386953481,,,,,,PLC_L_D1S1,P18,60.0221464707,01,C,2015_Feb_18_1702,X,
stim/negf.jpg,stim/posf.jpg,stim/5.jpg,stim/2.jpg,stim/latef.jpg,EF,2,4,,,,,,,,,,,,,0,33,33,59,,,,,,2,0,1.66612241111,,,,,,PLC_L_D1S1,P18,60.0221464707,01,C,2015_Feb_18_1702,X,
stim/posf.jpg,stim/negf.jpg,stim/5.jpg,stim/2.jpg,stim/latef.jpg,EF,2,4,,,,,,,,,,,,,0,34,34,55,,,,,,2,0,0.633079540754,,,,,,PLC_L_D1S1,P18,60.0221464707,01,C,2015_Feb_18_1702,X,
stim/posf.jpg,stim/negf.jpg,stim/3.jpg,stim/1.jpg,stim/latef.jpg,AB,1,2,,,,,,,,,,,,,0,35,35,6,,,,,,2,1,0.899699370681,,,,,,PLC_L_D1S1,P18,60.0221464707,01,C,2015_Feb_18_1702,X,
stim/negf.jpg,stim/posf.jpg,stim/6.jpg,stim/4.jpg,stim/latef.jpg,CD,1,2,,,,,,,,,,,,,0,36,36,27,,,,,,2,1,0.966353248472,,,,,,PLC_L_D1S1,P18,60.0221464707,01,C,2015_Feb_18_1702,X,
stim/negf.jpg,stim/posf.jpg,stim/2.jpg,stim/5.jpg,stim/latef.jpg,EF,1,2,,,,,,,,,,,,,0,37,37,47,,,,,,2,1,0.933064298764,,,,,,PLC_L_D1S1,P18,60.0221464707,01,C,2015_Feb_18_1702,X,
stim/posf.jpg,stim/negf.jpg,stim/6.jpg,stim/4.jpg,stim/latef.jpg,CD,1,2,,,,,,,,,,,,,0,38,38,25,,,,,,2,1,0.883046491381,,,,,,PLC_L_D1S1,P18,60.0221464707,01,C,2015_Feb_18_1702,X,
stim/posf.jpg,stim/negf.jpg,stim/4.jpg,stim/6.jpg,stim/latef.jpg,CD,2,4,,,,,,,,,,,,,0,39,39,32,,,,,,4,1,1.24960771724,,,,,,PLC_L_D1S1,P18,60.0221464707,01,C,2015_Feb_18_1702,X,
stim/negf.jpg,stim/posf.jpg,stim/4.jpg,stim/6.jpg,stim/latef.jpg,CD,2,4,,,,,,,,,,,,,0,40,40,39,,,,,,4,1,0.833056401079,,,,,,PLC_L_D1S1,P18,60.0221464707,01,C,2015_Feb_18_1702,X,
stim/posf.jpg,stim/negf.jpg,stim/6.jpg,stim/4.jpg,stim/latef.jpg,CD,1,2,,,,,,,,,,,,,0,41,41,21,,,,,,2,1,0.716381142998,,,,,,PLC_L_D1S1,P18,60.0221464707,01,C,2015_Feb_18_1702,X,
stim/posf.jpg,stim/negf.jpg,stim/3.jpg,stim/1.jpg,stim/latef.jpg,AB,1,2,,,,,,,,,,,,,0,42,42,3,,,,,,2,1,0.899703957111,,,,,,PLC_L_D1S1,P18,60.0221464707,01,C,2015_Feb_18_1702,X,
stim/posf.jpg,stim/negf.jpg,stim/3.jpg,stim/1.jpg,stim/latef.jpg,AB,1,2,,,,,,,,,,,,,0,43,43,2,,,,,,2,1,0.666410372854,,,,,,PLC_L_D1S1,P18,60.0221464707,01,C,2015_Feb_18_1702,X,
stim/posf.jpg,stim/negf.jpg,stim/1.jpg,stim/3.jpg,stim/latef.jpg,AB,2,4,,,,,,,,,,,,,0,44,44,14,,,,,,4,1,0.599846007173,,,,,,PLC_L_D1S1,P18,60.0221464707,01,C,2015_Feb_18_1702,X,
stim/negf.jpg,stim/posf.jpg,stim/2.jpg,stim/5.jpg,stim/latef.jpg,EF,1,2,,,,,,,,,,,,,0,45,45,49,,,,,,4,0,1.38289102187,,,,,,PLC_L_D1S1,P18,60.0221464707,01,C,2015_Feb_18_1702,X,
stim/negf.jpg,stim/posf.jpg,stim/2.jpg,stim/5.jpg,stim/latef.jpg,EF,1,2,,,,,,,,,,,,,0,46,46,48,,,,,,4,0,0.599798894746,,,,,,PLC_L_D1S1,P18,60.0221464707,01,C,2015_Feb_18_1702,X,
stim/negf.jpg,stim/posf.jpg,stim/5.jpg,stim/2.jpg,stim/latef.jpg,EF,2,4,,,,,,,,,,,,,0,47,47,57,,,,,,2,0,0.499841459839,,,,,,PLC_L_D1S1,P18,60.0221464707,01,C,2015_Feb_18_1702,X,
stim/posf.jpg,stim/negf.jpg,stim/2.jpg,stim/5.jpg,stim/latef.jpg,EF,1,2,,,,,,,,,,,,,0,48,48,43,,,,,,4,0,0.999637768138,,,,,,PLC_L_D1S1,P18,60.0221464707,01,C,2015_Feb_18_1702,X,
stim/negf.jpg,stim/posf.jpg,stim/6.jpg,stim/4.jpg,stim/latef.jpg,CD,1,2,,,,,,,,,,,,,0,49,49,29,,,,,,2,1,0.933000837589,,,,,,PLC_L_D1S1,P18,60.0221464707,01,C,2015_Feb_18_1702,X,
stim/posf.jpg,stim/negf.jpg,stim/2.jpg,stim/5.jpg,stim/latef.jpg,EF,1,2,,,,,,,,,,,,,0,50,50,41,,,,,,2,1,0.982947283102,,,,,,PLC_L_D1S1,P18,60.0221464707,01,C,2015_Feb_18_1702,X,
stim/negf.jpg,stim/posf.jpg,stim/1.jpg,stim/3.jpg,stim/latef.jpg,AB,2,4,,,,,,,,,,,,,0,51,51,18,,,,,,4,1,0.883056777016,,,,,,PLC_L_D1S1,P18,60.0221464707,01,C,2015_Feb_18_1702,X,
stim/posf.jpg,stim/negf.jpg,stim/1.jpg,stim/3.jpg,stim/latef.jpg,AB,2,4,,,,,,,,,,,,,0,52,52,12,,,,,,None,0,,,,,,,PLC_L_D1S1,P18,60.0221464707,01,C,2015_Feb_18_1702,X,
stim/posf.jpg,stim/negf.jpg,stim/2.jpg,stim/5.jpg,stim/latef.jpg,EF,1,2,,,,,,,,,,,,,0,53,53,44,,,,,,2,1,0.649787643702,,,,,,PLC_L_D1S1,P18,60.0221464707,01,C,2015_Feb_18_1702,X,
stim/posf.jpg,stim/negf.jpg,stim/3.jpg,stim/1.jpg,stim/latef.jpg,AB,1,2,,,,,,,,,,,,,0,54,54,5,,,,,,2,1,0.566549436471,,,,,,PLC_L_D1S1,P18,60.0221464707,01,C,2015_Feb_18_1702,X,
stim/posf.jpg,stim/negf.jpg,stim/1.jpg,stim/3.jpg,stim/latef.jpg,AB,2,4,,,,,,,,,,,,,0,55,55,13,,,,,,4,1,0.766435641837,,,,,,PLC_L_D1S1,P18,60.0221464707,01,C,2015_Feb_18_1702,X,
stim/posf.jpg,stim/negf.jpg,stim/6.jpg,stim/4.jpg,stim/latef.jpg,CD,1,2,,,,,,,,,,,,,0,56,56,20,,,,,,2,1,0.633151621418,,,,,,PLC_L_D1S1,P18,60.0221464707,01,C,2015_Feb_18_1702,X,
stim/posf.jpg,stim/negf.jpg,stim/2.jpg,stim/5.jpg,stim/latef.jpg,EF,1,2,,,,,,,,,,,,,0,57,57,42,,,,,,4,0,0.749752269532,,,,,,PLC_L_D1S1,P18,60.0221464707,01,C,2015_Feb_18_1702,X,
stim/posf.jpg,stim/negf.jpg,stim/1.jpg,stim/3.jpg,stim/latef.jpg,AB,2,4,,,,,,,,,,,,,0,58,58,10,,,,,,4,1,0.766422859977,,,,,,PLC_L_D1S1,P18,60.0221464707,01,C,2015_Feb_18_1702,X,
stim/negf.jpg,stim/posf.jpg,stim/4.jpg,stim/6.jpg,stim/latef.jpg,CD,2,4,,,,,,,,,,,,,0,59,59,38,,,,,,4,1,0.866392120359,,,,,,PLC_L_D1S1,P18,60.0221464707,01,C,2015_Feb_18_1702,X,
