fb_corr,fb_incorr,symbol2,symbol1,fb_late,pair,position,correct,block_01.thisRepN,block_01.thisTrialN,block_01.thisN,block_01.thisIndex,block_02.thisRepN,block_02.thisTrialN,block_02.thisN,block_02.thisIndex,block_03.thisRepN,block_03.thisTrialN,block_03.thisN,block_03.thisIndex,block_04.thisRepN,block_04.thisTrialN,block_04.thisN,block_04.thisIndex,mouse.x,mouse.y,mouse.leftButton,mouse.midButton,mouse.rightButton,buttonBox_2.keys,buttonBox_2.corr,buttonBox_2.rt,mouse_2.x,mouse_2.y,mouse_2.leftButton,mouse_2.midButton,mouse_2.rightButton,expName,Participant,frameRate,SessionNumber,Version,date,Group,
,,,,,,,,,,,,,,,,,,,,,,,,0.9984375,1.0,1,0,0,,,,,,,,,PLC_L_D1S1,P21,60.016893835,01,A,2015_Feb_26_1545,X,
stim/posf.jpg,stim/negf.jpg,stim/1.jpg,stim/5.jpg,stim/latef.jpg,EF,2,4,0,0,0,50,,,,,,,,,,,,,,,,,,2,0,1.59950345751,,,,,,PLC_L_D1S1,P21,60.016893835,01,A,2015_Feb_26_1545,X,
stim/posf.jpg,stim/negf.jpg,stim/6.jpg,stim/3.jpg,stim/latef.jpg,CD,2,4,0,1,1,32,,,,,,,,,,,,,,,,,,4,1,1.66607886436,,,,,,PLC_L_D1S1,P21,60.016893835,01,A,2015_Feb_26_1545,X,
stim/posf.jpg,stim/negf.jpg,stim/6.jpg,stim/3.jpg,stim/latef.jpg,CD,2,4,0,2,2,35,,,,,,,,,,,,,,,,,,None,0,,,,,,,PLC_L_D1S1,P21,60.016893835,01,A,2015_Feb_26_1545,X,
stim/posf.jpg,stim/negf.jpg,stim/6.jpg,stim/3.jpg,stim/latef.jpg,CD,2,4,0,3,3,31,,,,,,,,,,,,,,,,,,4,1,1.29954461525,,,,,,PLC_L_D1S1,P21,60.016893835,01,A,2015_Feb_26_1545,X,
stim/posf.jpg,stim/negf.jpg,stim/3.jpg,stim/6.jpg,stim/latef.jpg,CD,1,2,0,4,4,20,,,,,,,,,,,,,,,,,,2,1,1.28291354694,,,,,,PLC_L_D1S1,P21,60.016893835,01,A,2015_Feb_26_1545,X,
stim/posf.jpg,stim/negf.jpg,stim/1.jpg,stim/5.jpg,stim/latef.jpg,EF,2,4,0,5,5,51,,,,,,,,,,,,,,,,,,None,0,,,,,,,PLC_L_D1S1,P21,60.016893835,01,A,2015_Feb_26_1545,X,
stim/posf.jpg,stim/negf.jpg,stim/2.jpg,stim/4.jpg,stim/latef.jpg,AB,2,4,0,6,6,10,,,,,,,,,,,,,,,,,,4,1,1.13296734674,,,,,,PLC_L_D1S1,P21,60.016893835,01,A,2015_Feb_26_1545,X,
stim/negf.jpg,stim/posf.jpg,stim/5.jpg,stim/1.jpg,stim/latef.jpg,EF,1,2,0,7,7,49,,,,,,,,,,,,,,,,,,2,1,0.916309361243,,,,,,PLC_L_D1S1,P21,60.016893835,01,A,2015_Feb_26_1545,X,
stim/posf.jpg,stim/negf.jpg,stim/6.jpg,stim/3.jpg,stim/latef.jpg,CD,2,4,0,8,8,30,,,,,,,,,,,,,,,,,,4,1,1.23291484769,,,,,,PLC_L_D1S1,P21,60.016893835,01,A,2015_Feb_26_1545,X,
stim/posf.jpg,stim/negf.jpg,stim/3.jpg,stim/6.jpg,stim/latef.jpg,CD,1,2,0,9,9,24,,,,,,,,,,,,,,,,,,4,0,1.19962982395,,,,,,PLC_L_D1S1,P21,60.016893835,01,A,2015_Feb_26_1545,X,
stim/negf.jpg,stim/posf.jpg,stim/6.jpg,stim/3.jpg,stim/latef.jpg,CD,2,4,0,10,10,39,,,,,,,,,,,,,,,,,,4,1,1.26626793734,,,,,,PLC_L_D1S1,P21,60.016893835,01,A,2015_Feb_26_1545,X,
stim/posf.jpg,stim/negf.jpg,stim/3.jpg,stim/6.jpg,stim/latef.jpg,CD,1,2,0,11,11,21,,,,,,,,,,,,,,,,,,4,0,1.48284845546,,,,,,PLC_L_D1S1,P21,60.016893835,01,A,2015_Feb_26_1545,X,
stim/posf.jpg,stim/negf.jpg,stim/4.jpg,stim/2.jpg,stim/latef.jpg,AB,1,2,0,12,12,1,,,,,,,,,,,,,,,,,,None,0,,,,,,,PLC_L_D1S1,P21,60.016893835,01,A,2015_Feb_26_1545,X,
stim/posf.jpg,stim/negf.jpg,stim/2.jpg,stim/4.jpg,stim/latef.jpg,AB,2,4,0,13,13,15,,,,,,,,,,,,,,,,,,4,1,1.24958666471,,,,,,PLC_L_D1S1,P21,60.016893835,01,A,2015_Feb_26_1545,X,
stim/posf.jpg,stim/negf.jpg,stim/4.jpg,stim/2.jpg,stim/latef.jpg,AB,1,2,0,14,14,7,,,,,,,,,,,,,,,,,,2,1,0.749762420442,,,,,,PLC_L_D1S1,P21,60.016893835,01,A,2015_Feb_26_1545,X,
stim/posf.jpg,stim/negf.jpg,stim/5.jpg,stim/1.jpg,stim/latef.jpg,EF,1,2,0,15,15,40,,,,,,,,,,,,,,,,,,2,1,1.11630711764,,,,,,PLC_L_D1S1,P21,60.016893835,01,A,2015_Feb_26_1545,X,
stim/posf.jpg,stim/negf.jpg,stim/6.jpg,stim/3.jpg,stim/latef.jpg,CD,2,4,0,16,16,34,,,,,,,,,,,,,,,,,,4,1,1.33285113063,,,,,,PLC_L_D1S1,P21,60.016893835,01,A,2015_Feb_26_1545,X,
stim/posf.jpg,stim/negf.jpg,stim/1.jpg,stim/5.jpg,stim/latef.jpg,EF,2,4,0,17,17,52,,,,,,,,,,,,,,,,,,4,1,0.999736202495,,,,,,PLC_L_D1S1,P21,60.016893835,01,A,2015_Feb_26_1545,X,
stim/negf.jpg,stim/posf.jpg,stim/3.jpg,stim/6.jpg,stim/latef.jpg,CD,1,2,0,18,18,27,,,,,,,,,,,,,,,,,,2,1,1.23297397529,,,,,,PLC_L_D1S1,P21,60.016893835,01,A,2015_Feb_26_1545,X,
stim/posf.jpg,stim/negf.jpg,stim/5.jpg,stim/1.jpg,stim/latef.jpg,EF,1,2,0,19,19,45,,,,,,,,,,,,,,,,,,None,0,,,,,,,PLC_L_D1S1,P21,60.016893835,01,A,2015_Feb_26_1545,X,
stim/posf.jpg,stim/negf.jpg,stim/6.jpg,stim/3.jpg,stim/latef.jpg,CD,2,4,0,20,20,33,,,,,,,,,,,,,,,,,,4,1,1.09962191721,,,,,,PLC_L_D1S1,P21,60.016893835,01,A,2015_Feb_26_1545,X,
stim/posf.jpg,stim/negf.jpg,stim/2.jpg,stim/4.jpg,stim/latef.jpg,AB,2,4,0,21,21,13,,,,,,,,,,,,,,,,,,4,1,1.18294502953,,,,,,PLC_L_D1S1,P21,60.016893835,01,A,2015_Feb_26_1545,X,
stim/posf.jpg,stim/negf.jpg,stim/5.jpg,stim/1.jpg,stim/latef.jpg,EF,1,2,0,22,22,43,,,,,,,,,,,,,,,,,,4,0,1.11629410716,,,,,,PLC_L_D1S1,P21,60.016893835,01,A,2015_Feb_26_1545,X,
stim/posf.jpg,stim/negf.jpg,stim/3.jpg,stim/6.jpg,stim/latef.jpg,CD,1,2,0,23,23,23,,,,,,,,,,,,,,,,,,2,1,1.23291564167,,,,,,PLC_L_D1S1,P21,60.016893835,01,A,2015_Feb_26_1545,X,
stim/posf.jpg,stim/negf.jpg,stim/4.jpg,stim/2.jpg,stim/latef.jpg,AB,1,2,0,24,24,6,,,,,,,,,,,,,,,,,,2,1,1.31619638422,,,,,,PLC_L_D1S1,P21,60.016893835,01,A,2015_Feb_26_1545,X,
stim/posf.jpg,stim/negf.jpg,stim/5.jpg,stim/1.jpg,stim/latef.jpg,EF,1,2,0,25,25,41,,,,,,,,,,,,,,,,,,2,1,1.11632177022,,,,,,PLC_L_D1S1,P21,60.016893835,01,A,2015_Feb_26_1545,X,
stim/posf.jpg,stim/negf.jpg,stim/5.jpg,stim/1.jpg,stim/latef.jpg,EF,1,2,0,26,26,42,,,,,,,,,,,,,,,,,,2,1,0.849720823606,,,,,,PLC_L_D1S1,P21,60.016893835,01,A,2015_Feb_26_1545,X,
stim/posf.jpg,stim/negf.jpg,stim/3.jpg,stim/6.jpg,stim/latef.jpg,CD,1,2,0,27,27,22,,,,,,,,,,,,,,,,,,2,1,0.966282078639,,,,,,PLC_L_D1S1,P21,60.016893835,01,A,2015_Feb_26_1545,X,
stim/negf.jpg,stim/posf.jpg,stim/5.jpg,stim/1.jpg,stim/latef.jpg,EF,1,2,0,28,28,46,,,,,,,,,,,,,,,,,,2,1,1.31621371047,,,,,,PLC_L_D1S1,P21,60.016893835,01,A,2015_Feb_26_1545,X,
stim/posf.jpg,stim/negf.jpg,stim/4.jpg,stim/2.jpg,stim/latef.jpg,AB,1,2,0,29,29,2,,,,,,,,,,,,,,,,,,2,1,1.21627956887,,,,,,PLC_L_D1S1,P21,60.016893835,01,A,2015_Feb_26_1545,X,
stim/posf.jpg,stim/negf.jpg,stim/4.jpg,stim/2.jpg,stim/latef.jpg,AB,1,2,0,30,30,4,,,,,,,,,,,,,,,,,,2,1,0.799731035598,,,,,,PLC_L_D1S1,P21,60.016893835,01,A,2015_Feb_26_1545,X,
stim/negf.jpg,stim/posf.jpg,stim/1.jpg,stim/5.jpg,stim/latef.jpg,EF,2,4,0,31,31,58,,,,,,,,,,,,,,,,,,4,1,1.3662299465,,,,,,PLC_L_D1S1,P21,60.016893835,01,A,2015_Feb_26_1545,X,
stim/posf.jpg,stim/negf.jpg,stim/2.jpg,stim/4.jpg,stim/latef.jpg,AB,2,4,0,32,32,17,,,,,,,,,,,,,,,,,,4,1,1.04964511562,,,,,,PLC_L_D1S1,P21,60.016893835,01,A,2015_Feb_26_1545,X,
stim/negf.jpg,stim/posf.jpg,stim/5.jpg,stim/1.jpg,stim/latef.jpg,EF,1,2,0,33,33,48,,,,,,,,,,,,,,,,,,4,0,0.716423372844,,,,,,PLC_L_D1S1,P21,60.016893835,01,A,2015_Feb_26_1545,X,
stim/posf.jpg,stim/negf.jpg,stim/1.jpg,stim/5.jpg,stim/latef.jpg,EF,2,4,0,34,34,54,,,,,,,,,,,,,,,,,,2,0,0.599786214338,,,,,,PLC_L_D1S1,P21,60.016893835,01,A,2015_Feb_26_1545,X,
stim/negf.jpg,stim/posf.jpg,stim/5.jpg,stim/1.jpg,stim/latef.jpg,EF,1,2,0,35,35,47,,,,,,,,,,,,,,,,,,2,1,1.18295702347,,,,,,PLC_L_D1S1,P21,60.016893835,01,A,2015_Feb_26_1545,X,
stim/posf.jpg,stim/negf.jpg,stim/2.jpg,stim/4.jpg,stim/latef.jpg,AB,2,4,0,36,36,16,,,,,,,,,,,,,,,,,,4,1,1.08303794948,,,,,,PLC_L_D1S1,P21,60.016893835,01,A,2015_Feb_26_1545,X,
stim/posf.jpg,stim/negf.jpg,stim/1.jpg,stim/5.jpg,stim/latef.jpg,EF,2,4,0,37,37,55,,,,,,,,,,,,,,,,,,None,0,,,,,,,PLC_L_D1S1,P21,60.016893835,01,A,2015_Feb_26_1545,X,
stim/negf.jpg,stim/posf.jpg,stim/4.jpg,stim/2.jpg,stim/latef.jpg,AB,1,2,0,38,38,8,,,,,,,,,,,,,,,,,,2,1,0.799734127316,,,,,,PLC_L_D1S1,P21,60.016893835,01,A,2015_Feb_26_1545,X,
stim/negf.jpg,stim/posf.jpg,stim/2.jpg,stim/4.jpg,stim/latef.jpg,AB,2,4,0,39,39,19,,,,,,,,,,,,,,,,,,2,0,1.26626277345,,,,,,PLC_L_D1S1,P21,60.016893835,01,A,2015_Feb_26_1545,X,
stim/negf.jpg,stim/posf.jpg,stim/6.jpg,stim/3.jpg,stim/latef.jpg,CD,2,4,0,40,40,37,,,,,,,,,,,,,,,,,,4,1,0.999731375446,,,,,,PLC_L_D1S1,P21,60.016893835,01,A,2015_Feb_26_1545,X,
stim/negf.jpg,stim/posf.jpg,stim/1.jpg,stim/5.jpg,stim/latef.jpg,EF,2,4,0,41,41,56,,,,,,,,,,,,,,,,,,2,0,1.34956124526,,,,,,PLC_L_D1S1,P21,60.016893835,01,A,2015_Feb_26_1545,X,
stim/negf.jpg,stim/posf.jpg,stim/3.jpg,stim/6.jpg,stim/latef.jpg,CD,1,2,0,42,42,29,,,,,,,,,,,,,,,,,,2,1,1.5328039278,,,,,,PLC_L_D1S1,P21,60.016893835,01,A,2015_Feb_26_1545,X,
stim/posf.jpg,stim/negf.jpg,stim/4.jpg,stim/2.jpg,stim/latef.jpg,AB,1,2,0,43,43,3,,,,,,,,,,,,,,,,,,2,1,1.48288243728,,,,,,PLC_L_D1S1,P21,60.016893835,01,A,2015_Feb_26_1545,X,
stim/posf.jpg,stim/negf.jpg,stim/6.jpg,stim/3.jpg,stim/latef.jpg,CD,2,4,0,44,44,36,,,,,,,,,,,,,,,,,,4,1,1.54950232819,,,,,,PLC_L_D1S1,P21,60.016893835,01,A,2015_Feb_26_1545,X,
stim/negf.jpg,stim/posf.jpg,stim/3.jpg,stim/6.jpg,stim/latef.jpg,CD,1,2,0,45,45,28,,,,,,,,,,,,,,,,,,2,1,0.666439181808,,,,,,PLC_L_D1S1,P21,60.016893835,01,A,2015_Feb_26_1545,X,
stim/posf.jpg,stim/negf.jpg,stim/1.jpg,stim/5.jpg,stim/latef.jpg,EF,2,4,0,46,46,53,,,,,,,,,,,,,,,,,,None,0,,,,,,,PLC_L_D1S1,P21,60.016893835,01,A,2015_Feb_26_1545,X,
stim/posf.jpg,stim/negf.jpg,stim/3.jpg,stim/6.jpg,stim/latef.jpg,CD,1,2,0,47,47,25,,,,,,,,,,,,,,,,,,4,0,1.29958986921,,,,,,PLC_L_D1S1,P21,60.016893835,01,A,2015_Feb_26_1545,X,
stim/posf.jpg,stim/negf.jpg,stim/2.jpg,stim/4.jpg,stim/latef.jpg,AB,2,4,0,48,48,14,,,,,,,,,,,,,,,,,,4,1,1.36621651197,,,,,,PLC_L_D1S1,P21,60.016893835,01,A,2015_Feb_26_1545,X,
stim/posf.jpg,stim/negf.jpg,stim/3.jpg,stim/6.jpg,stim/latef.jpg,CD,1,2,0,49,49,26,,,,,,,,,,,,,,,,,,None,0,,,,,,,PLC_L_D1S1,P21,60.016893835,01,A,2015_Feb_26_1545,X,
stim/posf.jpg,stim/negf.jpg,stim/2.jpg,stim/4.jpg,stim/latef.jpg,AB,2,4,0,50,50,12,,,,,,,,,,,,,,,,,,4,1,0.999674873403,,,,,,PLC_L_D1S1,P21,60.016893835,01,A,2015_Feb_26_1545,X,
stim/negf.jpg,stim/posf.jpg,stim/6.jpg,stim/3.jpg,stim/latef.jpg,CD,2,4,0,51,51,38,,,,,,,,,,,,,,,,,,2,0,0.716432939726,,,,,,PLC_L_D1S1,P21,60.016893835,01,A,2015_Feb_26_1545,X,
stim/posf.jpg,stim/negf.jpg,stim/5.jpg,stim/1.jpg,stim/latef.jpg,EF,1,2,0,52,52,44,,,,,,,,,,,,,,,,,,2,1,0.666438622412,,,,,,PLC_L_D1S1,P21,60.016893835,01,A,2015_Feb_26_1545,X,
stim/negf.jpg,stim/posf.jpg,stim/1.jpg,stim/5.jpg,stim/latef.jpg,EF,2,4,0,53,53,57,,,,,,,,,,,,,,,,,,4,1,0.699759152785,,,,,,PLC_L_D1S1,P21,60.016893835,01,A,2015_Feb_26_1545,X,
stim/negf.jpg,stim/posf.jpg,stim/1.jpg,stim/5.jpg,stim/latef.jpg,EF,2,4,0,54,54,59,,,,,,,,,,,,,,,,,,2,0,0.833061977963,,,,,,PLC_L_D1S1,P21,60.016893835,01,A,2015_Feb_26_1545,X,
stim/negf.jpg,stim/posf.jpg,stim/4.jpg,stim/2.jpg,stim/latef.jpg,AB,1,2,0,55,55,9,,,,,,,,,,,,,,,,,,2,1,0.849723265702,,,,,,PLC_L_D1S1,P21,60.016893835,01,A,2015_Feb_26_1545,X,
stim/negf.jpg,stim/posf.jpg,stim/2.jpg,stim/4.jpg,stim/latef.jpg,AB,2,4,0,56,56,18,,,,,,,,,,,,,,,,,,2,0,0.683087152304,,,,,,PLC_L_D1S1,P21,60.016893835,01,A,2015_Feb_26_1545,X,
stim/posf.jpg,stim/negf.jpg,stim/4.jpg,stim/2.jpg,stim/latef.jpg,AB,1,2,0,57,57,5,,,,,,,,,,,,,,,,,,4,0,0.799733531829,,,,,,PLC_L_D1S1,P21,60.016893835,01,A,2015_Feb_26_1545,X,
stim/posf.jpg,stim/negf.jpg,stim/4.jpg,stim/2.jpg,stim/latef.jpg,AB,1,2,0,58,58,0,,,,,,,,,,,,,,,,,,2,1,1.01635286484,,,,,,PLC_L_D1S1,P21,60.016893835,01,A,2015_Feb_26_1545,X,
stim/posf.jpg,stim/negf.jpg,stim/2.jpg,stim/4.jpg,stim/latef.jpg,AB,2,4,0,59,59,11,,,,,,,,,,,,,,,,,,2,0,1.06636697155,,,,,,PLC_L_D1S1,P21,60.016893835,01,A,2015_Feb_26_1545,X,
,,,,,,,,,,,,,,,,,,,,,,,,,,,,,,,,0.9984375,0.99609375,1,0,0,PLC_L_D1S1,P21,60.016893835,01,A,2015_Feb_26_1545,X,
stim/negf.jpg,stim/posf.jpg,stim/5.jpg,stim/1.jpg,stim/latef.jpg,EF,1,2,,,,,0,0,0,46,,,,,,,,,,,,,,2,1,1.26621613603,,,,,,PLC_L_D1S1,P21,60.016893835,01,A,2015_Feb_26_1545,X,
stim/negf.jpg,stim/posf.jpg,stim/1.jpg,stim/5.jpg,stim/latef.jpg,EF,2,4,,,,,0,1,1,59,,,,,,,,,,,,,,2,0,1.13294640547,,,,,,PLC_L_D1S1,P21,60.016893835,01,A,2015_Feb_26_1545,X,
stim/posf.jpg,stim/negf.jpg,stim/2.jpg,stim/4.jpg,stim/latef.jpg,AB,2,4,,,,,0,2,2,14,,,,,,,,,,,,,,4,1,0.983014319495,,,,,,PLC_L_D1S1,P21,60.016893835,01,A,2015_Feb_26_1545,X,
stim/posf.jpg,stim/negf.jpg,stim/4.jpg,stim/2.jpg,stim/latef.jpg,AB,1,2,,,,,0,3,3,5,,,,,,,,,,,,,,2,1,1.14964655321,,,,,,PLC_L_D1S1,P21,60.016893835,01,A,2015_Feb_26_1545,X,
stim/posf.jpg,stim/negf.jpg,stim/5.jpg,stim/1.jpg,stim/latef.jpg,EF,1,2,,,,,0,4,4,40,,,,,,,,,,,,,,2,1,1.01634169796,,,,,,PLC_L_D1S1,P21,60.016893835,01,A,2015_Feb_26_1545,X,
stim/posf.jpg,stim/negf.jpg,stim/5.jpg,stim/1.jpg,stim/latef.jpg,EF,1,2,,,,,0,5,5,45,,,,,,,,,,,,,,2,1,0.999667029823,,,,,,PLC_L_D1S1,P21,60.016893835,01,A,2015_Feb_26_1545,X,
stim/negf.jpg,stim/posf.jpg,stim/2.jpg,stim/4.jpg,stim/latef.jpg,AB,2,4,,,,,0,6,6,19,,,,,,,,,,,,,,4,1,0.783072439578,,,,,,PLC_L_D1S1,P21,60.016893835,01,A,2015_Feb_26_1545,X,
stim/posf.jpg,stim/negf.jpg,stim/4.jpg,stim/2.jpg,stim/latef.jpg,AB,1,2,,,,,0,7,7,7,,,,,,,,,,,,,,4,0,1.28284064195,,,,,,PLC_L_D1S1,P21,60.016893835,01,A,2015_Feb_26_1545,X,
stim/posf.jpg,stim/negf.jpg,stim/2.jpg,stim/4.jpg,stim/latef.jpg,AB,2,4,,,,,0,8,8,13,,,,,,,,,,,,,,4,1,0.699767988842,,,,,,PLC_L_D1S1,P21,60.016893835,01,A,2015_Feb_26_1545,X,
stim/negf.jpg,stim/posf.jpg,stim/5.jpg,stim/1.jpg,stim/latef.jpg,EF,1,2,,,,,0,9,9,49,,,,,,,,,,,,,,2,1,0.949720399547,,,,,,PLC_L_D1S1,P21,60.016893835,01,A,2015_Feb_26_1545,X,
stim/negf.jpg,stim/posf.jpg,stim/5.jpg,stim/1.jpg,stim/latef.jpg,EF,1,2,,,,,0,10,10,47,,,,,,,,,,,,,,4,0,1.01634593253,,,,,,PLC_L_D1S1,P21,60.016893835,01,A,2015_Feb_26_1545,X,
stim/posf.jpg,stim/negf.jpg,stim/4.jpg,stim/2.jpg,stim/latef.jpg,AB,1,2,,,,,0,11,11,1,,,,,,,,,,,,,,2,1,0.783076929786,,,,,,PLC_L_D1S1,P21,60.016893835,01,A,2015_Feb_26_1545,X,
stim/posf.jpg,stim/negf.jpg,stim/1.jpg,stim/5.jpg,stim/latef.jpg,EF,2,4,,,,,0,12,12,52,,,,,,,,,,,,,,2,0,0.749763945249,,,,,,PLC_L_D1S1,P21,60.016893835,01,A,2015_Feb_26_1545,X,
stim/posf.jpg,stim/negf.jpg,stim/3.jpg,stim/6.jpg,stim/latef.jpg,CD,1,2,,,,,0,13,13,23,,,,,,,,,,,,,,4,0,1.19960999846,,,,,,PLC_L_D1S1,P21,60.016893835,01,A,2015_Feb_26_1545,X,
stim/posf.jpg,stim/negf.jpg,stim/1.jpg,stim/5.jpg,stim/latef.jpg,EF,2,4,,,,,0,14,14,54,,,,,,,,,,,,,,4,1,1.38286570652,,,,,,PLC_L_D1S1,P21,60.016893835,01,A,2015_Feb_26_1545,X,
stim/negf.jpg,stim/posf.jpg,stim/1.jpg,stim/5.jpg,stim/latef.jpg,EF,2,4,,,,,0,15,15,56,,,,,,,,,,,,,,4,1,1.21627314484,,,,,,PLC_L_D1S1,P21,60.016893835,01,A,2015_Feb_26_1545,X,
stim/negf.jpg,stim/posf.jpg,stim/6.jpg,stim/3.jpg,stim/latef.jpg,CD,2,4,,,,,0,16,16,37,,,,,,,,,,,,,,4,1,1.23291923564,,,,,,PLC_L_D1S1,P21,60.016893835,01,A,2015_Feb_26_1545,X,
stim/negf.jpg,stim/posf.jpg,stim/4.jpg,stim/2.jpg,stim/latef.jpg,AB,1,2,,,,,0,17,17,8,,,,,,,,,,,,,,2,1,1.38287852752,,,,,,PLC_L_D1S1,P21,60.016893835,01,A,2015_Feb_26_1545,X,
stim/posf.jpg,stim/negf.jpg,stim/4.jpg,stim/2.jpg,stim/latef.jpg,AB,1,2,,,,,0,18,18,0,,,,,,,,,,,,,,4,0,1.36623204574,,,,,,PLC_L_D1S1,P21,60.016893835,01,A,2015_Feb_26_1545,X,
stim/negf.jpg,stim/posf.jpg,stim/1.jpg,stim/5.jpg,stim/latef.jpg,EF,2,4,,,,,0,19,19,57,,,,,,,,,,,,,,2,0,1.14962415028,,,,,,PLC_L_D1S1,P21,60.016893835,01,A,2015_Feb_26_1545,X,
stim/posf.jpg,stim/negf.jpg,stim/4.jpg,stim/2.jpg,stim/latef.jpg,AB,1,2,,,,,0,20,20,4,,,,,,,,,,,,,,4,0,1.24960813832,,,,,,PLC_L_D1S1,P21,60.016893835,01,A,2015_Feb_26_1545,X,
stim/posf.jpg,stim/negf.jpg,stim/2.jpg,stim/4.jpg,stim/latef.jpg,AB,2,4,,,,,0,21,21,11,,,,,,,,,,,,,,4,1,0.683064755395,,,,,,PLC_L_D1S1,P21,60.016893835,01,A,2015_Feb_26_1545,X,
stim/posf.jpg,stim/negf.jpg,stim/1.jpg,stim/5.jpg,stim/latef.jpg,EF,2,4,,,,,0,22,22,55,,,,,,,,,,,,,,2,0,0.683065417047,,,,,,PLC_L_D1S1,P21,60.016893835,01,A,2015_Feb_26_1545,X,
stim/posf.jpg,stim/negf.jpg,stim/3.jpg,stim/6.jpg,stim/latef.jpg,CD,1,2,,,,,0,23,23,22,,,,,,,,,,,,,,2,1,1.04970436051,,,,,,PLC_L_D1S1,P21,60.016893835,01,A,2015_Feb_26_1545,X,
stim/posf.jpg,stim/negf.jpg,stim/2.jpg,stim/4.jpg,stim/latef.jpg,AB,2,4,,,,,0,24,24,16,,,,,,,,,,,,,,4,1,1.51618401735,,,,,,PLC_L_D1S1,P21,60.016893835,01,A,2015_Feb_26_1545,X,
stim/posf.jpg,stim/negf.jpg,stim/1.jpg,stim/5.jpg,stim/latef.jpg,EF,2,4,,,,,0,25,25,50,,,,,,,,,,,,,,4,1,1.31624436901,,,,,,PLC_L_D1S1,P21,60.016893835,01,A,2015_Feb_26_1545,X,
stim/posf.jpg,stim/negf.jpg,stim/6.jpg,stim/3.jpg,stim/latef.jpg,CD,2,4,,,,,0,26,26,31,,,,,,,,,,,,,,2,0,1.19959852482,,,,,,PLC_L_D1S1,P21,60.016893835,01,A,2015_Feb_26_1545,X,
stim/posf.jpg,stim/negf.jpg,stim/2.jpg,stim/4.jpg,stim/latef.jpg,AB,2,4,,,,,0,27,27,10,,,,,,,,,,,,,,4,1,1.18293516491,,,,,,PLC_L_D1S1,P21,60.016893835,01,A,2015_Feb_26_1545,X,
stim/posf.jpg,stim/negf.jpg,stim/4.jpg,stim/2.jpg,stim/latef.jpg,AB,1,2,,,,,0,28,28,2,,,,,,,,,,,,,,2,1,1.18283121342,,,,,,PLC_L_D1S1,P21,60.016893835,01,A,2015_Feb_26_1545,X,
stim/posf.jpg,stim/negf.jpg,stim/1.jpg,stim/5.jpg,stim/latef.jpg,EF,2,4,,,,,0,29,29,53,,,,,,,,,,,,,,2,0,1.39955780918,,,,,,PLC_L_D1S1,P21,60.016893835,01,A,2015_Feb_26_1545,X,
stim/negf.jpg,stim/posf.jpg,stim/6.jpg,stim/3.jpg,stim/latef.jpg,CD,2,4,,,,,0,30,30,39,,,,,,,,,,,,,,4,1,1.08298591359,,,,,,PLC_L_D1S1,P21,60.016893835,01,A,2015_Feb_26_1545,X,
stim/posf.jpg,stim/negf.jpg,stim/6.jpg,stim/3.jpg,stim/latef.jpg,CD,2,4,,,,,0,31,31,35,,,,,,,,,,,,,,2,0,0.716466861403,,,,,,PLC_L_D1S1,P21,60.016893835,01,A,2015_Feb_26_1545,X,
stim/posf.jpg,stim/negf.jpg,stim/4.jpg,stim/2.jpg,stim/latef.jpg,AB,1,2,,,,,0,32,32,6,,,,,,,,,,,,,,None,0,,,,,,,PLC_L_D1S1,P21,60.016893835,01,A,2015_Feb_26_1545,X,
stim/negf.jpg,stim/posf.jpg,stim/5.jpg,stim/1.jpg,stim/latef.jpg,EF,1,2,,,,,0,33,33,48,,,,,,,,,,,,,,2,1,1.21627338243,,,,,,PLC_L_D1S1,P21,60.016893835,01,A,2015_Feb_26_1545,X,
stim/negf.jpg,stim/posf.jpg,stim/1.jpg,stim/5.jpg,stim/latef.jpg,EF,2,4,,,,,0,34,34,58,,,,,,,,,,,,,,None,0,,,,,,,PLC_L_D1S1,P21,60.016893835,01,A,2015_Feb_26_1545,X,
stim/posf.jpg,stim/negf.jpg,stim/1.jpg,stim/5.jpg,stim/latef.jpg,EF,2,4,,,,,0,35,35,51,,,,,,,,,,,,,,2,0,0.616432996869,,,,,,PLC_L_D1S1,P21,60.016893835,01,A,2015_Feb_26_1545,X,
stim/posf.jpg,stim/negf.jpg,stim/5.jpg,stim/1.jpg,stim/latef.jpg,EF,1,2,,,,,0,36,36,44,,,,,,,,,,,,,,4,0,0.966362833223,,,,,,PLC_L_D1S1,P21,60.016893835,01,A,2015_Feb_26_1545,X,
stim/posf.jpg,stim/negf.jpg,stim/6.jpg,stim/3.jpg,stim/latef.jpg,CD,2,4,,,,,0,37,37,33,,,,,,,,,,,,,,4,1,0.94979663084,,,,,,PLC_L_D1S1,P21,60.016893835,01,A,2015_Feb_26_1545,X,
stim/posf.jpg,stim/negf.jpg,stim/2.jpg,stim/4.jpg,stim/latef.jpg,AB,2,4,,,,,0,38,38,17,,,,,,,,,,,,,,2,0,1.18298637073,,,,,,PLC_L_D1S1,P21,60.016893835,01,A,2015_Feb_26_1545,X,
stim/posf.jpg,stim/negf.jpg,stim/3.jpg,stim/6.jpg,stim/latef.jpg,CD,1,2,,,,,0,39,39,24,,,,,,,,,,,,,,2,1,1.04965771708,,,,,,PLC_L_D1S1,P21,60.016893835,01,A,2015_Feb_26_1545,X,
stim/posf.jpg,stim/negf.jpg,stim/2.jpg,stim/4.jpg,stim/latef.jpg,AB,2,4,,,,,0,40,40,12,,,,,,,,,,,,,,4,1,1.24957996699,,,,,,PLC_L_D1S1,P21,60.016893835,01,A,2015_Feb_26_1545,X,
stim/negf.jpg,stim/posf.jpg,stim/4.jpg,stim/2.jpg,stim/latef.jpg,AB,1,2,,,,,0,41,41,9,,,,,,,,,,,,,,4,0,1.51617331965,,,,,,PLC_L_D1S1,P21,60.016893835,01,A,2015_Feb_26_1545,X,
stim/posf.jpg,stim/negf.jpg,stim/3.jpg,stim/6.jpg,stim/latef.jpg,CD,1,2,,,,,0,42,42,21,,,,,,,,,,,,,,2,1,1.03292880553,,,,,,PLC_L_D1S1,P21,60.016893835,01,A,2015_Feb_26_1545,X,
stim/posf.jpg,stim/negf.jpg,stim/5.jpg,stim/1.jpg,stim/latef.jpg,EF,1,2,,,,,0,43,43,42,,,,,,,,,,,,,,4,0,1.03298562938,,,,,,PLC_L_D1S1,P21,60.016893835,01,A,2015_Feb_26_1545,X,
stim/posf.jpg,stim/negf.jpg,stim/3.jpg,stim/6.jpg,stim/latef.jpg,CD,1,2,,,,,0,44,44,25,,,,,,,,,,,,,,2,1,0.749760979847,,,,,,PLC_L_D1S1,P21,60.016893835,01,A,2015_Feb_26_1545,X,
stim/posf.jpg,stim/negf.jpg,stim/6.jpg,stim/3.jpg,stim/latef.jpg,CD,2,4,,,,,0,45,45,34,,,,,,,,,,,,,,4,1,1.36624460209,,,,,,PLC_L_D1S1,P21,60.016893835,01,A,2015_Feb_26_1545,X,
stim/posf.jpg,stim/negf.jpg,stim/5.jpg,stim/1.jpg,stim/latef.jpg,EF,1,2,,,,,0,46,46,41,,,,,,,,,,,,,,2,1,0.583149882895,,,,,,PLC_L_D1S1,P21,60.016893835,01,A,2015_Feb_26_1545,X,
stim/negf.jpg,stim/posf.jpg,stim/2.jpg,stim/4.jpg,stim/latef.jpg,AB,2,4,,,,,0,47,47,18,,,,,,,,,,,,,,4,1,0.933026215691,,,,,,PLC_L_D1S1,P21,60.016893835,01,A,2015_Feb_26_1545,X,
stim/negf.jpg,stim/posf.jpg,stim/3.jpg,stim/6.jpg,stim/latef.jpg,CD,1,2,,,,,0,48,48,29,,,,,,,,,,,,,,2,1,1.24959392483,,,,,,PLC_L_D1S1,P21,60.016893835,01,A,2015_Feb_26_1545,X,
stim/posf.jpg,stim/negf.jpg,stim/4.jpg,stim/2.jpg,stim/latef.jpg,AB,1,2,,,,,0,49,49,3,,,,,,,,,,,,,,4,0,1.16628866809,,,,,,PLC_L_D1S1,P21,60.016893835,01,A,2015_Feb_26_1545,X,
stim/negf.jpg,stim/posf.jpg,stim/3.jpg,stim/6.jpg,stim/latef.jpg,CD,1,2,,,,,0,50,50,27,,,,,,,,,,,,,,None,0,,,,,,,PLC_L_D1S1,P21,60.016893835,01,A,2015_Feb_26_1545,X,
stim/posf.jpg,stim/negf.jpg,stim/6.jpg,stim/3.jpg,stim/latef.jpg,CD,2,4,,,,,0,51,51,30,,,,,,,,,,,,,,2,0,0.633189830114,,,,,,PLC_L_D1S1,P21,60.016893835,01,A,2015_Feb_26_1545,X,
stim/negf.jpg,stim/posf.jpg,stim/3.jpg,stim/6.jpg,stim/latef.jpg,CD,1,2,,,,,0,52,52,28,,,,,,,,,,,,,,2,1,0.816403129312,,,,,,PLC_L_D1S1,P21,60.016893835,01,A,2015_Feb_26_1545,X,
stim/posf.jpg,stim/negf.jpg,stim/3.jpg,stim/6.jpg,stim/latef.jpg,CD,1,2,,,,,0,53,53,20,,,,,,,,,,,,,,None,0,,,,,,,PLC_L_D1S1,P21,60.016893835,01,A,2015_Feb_26_1545,X,
stim/negf.jpg,stim/posf.jpg,stim/6.jpg,stim/3.jpg,stim/latef.jpg,CD,2,4,,,,,0,54,54,38,,,,,,,,,,,,,,4,1,0.833105749226,,,,,,PLC_L_D1S1,P21,60.016893835,01,A,2015_Feb_26_1545,X,
stim/posf.jpg,stim/negf.jpg,stim/6.jpg,stim/3.jpg,stim/latef.jpg,CD,2,4,,,,,0,55,55,32,,,,,,,,,,,,,,2,0,0.733048633651,,,,,,PLC_L_D1S1,P21,60.016893835,01,A,2015_Feb_26_1545,X,
stim/posf.jpg,stim/negf.jpg,stim/6.jpg,stim/3.jpg,stim/latef.jpg,CD,2,4,,,,,0,56,56,36,,,,,,,,,,,,,,2,0,0.416480226766,,,,,,PLC_L_D1S1,P21,60.016893835,01,A,2015_Feb_26_1545,X,
stim/posf.jpg,stim/negf.jpg,stim/2.jpg,stim/4.jpg,stim/latef.jpg,AB,2,4,,,,,0,57,57,15,,,,,,,,,,,,,,2,0,1.28290273796,,,,,,PLC_L_D1S1,P21,60.016893835,01,A,2015_Feb_26_1545,X,
stim/posf.jpg,stim/negf.jpg,stim/3.jpg,stim/6.jpg,stim/latef.jpg,CD,1,2,,,,,0,58,58,26,,,,,,,,,,,,,,2,1,0.883063928331,,,,,,PLC_L_D1S1,P21,60.016893835,01,A,2015_Feb_26_1545,X,
stim/posf.jpg,stim/negf.jpg,stim/5.jpg,stim/1.jpg,stim/latef.jpg,EF,1,2,,,,,0,59,59,43,,,,,,,,,,,,,,4,0,0.816409351844,,,,,,PLC_L_D1S1,P21,60.016893835,01,A,2015_Feb_26_1545,X,
,,,,,,,,,,,,,,,,,,,,,,,,,,,,,,,,0.9984375,0.99609375,1,0,0,PLC_L_D1S1,P21,60.016893835,01,A,2015_Feb_26_1545,X,
stim/negf.jpg,stim/posf.jpg,stim/1.jpg,stim/5.jpg,stim/latef.jpg,EF,2,4,,,,,,,,,0,0,0,57,,,,,,,,,,2,0,0.766418691659,,,,,,PLC_L_D1S1,P21,60.016893835,01,A,2015_Feb_26_1545,X,
stim/posf.jpg,stim/negf.jpg,stim/6.jpg,stim/3.jpg,stim/latef.jpg,CD,2,4,,,,,,,,,0,1,1,32,,,,,,,,,,4,1,0.816381562476,,,,,,PLC_L_D1S1,P21,60.016893835,01,A,2015_Feb_26_1545,X,
stim/posf.jpg,stim/negf.jpg,stim/4.jpg,stim/2.jpg,stim/latef.jpg,AB,1,2,,,,,,,,,0,2,2,4,,,,,,,,,,2,1,1.36621200071,,,,,,PLC_L_D1S1,P21,60.016893835,01,A,2015_Feb_26_1545,X,
stim/posf.jpg,stim/negf.jpg,stim/4.jpg,stim/2.jpg,stim/latef.jpg,AB,1,2,,,,,,,,,0,3,3,7,,,,,,,,,,2,1,0.849723758933,,,,,,PLC_L_D1S1,P21,60.016893835,01,A,2015_Feb_26_1545,X,
stim/posf.jpg,stim/negf.jpg,stim/5.jpg,stim/1.jpg,stim/latef.jpg,EF,1,2,,,,,,,,,0,4,4,41,,,,,,,,,,4,0,1.28287706888,,,,,,PLC_L_D1S1,P21,60.016893835,01,A,2015_Feb_26_1545,X,
stim/posf.jpg,stim/negf.jpg,stim/5.jpg,stim/1.jpg,stim/latef.jpg,EF,1,2,,,,,,,,,0,5,5,42,,,,,,,,,,2,1,1.31621399017,,,,,,PLC_L_D1S1,P21,60.016893835,01,A,2015_Feb_26_1545,X,
stim/posf.jpg,stim/negf.jpg,stim/4.jpg,stim/2.jpg,stim/latef.jpg,AB,1,2,,,,,,,,,0,6,6,5,,,,,,,,,,2,1,0.849713861227,,,,,,PLC_L_D1S1,P21,60.016893835,01,A,2015_Feb_26_1545,X,
stim/posf.jpg,stim/negf.jpg,stim/6.jpg,stim/3.jpg,stim/latef.jpg,CD,2,4,,,,,,,,,0,7,7,31,,,,,,,,,,4,1,1.23293971075,,,,,,PLC_L_D1S1,P21,60.016893835,01,A,2015_Feb_26_1545,X,
stim/posf.jpg,stim/negf.jpg,stim/1.jpg,stim/5.jpg,stim/latef.jpg,EF,2,4,,,,,,,,,0,8,8,52,,,,,,,,,,4,1,0.93304731937,,,,,,PLC_L_D1S1,P21,60.016893835,01,A,2015_Feb_26_1545,X,
stim/negf.jpg,stim/posf.jpg,stim/1.jpg,stim/5.jpg,stim/latef.jpg,EF,2,4,,,,,,,,,0,9,9,56,,,,,,,,,,4,1,0.79974410021,,,,,,PLC_L_D1S1,P21,60.016893835,01,A,2015_Feb_26_1545,X,
stim/posf.jpg,stim/negf.jpg,stim/3.jpg,stim/6.jpg,stim/latef.jpg,CD,1,2,,,,,,,,,0,10,10,20,,,,,,,,,,2,1,0.833041039696,,,,,,PLC_L_D1S1,P21,60.016893835,01,A,2015_Feb_26_1545,X,
stim/posf.jpg,stim/negf.jpg,stim/4.jpg,stim/2.jpg,stim/latef.jpg,AB,1,2,,,,,,,,,0,11,11,2,,,,,,,,,,2,1,0.733087349296,,,,,,PLC_L_D1S1,P21,60.016893835,01,A,2015_Feb_26_1545,X,
stim/posf.jpg,stim/negf.jpg,stim/4.jpg,stim/2.jpg,stim/latef.jpg,AB,1,2,,,,,,,,,0,12,12,1,,,,,,,,,,4,0,1.34959557596,,,,,,PLC_L_D1S1,P21,60.016893835,01,A,2015_Feb_26_1545,X,
stim/posf.jpg,stim/negf.jpg,stim/3.jpg,stim/6.jpg,stim/latef.jpg,CD,1,2,,,,,,,,,0,13,13,25,,,,,,,,,,2,1,0.883082262097,,,,,,PLC_L_D1S1,P21,60.016893835,01,A,2015_Feb_26_1545,X,
stim/posf.jpg,stim/negf.jpg,stim/4.jpg,stim/2.jpg,stim/latef.jpg,AB,1,2,,,,,,,,,0,14,14,3,,,,,,,,,,2,1,0.683174174533,,,,,,PLC_L_D1S1,P21,60.016893835,01,A,2015_Feb_26_1545,X,
stim/posf.jpg,stim/negf.jpg,stim/1.jpg,stim/5.jpg,stim/latef.jpg,EF,2,4,,,,,,,,,0,15,15,55,,,,,,,,,,2,0,1.11635079567,,,,,,PLC_L_D1S1,P21,60.016893835,01,A,2015_Feb_26_1545,X,
stim/posf.jpg,stim/negf.jpg,stim/2.jpg,stim/4.jpg,stim/latef.jpg,AB,2,4,,,,,,,,,0,16,16,12,,,,,,,,,,4,1,1.21627329822,,,,,,PLC_L_D1S1,P21,60.016893835,01,A,2015_Feb_26_1545,X,
stim/negf.jpg,stim/posf.jpg,stim/2.jpg,stim/4.jpg,stim/latef.jpg,AB,2,4,,,,,,,,,0,17,17,19,,,,,,,,,,4,1,1.08297810008,,,,,,PLC_L_D1S1,P21,60.016893835,01,A,2015_Feb_26_1545,X,
stim/posf.jpg,stim/negf.jpg,stim/4.jpg,stim/2.jpg,stim/latef.jpg,AB,1,2,,,,,,,,,0,18,18,0,,,,,,,,,,4,0,1.28293597393,,,,,,PLC_L_D1S1,P21,60.016893835,01,A,2015_Feb_26_1545,X,
stim/posf.jpg,stim/negf.jpg,stim/2.jpg,stim/4.jpg,stim/latef.jpg,AB,2,4,,,,,,,,,0,19,19,17,,,,,,,,,,4,1,0.733075707234,,,,,,PLC_L_D1S1,P21,60.016893835,01,A,2015_Feb_26_1545,X,
stim/posf.jpg,stim/negf.jpg,stim/6.jpg,stim/3.jpg,stim/latef.jpg,CD,2,4,,,,,,,,,0,20,20,34,,,,,,,,,,4,1,1.18290785072,,,,,,PLC_L_D1S1,P21,60.016893835,01,A,2015_Feb_26_1545,X,
stim/posf.jpg,stim/negf.jpg,stim/3.jpg,stim/6.jpg,stim/latef.jpg,CD,1,2,,,,,,,,,0,21,21,26,,,,,,,,,,2,1,0.766421263078,,,,,,PLC_L_D1S1,P21,60.016893835,01,A,2015_Feb_26_1545,X,
stim/negf.jpg,stim/posf.jpg,stim/6.jpg,stim/3.jpg,stim/latef.jpg,CD,2,4,,,,,,,,,0,22,22,39,,,,,,,,,,4,1,1.46620400374,,,,,,PLC_L_D1S1,P21,60.016893835,01,A,2015_Feb_26_1545,X,
stim/posf.jpg,stim/negf.jpg,stim/2.jpg,stim/4.jpg,stim/latef.jpg,AB,2,4,,,,,,,,,0,23,23,11,,,,,,,,,,4,1,1.4162043451,,,,,,PLC_L_D1S1,P21,60.016893835,01,A,2015_Feb_26_1545,X,
stim/negf.jpg,stim/posf.jpg,stim/6.jpg,stim/3.jpg,stim/latef.jpg,CD,2,4,,,,,,,,,0,24,24,37,,,,,,,,,,None,0,,,,,,,PLC_L_D1S1,P21,60.016893835,01,A,2015_Feb_26_1545,X,
stim/negf.jpg,stim/posf.jpg,stim/5.jpg,stim/1.jpg,stim/latef.jpg,EF,1,2,,,,,,,,,0,25,25,49,,,,,,,,,,2,1,1.08297190161,,,,,,PLC_L_D1S1,P21,60.016893835,01,A,2015_Feb_26_1545,X,
stim/negf.jpg,stim/posf.jpg,stim/5.jpg,stim/1.jpg,stim/latef.jpg,EF,1,2,,,,,,,,,0,26,26,48,,,,,,,,,,4,0,1.03301238416,,,,,,PLC_L_D1S1,P21,60.016893835,01,A,2015_Feb_26_1545,X,
stim/posf.jpg,stim/negf.jpg,stim/3.jpg,stim/6.jpg,stim/latef.jpg,CD,1,2,,,,,,,,,0,27,27,24,,,,,,,,,,4,0,1.66606896666,,,,,,PLC_L_D1S1,P21,60.016893835,01,A,2015_Feb_26_1545,X,
stim/negf.jpg,stim/posf.jpg,stim/2.jpg,stim/4.jpg,stim/latef.jpg,AB,2,4,,,,,,,,,0,28,28,18,,,,,,,,,,4,1,1.23293799347,,,,,,PLC_L_D1S1,P21,60.016893835,01,A,2015_Feb_26_1545,X,
stim/negf.jpg,stim/posf.jpg,stim/3.jpg,stim/6.jpg,stim/latef.jpg,CD,1,2,,,,,,,,,0,29,29,28,,,,,,,,,,2,1,1.53283571716,,,,,,PLC_L_D1S1,P21,60.016893835,01,A,2015_Feb_26_1545,X,
stim/posf.jpg,stim/negf.jpg,stim/3.jpg,stim/6.jpg,stim/latef.jpg,CD,1,2,,,,,,,,,0,30,30,22,,,,,,,,,,4,0,1.21627634182,,,,,,PLC_L_D1S1,P21,60.016893835,01,A,2015_Feb_26_1545,X,
stim/negf.jpg,stim/posf.jpg,stim/1.jpg,stim/5.jpg,stim/latef.jpg,EF,2,4,,,,,,,,,0,31,31,59,,,,,,,,,,2,0,0.982986045918,,,,,,PLC_L_D1S1,P21,60.016893835,01,A,2015_Feb_26_1545,X,
stim/posf.jpg,stim/negf.jpg,stim/5.jpg,stim/1.jpg,stim/latef.jpg,EF,1,2,,,,,,,,,0,32,32,45,,,,,,,,,,2,1,1.26626791929,,,,,,PLC_L_D1S1,P21,60.016893835,01,A,2015_Feb_26_1545,X,
stim/posf.jpg,stim/negf.jpg,stim/1.jpg,stim/5.jpg,stim/latef.jpg,EF,2,4,,,,,,,,,0,33,33,50,,,,,,,,,,2,0,1.58280586013,,,,,,PLC_L_D1S1,P21,60.016893835,01,A,2015_Feb_26_1545,X,
stim/negf.jpg,stim/posf.jpg,stim/3.jpg,stim/6.jpg,stim/latef.jpg,CD,1,2,,,,,,,,,0,34,34,27,,,,,,,,,,2,1,1.44952852057,,,,,,PLC_L_D1S1,P21,60.016893835,01,A,2015_Feb_26_1545,X,
stim/negf.jpg,stim/posf.jpg,stim/3.jpg,stim/6.jpg,stim/latef.jpg,CD,1,2,,,,,,,,,0,35,35,29,,,,,,,,,,4,0,1.09968825982,,,,,,PLC_L_D1S1,P21,60.016893835,01,A,2015_Feb_26_1545,X,
stim/posf.jpg,stim/negf.jpg,stim/4.jpg,stim/2.jpg,stim/latef.jpg,AB,1,2,,,,,,,,,0,36,36,6,,,,,,,,,,4,0,1.04966712757,,,,,,PLC_L_D1S1,P21,60.016893835,01,A,2015_Feb_26_1545,X,
stim/negf.jpg,stim/posf.jpg,stim/5.jpg,stim/1.jpg,stim/latef.jpg,EF,1,2,,,,,,,,,0,37,37,46,,,,,,,,,,4,0,1.29957735497,,,,,,PLC_L_D1S1,P21,60.016893835,01,A,2015_Feb_26_1545,X,
stim/posf.jpg,stim/negf.jpg,stim/6.jpg,stim/3.jpg,stim/latef.jpg,CD,2,4,,,,,,,,,0,38,38,33,,,,,,,,,,2,0,1.09963725249,,,,,,PLC_L_D1S1,P21,60.016893835,01,A,2015_Feb_26_1545,X,
stim/negf.jpg,stim/posf.jpg,stim/4.jpg,stim/2.jpg,stim/latef.jpg,AB,1,2,,,,,,,,,0,39,39,9,,,,,,,,,,4,0,1.21629289514,,,,,,PLC_L_D1S1,P21,60.016893835,01,A,2015_Feb_26_1545,X,
stim/posf.jpg,stim/negf.jpg,stim/5.jpg,stim/1.jpg,stim/latef.jpg,EF,1,2,,,,,,,,,0,40,40,43,,,,,,,,,,4,0,0.966353897918,,,,,,PLC_L_D1S1,P21,60.016893835,01,A,2015_Feb_26_1545,X,
stim/posf.jpg,stim/negf.jpg,stim/5.jpg,stim/1.jpg,stim/latef.jpg,EF,1,2,,,,,,,,,0,41,41,40,,,,,,,,,,4,0,1.21628237789,,,,,,PLC_L_D1S1,P21,60.016893835,01,A,2015_Feb_26_1545,X,
stim/posf.jpg,stim/negf.jpg,stim/3.jpg,stim/6.jpg,stim/latef.jpg,CD,1,2,,,,,,,,,0,42,42,21,,,,,,,,,,2,1,1.03299593009,,,,,,PLC_L_D1S1,P21,60.016893835,01,A,2015_Feb_26_1545,X,
stim/posf.jpg,stim/negf.jpg,stim/6.jpg,stim/3.jpg,stim/latef.jpg,CD,2,4,,,,,,,,,0,43,43,36,,,,,,,,,,4,1,0.999671336574,,,,,,PLC_L_D1S1,P21,60.016893835,01,A,2015_Feb_26_1545,X,
stim/posf.jpg,stim/negf.jpg,stim/3.jpg,stim/6.jpg,stim/latef.jpg,CD,1,2,,,,,,,,,0,44,44,23,,,,,,,,,,2,1,0.899709952971,,,,,,PLC_L_D1S1,P21,60.016893835,01,A,2015_Feb_26_1545,X,
stim/posf.jpg,stim/negf.jpg,stim/2.jpg,stim/4.jpg,stim/latef.jpg,AB,2,4,,,,,,,,,0,45,45,10,,,,,,,,,,4,1,1.33289020116,,,,,,PLC_L_D1S1,P21,60.016893835,01,A,2015_Feb_26_1545,X,
stim/posf.jpg,stim/negf.jpg,stim/2.jpg,stim/4.jpg,stim/latef.jpg,AB,2,4,,,,,,,,,0,46,46,16,,,,,,,,,,4,1,0.98300416615,,,,,,PLC_L_D1S1,P21,60.016893835,01,A,2015_Feb_26_1545,X,
stim/negf.jpg,stim/posf.jpg,stim/1.jpg,stim/5.jpg,stim/latef.jpg,EF,2,4,,,,,,,,,0,47,47,58,,,,,,,,,,2,0,1.14963463446,,,,,,PLC_L_D1S1,P21,60.016893835,01,A,2015_Feb_26_1545,X,
stim/negf.jpg,stim/posf.jpg,stim/5.jpg,stim/1.jpg,stim/latef.jpg,EF,1,2,,,,,,,,,0,48,48,47,,,,,,,,,,4,0,1.51611262815,,,,,,PLC_L_D1S1,P21,60.016893835,01,A,2015_Feb_26_1545,X,
stim/negf.jpg,stim/posf.jpg,stim/6.jpg,stim/3.jpg,stim/latef.jpg,CD,2,4,,,,,,,,,0,49,49,38,,,,,,,,,,4,1,1.33289254702,,,,,,PLC_L_D1S1,P21,60.016893835,01,A,2015_Feb_26_1545,X,
stim/negf.jpg,stim/posf.jpg,stim/4.jpg,stim/2.jpg,stim/latef.jpg,AB,1,2,,,,,,,,,0,50,50,8,,,,,,,,,,None,0,,,,,,,PLC_L_D1S1,P21,60.016893835,01,A,2015_Feb_26_1545,X,
stim/posf.jpg,stim/negf.jpg,stim/2.jpg,stim/4.jpg,stim/latef.jpg,AB,2,4,,,,,,,,,0,51,51,15,,,,,,,,,,4,1,0.549821391649,,,,,,PLC_L_D1S1,P21,60.016893835,01,A,2015_Feb_26_1545,X,
stim/posf.jpg,stim/negf.jpg,stim/2.jpg,stim/4.jpg,stim/latef.jpg,AB,2,4,,,,,,,,,0,52,52,13,,,,,,,,,,4,1,1.1662924786,,,,,,PLC_L_D1S1,P21,60.016893835,01,A,2015_Feb_26_1545,X,
stim/posf.jpg,stim/negf.jpg,stim/2.jpg,stim/4.jpg,stim/latef.jpg,AB,2,4,,,,,,,,,0,53,53,14,,,,,,,,,,4,1,0.566489154552,,,,,,PLC_L_D1S1,P21,60.016893835,01,A,2015_Feb_26_1545,X,
stim/posf.jpg,stim/negf.jpg,stim/1.jpg,stim/5.jpg,stim/latef.jpg,EF,2,4,,,,,,,,,0,54,54,51,,,,,,,,,,2,0,0.999726277721,,,,,,PLC_L_D1S1,P21,60.016893835,01,A,2015_Feb_26_1545,X,
stim/posf.jpg,stim/negf.jpg,stim/5.jpg,stim/1.jpg,stim/latef.jpg,EF,1,2,,,,,,,,,0,55,55,44,,,,,,,,,,2,1,0.74971938301,,,,,,PLC_L_D1S1,P21,60.016893835,01,A,2015_Feb_26_1545,X,
stim/posf.jpg,stim/negf.jpg,stim/6.jpg,stim/3.jpg,stim/latef.jpg,CD,2,4,,,,,,,,,0,56,56,30,,,,,,,,,,4,1,1.28285312612,,,,,,PLC_L_D1S1,P21,60.016893835,01,A,2015_Feb_26_1545,X,
stim/posf.jpg,stim/negf.jpg,stim/1.jpg,stim/5.jpg,stim/latef.jpg,EF,2,4,,,,,,,,,0,57,57,54,,,,,,,,,,4,1,0.933017307453,,,,,,PLC_L_D1S1,P21,60.016893835,01,A,2015_Feb_26_1545,X,
stim/posf.jpg,stim/negf.jpg,stim/6.jpg,stim/3.jpg,stim/latef.jpg,CD,2,4,,,,,,,,,0,58,58,35,,,,,,,,,,4,1,0.749769415904,,,,,,PLC_L_D1S1,P21,60.016893835,01,A,2015_Feb_26_1545,X,
stim/posf.jpg,stim/negf.jpg,stim/1.jpg,stim/5.jpg,stim/latef.jpg,EF,2,4,,,,,,,,,0,59,59,53,,,,,,,,,,4,1,1.01633050402,,,,,,PLC_L_D1S1,P21,60.016893835,01,A,2015_Feb_26_1545,X,
,,,,,,,,,,,,,,,,,,,,,,,,,,,,,,,,0.9984375,0.99609375,1,0,0,PLC_L_D1S1,P21,60.016893835,01,A,2015_Feb_26_1545,X,
stim/posf.jpg,stim/negf.jpg,stim/3.jpg,stim/6.jpg,stim/latef.jpg,CD,1,2,,,,,,,,,,,,,0,0,0,26,,,,,,2,1,1.03301166537,,,,,,PLC_L_D1S1,P21,60.016893835,01,A,2015_Feb_26_1545,X,
stim/negf.jpg,stim/posf.jpg,stim/6.jpg,stim/3.jpg,stim/latef.jpg,CD,2,4,,,,,,,,,,,,,0,1,1,39,,,,,,4,1,0.833022859312,,,,,,PLC_L_D1S1,P21,60.016893835,01,A,2015_Feb_26_1545,X,
stim/negf.jpg,stim/posf.jpg,stim/1.jpg,stim/5.jpg,stim/latef.jpg,EF,2,4,,,,,,,,,,,,,0,2,2,57,,,,,,4,1,0.949659073462,,,,,,PLC_L_D1S1,P21,60.016893835,01,A,2015_Feb_26_1545,X,
stim/posf.jpg,stim/negf.jpg,stim/1.jpg,stim/5.jpg,stim/latef.jpg,EF,2,4,,,,,,,,,,,,,0,3,3,54,,,,,,2,0,0.683043820136,,,,,,PLC_L_D1S1,P21,60.016893835,01,A,2015_Feb_26_1545,X,
stim/negf.jpg,stim/posf.jpg,stim/1.jpg,stim/5.jpg,stim/latef.jpg,EF,2,4,,,,,,,,,,,,,0,4,4,59,,,,,,4,1,0.999677859858,,,,,,PLC_L_D1S1,P21,60.016893835,01,A,2015_Feb_26_1545,X,
stim/posf.jpg,stim/negf.jpg,stim/3.jpg,stim/6.jpg,stim/latef.jpg,CD,1,2,,,,,,,,,,,,,0,5,5,25,,,,,,4,0,1.01634014008,,,,,,PLC_L_D1S1,P21,60.016893835,01,A,2015_Feb_26_1545,X,
stim/negf.jpg,stim/posf.jpg,stim/3.jpg,stim/6.jpg,stim/latef.jpg,CD,1,2,,,,,,,,,,,,,0,6,6,29,,,,,,2,1,0.899706151481,,,,,,PLC_L_D1S1,P21,60.016893835,01,A,2015_Feb_26_1545,X,
stim/negf.jpg,stim/posf.jpg,stim/5.jpg,stim/1.jpg,stim/latef.jpg,EF,1,2,,,,,,,,,,,,,0,7,7,49,,,,,,4,0,1.18296347457,,,,,,PLC_L_D1S1,P21,60.016893835,01,A,2015_Feb_26_1545,X,
stim/posf.jpg,stim/negf.jpg,stim/3.jpg,stim/6.jpg,stim/latef.jpg,CD,1,2,,,,,,,,,,,,,0,8,8,20,,,,,,4,0,1.06631214168,,,,,,PLC_L_D1S1,P21,60.016893835,01,A,2015_Feb_26_1545,X,
stim/posf.jpg,stim/negf.jpg,stim/1.jpg,stim/5.jpg,stim/latef.jpg,EF,2,4,,,,,,,,,,,,,0,9,9,53,,,,,,2,0,0.966293377845,,,,,,PLC_L_D1S1,P21,60.016893835,01,A,2015_Feb_26_1545,X,
stim/posf.jpg,stim/negf.jpg,stim/3.jpg,stim/6.jpg,stim/latef.jpg,CD,1,2,,,,,,,,,,,,,0,10,10,22,,,,,,2,1,0.816388666208,,,,,,PLC_L_D1S1,P21,60.016893835,01,A,2015_Feb_26_1545,X,
stim/negf.jpg,stim/posf.jpg,stim/3.jpg,stim/6.jpg,stim/latef.jpg,CD,1,2,,,,,,,,,,,,,0,11,11,27,,,,,,2,1,0.916327740121,,,,,,PLC_L_D1S1,P21,60.016893835,01,A,2015_Feb_26_1545,X,
stim/posf.jpg,stim/negf.jpg,stim/5.jpg,stim/1.jpg,stim/latef.jpg,EF,1,2,,,,,,,,,,,,,0,12,12,44,,,,,,2,1,1.28288230495,,,,,,PLC_L_D1S1,P21,60.016893835,01,A,2015_Feb_26_1545,X,
stim/posf.jpg,stim/negf.jpg,stim/4.jpg,stim/2.jpg,stim/latef.jpg,AB,1,2,,,,,,,,,,,,,0,13,13,3,,,,,,4,0,1.04967260725,,,,,,PLC_L_D1S1,P21,60.016893835,01,A,2015_Feb_26_1545,X,
stim/posf.jpg,stim/negf.jpg,stim/5.jpg,stim/1.jpg,stim/latef.jpg,EF,1,2,,,,,,,,,,,,,0,14,14,45,,,,,,2,1,1.26624850282,,,,,,PLC_L_D1S1,P21,60.016893835,01,A,2015_Feb_26_1545,X,
stim/posf.jpg,stim/negf.jpg,stim/6.jpg,stim/3.jpg,stim/latef.jpg,CD,2,4,,,,,,,,,,,,,0,15,15,32,,,,,,4,1,1.16625210281,,,,,,PLC_L_D1S1,P21,60.016893835,01,A,2015_Feb_26_1545,X,
stim/negf.jpg,stim/posf.jpg,stim/5.jpg,stim/1.jpg,stim/latef.jpg,EF,1,2,,,,,,,,,,,,,0,16,16,48,,,,,,2,1,1.2496031639,,,,,,PLC_L_D1S1,P21,60.016893835,01,A,2015_Feb_26_1545,X,
stim/posf.jpg,stim/negf.jpg,stim/5.jpg,stim/1.jpg,stim/latef.jpg,EF,1,2,,,,,,,,,,,,,0,17,17,41,,,,,,4,0,0.982977558731,,,,,,PLC_L_D1S1,P21,60.016893835,01,A,2015_Feb_26_1545,X,
stim/negf.jpg,stim/posf.jpg,stim/6.jpg,stim/3.jpg,stim/latef.jpg,CD,2,4,,,,,,,,,,,,,0,18,18,37,,,,,,4,1,0.58312062887,,,,,,PLC_L_D1S1,P21,60.016893835,01,A,2015_Feb_26_1545,X,
stim/posf.jpg,stim/negf.jpg,stim/2.jpg,stim/4.jpg,stim/latef.jpg,AB,2,4,,,,,,,,,,,,,0,19,19,17,,,,,,4,1,1.08297070763,,,,,,PLC_L_D1S1,P21,60.016893835,01,A,2015_Feb_26_1545,X,
stim/posf.jpg,stim/negf.jpg,stim/2.jpg,stim/4.jpg,stim/latef.jpg,AB,2,4,,,,,,,,,,,,,0,20,20,13,,,,,,4,1,0.883038749478,,,,,,PLC_L_D1S1,P21,60.016893835,01,A,2015_Feb_26_1545,X,
stim/posf.jpg,stim/negf.jpg,stim/6.jpg,stim/3.jpg,stim/latef.jpg,CD,2,4,,,,,,,,,,,,,0,21,21,35,,,,,,2,0,0.699833964533,,,,,,PLC_L_D1S1,P21,60.016893835,01,A,2015_Feb_26_1545,X,
stim/posf.jpg,stim/negf.jpg,stim/4.jpg,stim/2.jpg,stim/latef.jpg,AB,1,2,,,,,,,,,,,,,0,22,22,4,,,,,,2,1,0.899731378453,,,,,,PLC_L_D1S1,P21,60.016893835,01,A,2015_Feb_26_1545,X,
stim/posf.jpg,stim/negf.jpg,stim/3.jpg,stim/6.jpg,stim/latef.jpg,CD,1,2,,,,,,,,,,,,,0,23,23,23,,,,,,2,1,0.516493044763,,,,,,PLC_L_D1S1,P21,60.016893835,01,A,2015_Feb_26_1545,X,
stim/posf.jpg,stim/negf.jpg,stim/3.jpg,stim/6.jpg,stim/latef.jpg,CD,1,2,,,,,,,,,,,,,0,24,24,21,,,,,,2,1,0.966340833305,,,,,,PLC_L_D1S1,P21,60.016893835,01,A,2015_Feb_26_1545,X,
stim/posf.jpg,stim/negf.jpg,stim/1.jpg,stim/5.jpg,stim/latef.jpg,EF,2,4,,,,,,,,,,,,,0,25,25,55,,,,,,4,1,0.966372093338,,,,,,PLC_L_D1S1,P21,60.016893835,01,A,2015_Feb_26_1545,X,
stim/posf.jpg,stim/negf.jpg,stim/1.jpg,stim/5.jpg,stim/latef.jpg,EF,2,4,,,,,,,,,,,,,0,26,26,52,,,,,,4,1,1.08297971812,,,,,,PLC_L_D1S1,P21,60.016893835,01,A,2015_Feb_26_1545,X,
stim/negf.jpg,stim/posf.jpg,stim/1.jpg,stim/5.jpg,stim/latef.jpg,EF,2,4,,,,,,,,,,,,,0,27,27,58,,,,,,4,1,0.749755993398,,,,,,PLC_L_D1S1,P21,60.016893835,01,A,2015_Feb_26_1545,X,
stim/negf.jpg,stim/posf.jpg,stim/4.jpg,stim/2.jpg,stim/latef.jpg,AB,1,2,,,,,,,,,,,,,0,28,28,8,,,,,,2,1,0.749751277627,,,,,,PLC_L_D1S1,P21,60.016893835,01,A,2015_Feb_26_1545,X,
stim/negf.jpg,stim/posf.jpg,stim/2.jpg,stim/4.jpg,stim/latef.jpg,AB,2,4,,,,,,,,,,,,,0,29,29,19,,,,,,2,0,1.44948163052,,,,,,PLC_L_D1S1,P21,60.016893835,01,A,2015_Feb_26_1545,X,
stim/posf.jpg,stim/negf.jpg,stim/1.jpg,stim/5.jpg,stim/latef.jpg,EF,2,4,,,,,,,,,,,,,0,30,30,51,,,,,,2,0,0.699750740787,,,,,,PLC_L_D1S1,P21,60.016893835,01,A,2015_Feb_26_1545,X,
stim/negf.jpg,stim/posf.jpg,stim/1.jpg,stim/5.jpg,stim/latef.jpg,EF,2,4,,,,,,,,,,,,,0,31,31,56,,,,,,4,1,1.33285854414,,,,,,PLC_L_D1S1,P21,60.016893835,01,A,2015_Feb_26_1545,X,
stim/posf.jpg,stim/negf.jpg,stim/4.jpg,stim/2.jpg,stim/latef.jpg,AB,1,2,,,,,,,,,,,,,0,32,32,7,,,,,,4,0,1.2496023639,,,,,,PLC_L_D1S1,P21,60.016893835,01,A,2015_Feb_26_1545,X,
stim/posf.jpg,stim/negf.jpg,stim/4.jpg,stim/2.jpg,stim/latef.jpg,AB,1,2,,,,,,,,,,,,,0,33,33,1,,,,,,2,1,0.89975217236,,,,,,PLC_L_D1S1,P21,60.016893835,01,A,2015_Feb_26_1545,X,
stim/posf.jpg,stim/negf.jpg,stim/2.jpg,stim/4.jpg,stim/latef.jpg,AB,2,4,,,,,,,,,,,,,0,34,34,15,,,,,,4,1,1.33289569889,,,,,,PLC_L_D1S1,P21,60.016893835,01,A,2015_Feb_26_1545,X,
stim/posf.jpg,stim/negf.jpg,stim/6.jpg,stim/3.jpg,stim/latef.jpg,CD,2,4,,,,,,,,,,,,,0,35,35,36,,,,,,4,1,0.799726873207,,,,,,PLC_L_D1S1,P21,60.016893835,01,A,2015_Feb_26_1545,X,
stim/posf.jpg,stim/negf.jpg,stim/2.jpg,stim/4.jpg,stim/latef.jpg,AB,2,4,,,,,,,,,,,,,0,36,36,16,,,,,,4,1,1.23296666404,,,,,,PLC_L_D1S1,P21,60.016893835,01,A,2015_Feb_26_1545,X,
stim/negf.jpg,stim/posf.jpg,stim/5.jpg,stim/1.jpg,stim/latef.jpg,EF,1,2,,,,,,,,,,,,,0,37,37,46,,,,,,4,0,1.23290110338,,,,,,PLC_L_D1S1,P21,60.016893835,01,A,2015_Feb_26_1545,X,
stim/negf.jpg,stim/posf.jpg,stim/5.jpg,stim/1.jpg,stim/latef.jpg,EF,1,2,,,,,,,,,,,,,0,38,38,47,,,,,,4,0,1.11626710877,,,,,,PLC_L_D1S1,P21,60.016893835,01,A,2015_Feb_26_1545,X,
stim/negf.jpg,stim/posf.jpg,stim/2.jpg,stim/4.jpg,stim/latef.jpg,AB,2,4,,,,,,,,,,,,,0,39,39,18,,,,,,4,1,0.716421736761,,,,,,PLC_L_D1S1,P21,60.016893835,01,A,2015_Feb_26_1545,X,
stim/posf.jpg,stim/negf.jpg,stim/6.jpg,stim/3.jpg,stim/latef.jpg,CD,2,4,,,,,,,,,,,,,0,40,40,33,,,,,,4,1,1.38292480404,,,,,,PLC_L_D1S1,P21,60.016893835,01,A,2015_Feb_26_1545,X,
stim/posf.jpg,stim/negf.jpg,stim/5.jpg,stim/1.jpg,stim/latef.jpg,EF,1,2,,,,,,,,,,,,,0,41,41,42,,,,,,4,0,1.34955620468,,,,,,PLC_L_D1S1,P21,60.016893835,01,A,2015_Feb_26_1545,X,
stim/posf.jpg,stim/negf.jpg,stim/6.jpg,stim/3.jpg,stim/latef.jpg,CD,2,4,,,,,,,,,,,,,0,42,42,34,,,,,,4,1,1.4328292029,,,,,,PLC_L_D1S1,P21,60.016893835,01,A,2015_Feb_26_1545,X,
stim/posf.jpg,stim/negf.jpg,stim/4.jpg,stim/2.jpg,stim/latef.jpg,AB,1,2,,,,,,,,,,,,,0,43,43,0,,,,,,4,0,1.09964863891,,,,,,PLC_L_D1S1,P21,60.016893835,01,A,2015_Feb_26_1545,X,
stim/posf.jpg,stim/negf.jpg,stim/3.jpg,stim/6.jpg,stim/latef.jpg,CD,1,2,,,,,,,,,,,,,0,44,44,24,,,,,,4,0,0.866408421021,,,,,,PLC_L_D1S1,P21,60.016893835,01,A,2015_Feb_26_1545,X,
stim/posf.jpg,stim/negf.jpg,stim/2.jpg,stim/4.jpg,stim/latef.jpg,AB,2,4,,,,,,,,,,,,,0,45,45,11,,,,,,2,0,1.36616658734,,,,,,PLC_L_D1S1,P21,60.016893835,01,A,2015_Feb_26_1545,X,
stim/posf.jpg,stim/negf.jpg,stim/5.jpg,stim/1.jpg,stim/latef.jpg,EF,1,2,,,,,,,,,,,,,0,46,46,40,,,,,,4,0,1.33289402972,,,,,,PLC_L_D1S1,P21,60.016893835,01,A,2015_Feb_26_1545,X,
stim/posf.jpg,stim/negf.jpg,stim/4.jpg,stim/2.jpg,stim/latef.jpg,AB,1,2,,,,,,,,,,,,,0,47,47,6,,,,,,2,1,0.83307919895,,,,,,PLC_L_D1S1,P21,60.016893835,01,A,2015_Feb_26_1545,X,
stim/posf.jpg,stim/negf.jpg,stim/2.jpg,stim/4.jpg,stim/latef.jpg,AB,2,4,,,,,,,,,,,,,0,48,48,10,,,,,,4,1,0.96636331743,,,,,,PLC_L_D1S1,P21,60.016893835,01,A,2015_Feb_26_1545,X,
stim/posf.jpg,stim/negf.jpg,stim/6.jpg,stim/3.jpg,stim/latef.jpg,CD,2,4,,,,,,,,,,,,,0,49,49,31,,,,,,4,1,0.866397945872,,,,,,PLC_L_D1S1,P21,60.016893835,01,A,2015_Feb_26_1545,X,
stim/posf.jpg,stim/negf.jpg,stim/2.jpg,stim/4.jpg,stim/latef.jpg,AB,2,4,,,,,,,,,,,,,0,50,50,12,,,,,,4,1,1.04965477273,,,,,,PLC_L_D1S1,P21,60.016893835,01,A,2015_Feb_26_1545,X,
stim/posf.jpg,stim/negf.jpg,stim/1.jpg,stim/5.jpg,stim/latef.jpg,EF,2,4,,,,,,,,,,,,,0,51,51,50,,,,,,4,1,1.21630943643,,,,,,PLC_L_D1S1,P21,60.016893835,01,A,2015_Feb_26_1545,X,
stim/posf.jpg,stim/negf.jpg,stim/6.jpg,stim/3.jpg,stim/latef.jpg,CD,2,4,,,,,,,,,,,,,0,52,52,30,,,,,,4,1,1.09958820907,,,,,,PLC_L_D1S1,P21,60.016893835,01,A,2015_Feb_26_1545,X,
stim/negf.jpg,stim/posf.jpg,stim/4.jpg,stim/2.jpg,stim/latef.jpg,AB,1,2,,,,,,,,,,,,,0,53,53,9,,,,,,2,1,0.849748898689,,,,,,PLC_L_D1S1,P21,60.016893835,01,A,2015_Feb_26_1545,X,
stim/negf.jpg,stim/posf.jpg,stim/3.jpg,stim/6.jpg,stim/latef.jpg,CD,1,2,,,,,,,,,,,,,0,54,54,28,,,,,,None,0,,,,,,,PLC_L_D1S1,P21,60.016893835,01,A,2015_Feb_26_1545,X,
stim/posf.jpg,stim/negf.jpg,stim/5.jpg,stim/1.jpg,stim/latef.jpg,EF,1,2,,,,,,,,,,,,,0,55,55,43,,,,,,2,1,0.916327292002,,,,,,PLC_L_D1S1,P21,60.016893835,01,A,2015_Feb_26_1545,X,
stim/posf.jpg,stim/negf.jpg,stim/2.jpg,stim/4.jpg,stim/latef.jpg,AB,2,4,,,,,,,,,,,,,0,56,56,14,,,,,,4,1,1.39953281379,,,,,,PLC_L_D1S1,P21,60.016893835,01,A,2015_Feb_26_1545,X,
stim/negf.jpg,stim/posf.jpg,stim/6.jpg,stim/3.jpg,stim/latef.jpg,CD,2,4,,,,,,,,,,,,,0,57,57,38,,,,,,4,1,0.949676947079,,,,,,PLC_L_D1S1,P21,60.016893835,01,A,2015_Feb_26_1545,X,
stim/posf.jpg,stim/negf.jpg,stim/4.jpg,stim/2.jpg,stim/latef.jpg,AB,1,2,,,,,,,,,,,,,0,58,58,2,,,,,,2,1,0.933002417284,,,,,,PLC_L_D1S1,P21,60.016893835,01,A,2015_Feb_26_1545,X,
stim/posf.jpg,stim/negf.jpg,stim/4.jpg,stim/2.jpg,stim/latef.jpg,AB,1,2,,,,,,,,,,,,,0,59,59,5,,,,,,2,1,0.899657691512,,,,,,PLC_L_D1S1,P21,60.016893835,01,A,2015_Feb_26_1545,X,
