fb_corr,fb_incorr,symbol2,symbol1,fb_late,pair,position,correct,block_01.thisRepN,block_01.thisTrialN,block_01.thisN,block_01.thisIndex,block_02.thisRepN,block_02.thisTrialN,block_02.thisN,block_02.thisIndex,block_03.thisRepN,block_03.thisTrialN,block_03.thisN,block_03.thisIndex,block_04.thisRepN,block_04.thisTrialN,block_04.thisN,block_04.thisIndex,mouse.x,mouse.y,mouse.leftButton,mouse.midButton,mouse.rightButton,buttonBox_2.keys,buttonBox_2.corr,buttonBox_2.rt,mouse_2.x,mouse_2.y,mouse_2.leftButton,mouse_2.midButton,mouse_2.rightButton,expName,Participant,frameRate,SessionNumber,Version,date,Group,
,,,,,,,,,,,,,,,,,,,,,,,,0.9984375,1.0,1,0,0,,,,,,,,,PLC_L_D1S1,P22,60.0231097163,01,A,2015_Feb_27_1453,Y,
stim/posf.jpg,stim/negf.jpg,stim/1.jpg,stim/3.jpg,stim/latef.jpg,EF,1,2,0,0,0,41,,,,,,,,,,,,,,,,,,None,0,,,,,,,PLC_L_D1S1,P22,60.0231097163,01,A,2015_Feb_27_1453,Y,
stim/negf.jpg,stim/posf.jpg,stim/2.jpg,stim/4.jpg,stim/latef.jpg,AB,2,4,0,1,1,18,,,,,,,,,,,,,,,,,,2,0,0.533148743242,,,,,,PLC_L_D1S1,P22,60.0231097163,01,A,2015_Feb_27_1453,Y,
stim/posf.jpg,stim/negf.jpg,stim/4.jpg,stim/2.jpg,stim/latef.jpg,AB,1,2,0,2,2,3,,,,,,,,,,,,,,,,,,4,0,1.26625478004,,,,,,PLC_L_D1S1,P22,60.0231097163,01,A,2015_Feb_27_1453,Y,
stim/posf.jpg,stim/negf.jpg,stim/3.jpg,stim/1.jpg,stim/latef.jpg,EF,2,4,0,3,3,50,,,,,,,,,,,,,,,,,,4,1,1.01634607259,,,,,,PLC_L_D1S1,P22,60.0231097163,01,A,2015_Feb_27_1453,Y,
stim/negf.jpg,stim/posf.jpg,stim/3.jpg,stim/1.jpg,stim/latef.jpg,EF,2,4,0,4,4,59,,,,,,,,,,,,,,,,,,4,1,1.19958144375,,,,,,PLC_L_D1S1,P22,60.0231097163,01,A,2015_Feb_27_1453,Y,
stim/negf.jpg,stim/posf.jpg,stim/3.jpg,stim/1.jpg,stim/latef.jpg,EF,2,4,0,5,5,57,,,,,,,,,,,,,,,,,,4,1,1.0496372328,,,,,,PLC_L_D1S1,P22,60.0231097163,01,A,2015_Feb_27_1453,Y,
stim/posf.jpg,stim/negf.jpg,stim/5.jpg,stim/6.jpg,stim/latef.jpg,CD,2,4,0,6,6,34,,,,,,,,,,,,,,,,,,2,0,0.999667064157,,,,,,PLC_L_D1S1,P22,60.0231097163,01,A,2015_Feb_27_1453,Y,
stim/negf.jpg,stim/posf.jpg,stim/1.jpg,stim/3.jpg,stim/latef.jpg,EF,1,2,0,7,7,46,,,,,,,,,,,,,,,,,,4,0,1.4994993361,,,,,,PLC_L_D1S1,P22,60.0231097163,01,A,2015_Feb_27_1453,Y,
stim/negf.jpg,stim/posf.jpg,stim/3.jpg,stim/1.jpg,stim/latef.jpg,EF,2,4,0,8,8,58,,,,,,,,,,,,,,,,,,2,0,0.966347985353,,,,,,PLC_L_D1S1,P22,60.0231097163,01,A,2015_Feb_27_1453,Y,
stim/posf.jpg,stim/negf.jpg,stim/5.jpg,stim/6.jpg,stim/latef.jpg,CD,2,4,0,9,9,35,,,,,,,,,,,,,,,,,,2,0,1.4661857159,,,,,,PLC_L_D1S1,P22,60.0231097163,01,A,2015_Feb_27_1453,Y,
stim/negf.jpg,stim/posf.jpg,stim/3.jpg,stim/1.jpg,stim/latef.jpg,EF,2,4,0,10,10,56,,,,,,,,,,,,,,,,,,2,0,1.04967426711,,,,,,PLC_L_D1S1,P22,60.0231097163,01,A,2015_Feb_27_1453,Y,
stim/posf.jpg,stim/negf.jpg,stim/6.jpg,stim/5.jpg,stim/latef.jpg,CD,1,2,0,11,11,20,,,,,,,,,,,,,,,,,,4,0,1.26615276878,,,,,,PLC_L_D1S1,P22,60.0231097163,01,A,2015_Feb_27_1453,Y,
stim/posf.jpg,stim/negf.jpg,stim/3.jpg,stim/1.jpg,stim/latef.jpg,EF,2,4,0,12,12,53,,,,,,,,,,,,,,,,,,2,0,1.04964903723,,,,,,PLC_L_D1S1,P22,60.0231097163,01,A,2015_Feb_27_1453,Y,
stim/negf.jpg,stim/posf.jpg,stim/2.jpg,stim/4.jpg,stim/latef.jpg,AB,2,4,0,13,13,19,,,,,,,,,,,,,,,,,,4,1,1.64951154352,,,,,,PLC_L_D1S1,P22,60.0231097163,01,A,2015_Feb_27_1453,Y,
stim/posf.jpg,stim/negf.jpg,stim/5.jpg,stim/6.jpg,stim/latef.jpg,CD,2,4,0,14,14,32,,,,,,,,,,,,,,,,,,4,1,1.38293516289,,,,,,PLC_L_D1S1,P22,60.0231097163,01,A,2015_Feb_27_1453,Y,
stim/negf.jpg,stim/posf.jpg,stim/5.jpg,stim/6.jpg,stim/latef.jpg,CD,2,4,0,15,15,37,,,,,,,,,,,,,,,,,,4,1,0.966343257569,,,,,,PLC_L_D1S1,P22,60.0231097163,01,A,2015_Feb_27_1453,Y,
stim/posf.jpg,stim/negf.jpg,stim/2.jpg,stim/4.jpg,stim/latef.jpg,AB,2,4,0,16,16,16,,,,,,,,,,,,,,,,,,4,1,1.31622877723,,,,,,PLC_L_D1S1,P22,60.0231097163,01,A,2015_Feb_27_1453,Y,
stim/negf.jpg,stim/posf.jpg,stim/6.jpg,stim/5.jpg,stim/latef.jpg,CD,1,2,0,17,17,28,,,,,,,,,,,,,,,,,,2,1,1.41621724949,,,,,,PLC_L_D1S1,P22,60.0231097163,01,A,2015_Feb_27_1453,Y,
stim/negf.jpg,stim/posf.jpg,stim/4.jpg,stim/2.jpg,stim/latef.jpg,AB,1,2,0,18,18,9,,,,,,,,,,,,,,,,,,4,0,1.03291439012,,,,,,PLC_L_D1S1,P22,60.0231097163,01,A,2015_Feb_27_1453,Y,
stim/negf.jpg,stim/posf.jpg,stim/6.jpg,stim/5.jpg,stim/latef.jpg,CD,1,2,0,19,19,27,,,,,,,,,,,,,,,,,,2,1,1.6328454583,,,,,,PLC_L_D1S1,P22,60.0231097163,01,A,2015_Feb_27_1453,Y,
stim/posf.jpg,stim/negf.jpg,stim/5.jpg,stim/6.jpg,stim/latef.jpg,CD,2,4,0,20,20,30,,,,,,,,,,,,,,,,,,4,1,1.29958825272,,,,,,PLC_L_D1S1,P22,60.0231097163,01,A,2015_Feb_27_1453,Y,
stim/posf.jpg,stim/negf.jpg,stim/6.jpg,stim/5.jpg,stim/latef.jpg,CD,1,2,0,21,21,26,,,,,,,,,,,,,,,,,,4,0,1.49951914948,,,,,,PLC_L_D1S1,P22,60.0231097163,01,A,2015_Feb_27_1453,Y,
stim/posf.jpg,stim/negf.jpg,stim/4.jpg,stim/2.jpg,stim/latef.jpg,AB,1,2,0,22,22,4,,,,,,,,,,,,,,,,,,2,1,1.48283403583,,,,,,PLC_L_D1S1,P22,60.0231097163,01,A,2015_Feb_27_1453,Y,
stim/posf.jpg,stim/negf.jpg,stim/4.jpg,stim/2.jpg,stim/latef.jpg,AB,1,2,0,23,23,7,,,,,,,,,,,,,,,,,,4,0,1.03297929189,,,,,,PLC_L_D1S1,P22,60.0231097163,01,A,2015_Feb_27_1453,Y,
stim/posf.jpg,stim/negf.jpg,stim/1.jpg,stim/3.jpg,stim/latef.jpg,EF,1,2,0,24,24,44,,,,,,,,,,,,,,,,,,4,0,1.31621910813,,,,,,PLC_L_D1S1,P22,60.0231097163,01,A,2015_Feb_27_1453,Y,
stim/posf.jpg,stim/negf.jpg,stim/3.jpg,stim/1.jpg,stim/latef.jpg,EF,2,4,0,25,25,52,,,,,,,,,,,,,,,,,,2,0,1.11629881279,,,,,,PLC_L_D1S1,P22,60.0231097163,01,A,2015_Feb_27_1453,Y,
stim/negf.jpg,stim/posf.jpg,stim/1.jpg,stim/3.jpg,stim/latef.jpg,EF,1,2,0,26,26,49,,,,,,,,,,,,,,,,,,4,0,0.599787415132,,,,,,PLC_L_D1S1,P22,60.0231097163,01,A,2015_Feb_27_1453,Y,
stim/posf.jpg,stim/negf.jpg,stim/4.jpg,stim/2.jpg,stim/latef.jpg,AB,1,2,0,27,27,5,,,,,,,,,,,,,,,,,,4,0,1.53282846896,,,,,,PLC_L_D1S1,P22,60.0231097163,01,A,2015_Feb_27_1453,Y,
stim/posf.jpg,stim/negf.jpg,stim/3.jpg,stim/1.jpg,stim/latef.jpg,EF,2,4,0,28,28,54,,,,,,,,,,,,,,,,,,2,0,0.849726092285,,,,,,PLC_L_D1S1,P22,60.0231097163,01,A,2015_Feb_27_1453,Y,
stim/posf.jpg,stim/negf.jpg,stim/2.jpg,stim/4.jpg,stim/latef.jpg,AB,2,4,0,29,29,13,,,,,,,,,,,,,,,,,,4,1,1.24959026473,,,,,,PLC_L_D1S1,P22,60.0231097163,01,A,2015_Feb_27_1453,Y,
stim/posf.jpg,stim/negf.jpg,stim/4.jpg,stim/2.jpg,stim/latef.jpg,AB,1,2,0,30,30,1,,,,,,,,,,,,,,,,,,2,1,1.46626647018,,,,,,PLC_L_D1S1,P22,60.0231097163,01,A,2015_Feb_27_1453,Y,
stim/posf.jpg,stim/negf.jpg,stim/6.jpg,stim/5.jpg,stim/latef.jpg,CD,1,2,0,31,31,21,,,,,,,,,,,,,,,,,,2,1,1.44950687288,,,,,,PLC_L_D1S1,P22,60.0231097163,01,A,2015_Feb_27_1453,Y,
stim/posf.jpg,stim/negf.jpg,stim/3.jpg,stim/1.jpg,stim/latef.jpg,EF,2,4,0,32,32,51,,,,,,,,,,,,,,,,,,2,0,0.816390553454,,,,,,PLC_L_D1S1,P22,60.0231097163,01,A,2015_Feb_27_1453,Y,
stim/posf.jpg,stim/negf.jpg,stim/2.jpg,stim/4.jpg,stim/latef.jpg,AB,2,4,0,33,33,17,,,,,,,,,,,,,,,,,,4,1,1.08296647093,,,,,,PLC_L_D1S1,P22,60.0231097163,01,A,2015_Feb_27_1453,Y,
stim/posf.jpg,stim/negf.jpg,stim/1.jpg,stim/3.jpg,stim/latef.jpg,EF,1,2,0,34,34,45,,,,,,,,,,,,,,,,,,4,0,1.3328789558,,,,,,PLC_L_D1S1,P22,60.0231097163,01,A,2015_Feb_27_1453,Y,
stim/posf.jpg,stim/negf.jpg,stim/2.jpg,stim/4.jpg,stim/latef.jpg,AB,2,4,0,35,35,10,,,,,,,,,,,,,,,,,,4,1,0.933015324697,,,,,,PLC_L_D1S1,P22,60.0231097163,01,A,2015_Feb_27_1453,Y,
stim/posf.jpg,stim/negf.jpg,stim/2.jpg,stim/4.jpg,stim/latef.jpg,AB,2,4,0,36,36,12,,,,,,,,,,,,,,,,,,4,1,0.483169170157,,,,,,PLC_L_D1S1,P22,60.0231097163,01,A,2015_Feb_27_1453,Y,
stim/negf.jpg,stim/posf.jpg,stim/1.jpg,stim/3.jpg,stim/latef.jpg,EF,1,2,0,37,37,48,,,,,,,,,,,,,,,,,,4,0,1.31623813355,,,,,,PLC_L_D1S1,P22,60.0231097163,01,A,2015_Feb_27_1453,Y,
stim/posf.jpg,stim/negf.jpg,stim/6.jpg,stim/5.jpg,stim/latef.jpg,CD,1,2,0,38,38,22,,,,,,,,,,,,,,,,,,4,0,1.46620922249,,,,,,PLC_L_D1S1,P22,60.0231097163,01,A,2015_Feb_27_1453,Y,
stim/posf.jpg,stim/negf.jpg,stim/6.jpg,stim/5.jpg,stim/latef.jpg,CD,1,2,0,39,39,24,,,,,,,,,,,,,,,,,,None,0,,,,,,,PLC_L_D1S1,P22,60.0231097163,01,A,2015_Feb_27_1453,Y,
stim/posf.jpg,stim/negf.jpg,stim/5.jpg,stim/6.jpg,stim/latef.jpg,CD,2,4,0,40,40,33,,,,,,,,,,,,,,,,,,4,1,1.08302184495,,,,,,PLC_L_D1S1,P22,60.0231097163,01,A,2015_Feb_27_1453,Y,
stim/posf.jpg,stim/negf.jpg,stim/6.jpg,stim/5.jpg,stim/latef.jpg,CD,1,2,0,41,41,25,,,,,,,,,,,,,,,,,,2,1,1.18295212818,,,,,,PLC_L_D1S1,P22,60.0231097163,01,A,2015_Feb_27_1453,Y,
stim/posf.jpg,stim/negf.jpg,stim/4.jpg,stim/2.jpg,stim/latef.jpg,AB,1,2,0,42,42,0,,,,,,,,,,,,,,,,,,2,1,1.46618875648,,,,,,PLC_L_D1S1,P22,60.0231097163,01,A,2015_Feb_27_1453,Y,
stim/posf.jpg,stim/negf.jpg,stim/4.jpg,stim/2.jpg,stim/latef.jpg,AB,1,2,0,43,43,2,,,,,,,,,,,,,,,,,,2,1,0.59978881061,,,,,,PLC_L_D1S1,P22,60.0231097163,01,A,2015_Feb_27_1453,Y,
stim/negf.jpg,stim/posf.jpg,stim/6.jpg,stim/5.jpg,stim/latef.jpg,CD,1,2,0,44,44,29,,,,,,,,,,,,,,,,,,None,0,,,,,,,PLC_L_D1S1,P22,60.0231097163,01,A,2015_Feb_27_1453,Y,
stim/posf.jpg,stim/negf.jpg,stim/1.jpg,stim/3.jpg,stim/latef.jpg,EF,1,2,0,45,45,43,,,,,,,,,,,,,,,,,,4,0,0.833059417599,,,,,,PLC_L_D1S1,P22,60.0231097163,01,A,2015_Feb_27_1453,Y,
stim/posf.jpg,stim/negf.jpg,stim/4.jpg,stim/2.jpg,stim/latef.jpg,AB,1,2,0,46,46,6,,,,,,,,,,,,,,,,,,2,1,0.616480799393,,,,,,PLC_L_D1S1,P22,60.0231097163,01,A,2015_Feb_27_1453,Y,
stim/negf.jpg,stim/posf.jpg,stim/4.jpg,stim/2.jpg,stim/latef.jpg,AB,1,2,0,47,47,8,,,,,,,,,,,,,,,,,,2,1,0.649774149066,,,,,,PLC_L_D1S1,P22,60.0231097163,01,A,2015_Feb_27_1453,Y,
stim/posf.jpg,stim/negf.jpg,stim/2.jpg,stim/4.jpg,stim/latef.jpg,AB,2,4,0,48,48,15,,,,,,,,,,,,,,,,,,4,1,0.749813670574,,,,,,PLC_L_D1S1,P22,60.0231097163,01,A,2015_Feb_27_1453,Y,
stim/posf.jpg,stim/negf.jpg,stim/2.jpg,stim/4.jpg,stim/latef.jpg,AB,2,4,0,49,49,14,,,,,,,,,,,,,,,,,,4,1,0.683110133006,,,,,,PLC_L_D1S1,P22,60.0231097163,01,A,2015_Feb_27_1453,Y,
stim/posf.jpg,stim/negf.jpg,stim/5.jpg,stim/6.jpg,stim/latef.jpg,CD,2,4,0,50,50,31,,,,,,,,,,,,,,,,,,4,1,1.08298378809,,,,,,PLC_L_D1S1,P22,60.0231097163,01,A,2015_Feb_27_1453,Y,
stim/negf.jpg,stim/posf.jpg,stim/5.jpg,stim/6.jpg,stim/latef.jpg,CD,2,4,0,51,51,39,,,,,,,,,,,,,,,,,,4,1,1.6161592379,,,,,,PLC_L_D1S1,P22,60.0231097163,01,A,2015_Feb_27_1453,Y,
stim/posf.jpg,stim/negf.jpg,stim/6.jpg,stim/5.jpg,stim/latef.jpg,CD,1,2,0,52,52,23,,,,,,,,,,,,,,,,,,2,1,0.549812984865,,,,,,PLC_L_D1S1,P22,60.0231097163,01,A,2015_Feb_27_1453,Y,
stim/posf.jpg,stim/negf.jpg,stim/1.jpg,stim/3.jpg,stim/latef.jpg,EF,1,2,0,53,53,40,,,,,,,,,,,,,,,,,,4,0,0.69978173698,,,,,,PLC_L_D1S1,P22,60.0231097163,01,A,2015_Feb_27_1453,Y,
stim/posf.jpg,stim/negf.jpg,stim/3.jpg,stim/1.jpg,stim/latef.jpg,EF,2,4,0,54,54,55,,,,,,,,,,,,,,,,,,2,0,1.29945936948,,,,,,PLC_L_D1S1,P22,60.0231097163,01,A,2015_Feb_27_1453,Y,
stim/negf.jpg,stim/posf.jpg,stim/1.jpg,stim/3.jpg,stim/latef.jpg,EF,1,2,0,55,55,47,,,,,,,,,,,,,,,,,,2,1,0.983013060052,,,,,,PLC_L_D1S1,P22,60.0231097163,01,A,2015_Feb_27_1453,Y,
stim/posf.jpg,stim/negf.jpg,stim/5.jpg,stim/6.jpg,stim/latef.jpg,CD,2,4,0,56,56,36,,,,,,,,,,,,,,,,,,4,1,0.84973800197,,,,,,PLC_L_D1S1,P22,60.0231097163,01,A,2015_Feb_27_1453,Y,
stim/negf.jpg,stim/posf.jpg,stim/5.jpg,stim/6.jpg,stim/latef.jpg,CD,2,4,0,57,57,38,,,,,,,,,,,,,,,,,,4,1,0.583126929872,,,,,,PLC_L_D1S1,P22,60.0231097163,01,A,2015_Feb_27_1453,Y,
stim/posf.jpg,stim/negf.jpg,stim/1.jpg,stim/3.jpg,stim/latef.jpg,EF,1,2,0,58,58,42,,,,,,,,,,,,,,,,,,4,0,0.933034891467,,,,,,PLC_L_D1S1,P22,60.0231097163,01,A,2015_Feb_27_1453,Y,
stim/posf.jpg,stim/negf.jpg,stim/2.jpg,stim/4.jpg,stim/latef.jpg,AB,2,4,0,59,59,11,,,,,,,,,,,,,,,,,,4,1,0.816410718716,,,,,,PLC_L_D1S1,P22,60.0231097163,01,A,2015_Feb_27_1453,Y,
,,,,,,,,,,,,,,,,,,,,,,,,,,,,,,,,0.9984375,1.0,1,0,0,PLC_L_D1S1,P22,60.0231097163,01,A,2015_Feb_27_1453,Y,
stim/posf.jpg,stim/negf.jpg,stim/4.jpg,stim/2.jpg,stim/latef.jpg,AB,1,2,,,,,0,0,0,2,,,,,,,,,,,,,,2,1,0.766436676416,,,,,,PLC_L_D1S1,P22,60.0231097163,01,A,2015_Feb_27_1453,Y,
stim/negf.jpg,stim/posf.jpg,stim/1.jpg,stim/3.jpg,stim/latef.jpg,EF,1,2,,,,,0,1,1,46,,,,,,,,,,,,,,4,0,0.866311381118,,,,,,PLC_L_D1S1,P22,60.0231097163,01,A,2015_Feb_27_1453,Y,
stim/negf.jpg,stim/posf.jpg,stim/6.jpg,stim/5.jpg,stim/latef.jpg,CD,1,2,,,,,0,2,2,29,,,,,,,,,,,,,,2,1,0.699769334065,,,,,,PLC_L_D1S1,P22,60.0231097163,01,A,2015_Feb_27_1453,Y,
stim/posf.jpg,stim/negf.jpg,stim/6.jpg,stim/5.jpg,stim/latef.jpg,CD,1,2,,,,,0,3,3,23,,,,,,,,,,,,,,2,1,0.583119997594,,,,,,PLC_L_D1S1,P22,60.0231097163,01,A,2015_Feb_27_1453,Y,
stim/posf.jpg,stim/negf.jpg,stim/5.jpg,stim/6.jpg,stim/latef.jpg,CD,2,4,,,,,0,4,4,33,,,,,,,,,,,,,,4,1,0.633138556853,,,,,,PLC_L_D1S1,P22,60.0231097163,01,A,2015_Feb_27_1453,Y,
stim/negf.jpg,stim/posf.jpg,stim/2.jpg,stim/4.jpg,stim/latef.jpg,AB,2,4,,,,,0,5,5,18,,,,,,,,,,,,,,4,1,0.933088060992,,,,,,PLC_L_D1S1,P22,60.0231097163,01,A,2015_Feb_27_1453,Y,
stim/posf.jpg,stim/negf.jpg,stim/4.jpg,stim/2.jpg,stim/latef.jpg,AB,1,2,,,,,0,6,6,3,,,,,,,,,,,,,,2,1,0.466574564101,,,,,,PLC_L_D1S1,P22,60.0231097163,01,A,2015_Feb_27_1453,Y,
stim/posf.jpg,stim/negf.jpg,stim/5.jpg,stim/6.jpg,stim/latef.jpg,CD,2,4,,,,,0,7,7,31,,,,,,,,,,,,,,4,1,0.899708384147,,,,,,PLC_L_D1S1,P22,60.0231097163,01,A,2015_Feb_27_1453,Y,
stim/posf.jpg,stim/negf.jpg,stim/1.jpg,stim/3.jpg,stim/latef.jpg,EF,1,2,,,,,0,8,8,45,,,,,,,,,,,,,,4,0,0.733079264066,,,,,,PLC_L_D1S1,P22,60.0231097163,01,A,2015_Feb_27_1453,Y,
stim/negf.jpg,stim/posf.jpg,stim/5.jpg,stim/6.jpg,stim/latef.jpg,CD,2,4,,,,,0,9,9,39,,,,,,,,,,,,,,4,1,0.982976266344,,,,,,PLC_L_D1S1,P22,60.0231097163,01,A,2015_Feb_27_1453,Y,
stim/posf.jpg,stim/negf.jpg,stim/4.jpg,stim/2.jpg,stim/latef.jpg,AB,1,2,,,,,0,10,10,0,,,,,,,,,,,,,,2,1,0.833078539259,,,,,,PLC_L_D1S1,P22,60.0231097163,01,A,2015_Feb_27_1453,Y,
stim/posf.jpg,stim/negf.jpg,stim/2.jpg,stim/4.jpg,stim/latef.jpg,AB,2,4,,,,,0,11,11,17,,,,,,,,,,,,,,4,1,1.08298814595,,,,,,PLC_L_D1S1,P22,60.0231097163,01,A,2015_Feb_27_1453,Y,
stim/negf.jpg,stim/posf.jpg,stim/4.jpg,stim/2.jpg,stim/latef.jpg,AB,1,2,,,,,0,12,12,9,,,,,,,,,,,,,,2,1,0.816430117067,,,,,,PLC_L_D1S1,P22,60.0231097163,01,A,2015_Feb_27_1453,Y,
stim/posf.jpg,stim/negf.jpg,stim/5.jpg,stim/6.jpg,stim/latef.jpg,CD,2,4,,,,,0,13,13,34,,,,,,,,,,,,,,4,1,0.683117387087,,,,,,PLC_L_D1S1,P22,60.0231097163,01,A,2015_Feb_27_1453,Y,
stim/posf.jpg,stim/negf.jpg,stim/3.jpg,stim/1.jpg,stim/latef.jpg,EF,2,4,,,,,0,14,14,51,,,,,,,,,,,,,,2,0,0.999676351305,,,,,,PLC_L_D1S1,P22,60.0231097163,01,A,2015_Feb_27_1453,Y,
stim/posf.jpg,stim/negf.jpg,stim/1.jpg,stim/3.jpg,stim/latef.jpg,EF,1,2,,,,,0,15,15,41,,,,,,,,,,,,,,4,0,0.733075300186,,,,,,PLC_L_D1S1,P22,60.0231097163,01,A,2015_Feb_27_1453,Y,
stim/posf.jpg,stim/negf.jpg,stim/2.jpg,stim/4.jpg,stim/latef.jpg,AB,2,4,,,,,0,16,16,14,,,,,,,,,,,,,,4,1,0.616343047045,,,,,,PLC_L_D1S1,P22,60.0231097163,01,A,2015_Feb_27_1453,Y,
stim/posf.jpg,stim/negf.jpg,stim/6.jpg,stim/5.jpg,stim/latef.jpg,CD,1,2,,,,,0,17,17,25,,,,,,,,,,,,,,2,1,0.6997555868,,,,,,PLC_L_D1S1,P22,60.0231097163,01,A,2015_Feb_27_1453,Y,
stim/negf.jpg,stim/posf.jpg,stim/6.jpg,stim/5.jpg,stim/latef.jpg,CD,1,2,,,,,0,18,18,27,,,,,,,,,,,,,,2,1,0.766418447982,,,,,,PLC_L_D1S1,P22,60.0231097163,01,A,2015_Feb_27_1453,Y,
stim/posf.jpg,stim/negf.jpg,stim/3.jpg,stim/1.jpg,stim/latef.jpg,EF,2,4,,,,,0,19,19,52,,,,,,,,,,,,,,2,0,1.19957736258,,,,,,PLC_L_D1S1,P22,60.0231097163,01,A,2015_Feb_27_1453,Y,
stim/posf.jpg,stim/negf.jpg,stim/6.jpg,stim/5.jpg,stim/latef.jpg,CD,1,2,,,,,0,20,20,26,,,,,,,,,,,,,,2,1,1.43286090781,,,,,,PLC_L_D1S1,P22,60.0231097163,01,A,2015_Feb_27_1453,Y,
stim/negf.jpg,stim/posf.jpg,stim/6.jpg,stim/5.jpg,stim/latef.jpg,CD,1,2,,,,,0,21,21,28,,,,,,,,,,,,,,2,1,0.616459250683,,,,,,PLC_L_D1S1,P22,60.0231097163,01,A,2015_Feb_27_1453,Y,
stim/posf.jpg,stim/negf.jpg,stim/3.jpg,stim/1.jpg,stim/latef.jpg,EF,2,4,,,,,0,22,22,50,,,,,,,,,,,,,,2,0,1.54941742393,,,,,,PLC_L_D1S1,P22,60.0231097163,01,A,2015_Feb_27_1453,Y,
stim/negf.jpg,stim/posf.jpg,stim/1.jpg,stim/3.jpg,stim/latef.jpg,EF,1,2,,,,,0,23,23,47,,,,,,,,,,,,,,2,1,0.766411404426,,,,,,PLC_L_D1S1,P22,60.0231097163,01,A,2015_Feb_27_1453,Y,
stim/posf.jpg,stim/negf.jpg,stim/6.jpg,stim/5.jpg,stim/latef.jpg,CD,1,2,,,,,0,24,24,20,,,,,,,,,,,,,,2,1,0.71641351268,,,,,,PLC_L_D1S1,P22,60.0231097163,01,A,2015_Feb_27_1453,Y,
stim/negf.jpg,stim/posf.jpg,stim/4.jpg,stim/2.jpg,stim/latef.jpg,AB,1,2,,,,,0,25,25,8,,,,,,,,,,,,,,2,1,0.949660186014,,,,,,PLC_L_D1S1,P22,60.0231097163,01,A,2015_Feb_27_1453,Y,
stim/posf.jpg,stim/negf.jpg,stim/1.jpg,stim/3.jpg,stim/latef.jpg,EF,1,2,,,,,0,26,26,40,,,,,,,,,,,,,,4,0,1.34955148608,,,,,,PLC_L_D1S1,P22,60.0231097163,01,A,2015_Feb_27_1453,Y,
stim/posf.jpg,stim/negf.jpg,stim/2.jpg,stim/4.jpg,stim/latef.jpg,AB,2,4,,,,,0,27,27,11,,,,,,,,,,,,,,4,1,0.799748997376,,,,,,PLC_L_D1S1,P22,60.0231097163,01,A,2015_Feb_27_1453,Y,
stim/negf.jpg,stim/posf.jpg,stim/5.jpg,stim/6.jpg,stim/latef.jpg,CD,2,4,,,,,0,28,28,37,,,,,,,,,,,,,,4,1,0.749756552206,,,,,,PLC_L_D1S1,P22,60.0231097163,01,A,2015_Feb_27_1453,Y,
stim/posf.jpg,stim/negf.jpg,stim/1.jpg,stim/3.jpg,stim/latef.jpg,EF,1,2,,,,,0,29,29,44,,,,,,,,,,,,,,2,1,0.649776389651,,,,,,PLC_L_D1S1,P22,60.0231097163,01,A,2015_Feb_27_1453,Y,
stim/negf.jpg,stim/posf.jpg,stim/5.jpg,stim/6.jpg,stim/latef.jpg,CD,2,4,,,,,0,30,30,38,,,,,,,,,,,,,,4,1,0.666447316938,,,,,,PLC_L_D1S1,P22,60.0231097163,01,A,2015_Feb_27_1453,Y,
stim/posf.jpg,stim/negf.jpg,stim/3.jpg,stim/1.jpg,stim/latef.jpg,EF,2,4,,,,,0,31,31,55,,,,,,,,,,,,,,4,1,0.716434297487,,,,,,PLC_L_D1S1,P22,60.0231097163,01,A,2015_Feb_27_1453,Y,
stim/posf.jpg,stim/negf.jpg,stim/1.jpg,stim/3.jpg,stim/latef.jpg,EF,1,2,,,,,0,32,32,42,,,,,,,,,,,,,,2,1,0.899688763242,,,,,,PLC_L_D1S1,P22,60.0231097163,01,A,2015_Feb_27_1453,Y,
stim/negf.jpg,stim/posf.jpg,stim/3.jpg,stim/1.jpg,stim/latef.jpg,EF,2,4,,,,,0,33,33,57,,,,,,,,,,,,,,4,1,0.949688336178,,,,,,PLC_L_D1S1,P22,60.0231097163,01,A,2015_Feb_27_1453,Y,
stim/posf.jpg,stim/negf.jpg,stim/1.jpg,stim/3.jpg,stim/latef.jpg,EF,1,2,,,,,0,34,34,43,,,,,,,,,,,,,,2,1,1.38289152112,,,,,,PLC_L_D1S1,P22,60.0231097163,01,A,2015_Feb_27_1453,Y,
stim/posf.jpg,stim/negf.jpg,stim/5.jpg,stim/6.jpg,stim/latef.jpg,CD,2,4,,,,,0,35,35,35,,,,,,,,,,,,,,4,1,0.699788013624,,,,,,PLC_L_D1S1,P22,60.0231097163,01,A,2015_Feb_27_1453,Y,
stim/posf.jpg,stim/negf.jpg,stim/2.jpg,stim/4.jpg,stim/latef.jpg,AB,2,4,,,,,0,36,36,12,,,,,,,,,,,,,,4,1,0.599727138894,,,,,,PLC_L_D1S1,P22,60.0231097163,01,A,2015_Feb_27_1453,Y,
stim/negf.jpg,stim/posf.jpg,stim/3.jpg,stim/1.jpg,stim/latef.jpg,EF,2,4,,,,,0,37,37,58,,,,,,,,,,,,,,4,1,0.966332132841,,,,,,PLC_L_D1S1,P22,60.0231097163,01,A,2015_Feb_27_1453,Y,
stim/posf.jpg,stim/negf.jpg,stim/2.jpg,stim/4.jpg,stim/latef.jpg,AB,2,4,,,,,0,38,38,15,,,,,,,,,,,,,,4,1,0.66643545838,,,,,,PLC_L_D1S1,P22,60.0231097163,01,A,2015_Feb_27_1453,Y,
stim/posf.jpg,stim/negf.jpg,stim/4.jpg,stim/2.jpg,stim/latef.jpg,AB,1,2,,,,,0,39,39,5,,,,,,,,,,,,,,2,1,0.88303045541,,,,,,PLC_L_D1S1,P22,60.0231097163,01,A,2015_Feb_27_1453,Y,
stim/negf.jpg,stim/posf.jpg,stim/1.jpg,stim/3.jpg,stim/latef.jpg,EF,1,2,,,,,0,40,40,48,,,,,,,,,,,,,,2,1,1.06631661416,,,,,,PLC_L_D1S1,P22,60.0231097163,01,A,2015_Feb_27_1453,Y,
stim/posf.jpg,stim/negf.jpg,stim/5.jpg,stim/6.jpg,stim/latef.jpg,CD,2,4,,,,,0,41,41,36,,,,,,,,,,,,,,4,1,0.88303505688,,,,,,PLC_L_D1S1,P22,60.0231097163,01,A,2015_Feb_27_1453,Y,
stim/posf.jpg,stim/negf.jpg,stim/2.jpg,stim/4.jpg,stim/latef.jpg,AB,2,4,,,,,0,42,42,13,,,,,,,,,,,,,,4,1,1.09965577702,,,,,,PLC_L_D1S1,P22,60.0231097163,01,A,2015_Feb_27_1453,Y,
stim/posf.jpg,stim/negf.jpg,stim/3.jpg,stim/1.jpg,stim/latef.jpg,EF,2,4,,,,,0,43,43,54,,,,,,,,,,,,,,4,1,0.833046386118,,,,,,PLC_L_D1S1,P22,60.0231097163,01,A,2015_Feb_27_1453,Y,
stim/negf.jpg,stim/posf.jpg,stim/3.jpg,stim/1.jpg,stim/latef.jpg,EF,2,4,,,,,0,44,44,56,,,,,,,,,,,,,,4,1,1.41622752009,,,,,,PLC_L_D1S1,P22,60.0231097163,01,A,2015_Feb_27_1453,Y,
stim/posf.jpg,stim/negf.jpg,stim/2.jpg,stim/4.jpg,stim/latef.jpg,AB,2,4,,,,,0,45,45,10,,,,,,,,,,,,,,4,1,0.766389711356,,,,,,PLC_L_D1S1,P22,60.0231097163,01,A,2015_Feb_27_1453,Y,
stim/posf.jpg,stim/negf.jpg,stim/3.jpg,stim/1.jpg,stim/latef.jpg,EF,2,4,,,,,0,46,46,53,,,,,,,,,,,,,,4,1,0.899693785761,,,,,,PLC_L_D1S1,P22,60.0231097163,01,A,2015_Feb_27_1453,Y,
stim/negf.jpg,stim/posf.jpg,stim/2.jpg,stim/4.jpg,stim/latef.jpg,AB,2,4,,,,,0,47,47,19,,,,,,,,,,,,,,4,1,0.733091615852,,,,,,PLC_L_D1S1,P22,60.0231097163,01,A,2015_Feb_27_1453,Y,
stim/posf.jpg,stim/negf.jpg,stim/5.jpg,stim/6.jpg,stim/latef.jpg,CD,2,4,,,,,0,48,48,30,,,,,,,,,,,,,,4,1,0.699785466275,,,,,,PLC_L_D1S1,P22,60.0231097163,01,A,2015_Feb_27_1453,Y,
stim/posf.jpg,stim/negf.jpg,stim/4.jpg,stim/2.jpg,stim/latef.jpg,AB,1,2,,,,,0,49,49,1,,,,,,,,,,,,,,2,1,0.683087351223,,,,,,PLC_L_D1S1,P22,60.0231097163,01,A,2015_Feb_27_1453,Y,
stim/negf.jpg,stim/posf.jpg,stim/3.jpg,stim/1.jpg,stim/latef.jpg,EF,2,4,,,,,0,50,50,59,,,,,,,,,,,,,,4,1,0.683110836761,,,,,,PLC_L_D1S1,P22,60.0231097163,01,A,2015_Feb_27_1453,Y,
stim/posf.jpg,stim/negf.jpg,stim/6.jpg,stim/5.jpg,stim/latef.jpg,CD,1,2,,,,,0,51,51,21,,,,,,,,,,,,,,2,1,1.03298765874,,,,,,PLC_L_D1S1,P22,60.0231097163,01,A,2015_Feb_27_1453,Y,
stim/posf.jpg,stim/negf.jpg,stim/4.jpg,stim/2.jpg,stim/latef.jpg,AB,1,2,,,,,0,52,52,4,,,,,,,,,,,,,,2,1,1.0329961068,,,,,,PLC_L_D1S1,P22,60.0231097163,01,A,2015_Feb_27_1453,Y,
stim/posf.jpg,stim/negf.jpg,stim/6.jpg,stim/5.jpg,stim/latef.jpg,CD,1,2,,,,,0,53,53,22,,,,,,,,,,,,,,2,1,0.749778458809,,,,,,PLC_L_D1S1,P22,60.0231097163,01,A,2015_Feb_27_1453,Y,
stim/posf.jpg,stim/negf.jpg,stim/4.jpg,stim/2.jpg,stim/latef.jpg,AB,1,2,,,,,0,54,54,6,,,,,,,,,,,,,,2,1,0.733124084781,,,,,,PLC_L_D1S1,P22,60.0231097163,01,A,2015_Feb_27_1453,Y,
stim/negf.jpg,stim/posf.jpg,stim/1.jpg,stim/3.jpg,stim/latef.jpg,EF,1,2,,,,,0,55,55,49,,,,,,,,,,,,,,2,1,1.41621791716,,,,,,PLC_L_D1S1,P22,60.0231097163,01,A,2015_Feb_27_1453,Y,
stim/posf.jpg,stim/negf.jpg,stim/4.jpg,stim/2.jpg,stim/latef.jpg,AB,1,2,,,,,0,56,56,7,,,,,,,,,,,,,,2,1,0.649807787911,,,,,,PLC_L_D1S1,P22,60.0231097163,01,A,2015_Feb_27_1453,Y,
stim/posf.jpg,stim/negf.jpg,stim/5.jpg,stim/6.jpg,stim/latef.jpg,CD,2,4,,,,,0,57,57,32,,,,,,,,,,,,,,4,1,1.21627580244,,,,,,PLC_L_D1S1,P22,60.0231097163,01,A,2015_Feb_27_1453,Y,
stim/posf.jpg,stim/negf.jpg,stim/2.jpg,stim/4.jpg,stim/latef.jpg,AB,2,4,,,,,0,58,58,16,,,,,,,,,,,,,,4,1,0.899621990812,,,,,,PLC_L_D1S1,P22,60.0231097163,01,A,2015_Feb_27_1453,Y,
stim/posf.jpg,stim/negf.jpg,stim/6.jpg,stim/5.jpg,stim/latef.jpg,CD,1,2,,,,,0,59,59,24,,,,,,,,,,,,,,2,1,0.999644297412,,,,,,PLC_L_D1S1,P22,60.0231097163,01,A,2015_Feb_27_1453,Y,
,,,,,,,,,,,,,,,,,,,,,,,,,,,,,,,,0.9984375,1.0,1,0,0,PLC_L_D1S1,P22,60.0231097163,01,A,2015_Feb_27_1453,Y,
stim/posf.jpg,stim/negf.jpg,stim/2.jpg,stim/4.jpg,stim/latef.jpg,AB,2,4,,,,,,,,,0,0,0,17,,,,,,,,,,4,1,1.58281267359,,,,,,PLC_L_D1S1,P22,60.0231097163,01,A,2015_Feb_27_1453,Y,
stim/posf.jpg,stim/negf.jpg,stim/2.jpg,stim/4.jpg,stim/latef.jpg,AB,2,4,,,,,,,,,0,1,1,12,,,,,,,,,,4,1,0.733106851828,,,,,,PLC_L_D1S1,P22,60.0231097163,01,A,2015_Feb_27_1453,Y,
stim/negf.jpg,stim/posf.jpg,stim/5.jpg,stim/6.jpg,stim/latef.jpg,CD,2,4,,,,,,,,,0,2,2,38,,,,,,,,,,4,1,0.899651452245,,,,,,PLC_L_D1S1,P22,60.0231097163,01,A,2015_Feb_27_1453,Y,
stim/negf.jpg,stim/posf.jpg,stim/1.jpg,stim/3.jpg,stim/latef.jpg,EF,1,2,,,,,,,,,0,3,3,48,,,,,,,,,,2,1,0.949685497101,,,,,,PLC_L_D1S1,P22,60.0231097163,01,A,2015_Feb_27_1453,Y,
stim/posf.jpg,stim/negf.jpg,stim/2.jpg,stim/4.jpg,stim/latef.jpg,AB,2,4,,,,,,,,,0,4,4,16,,,,,,,,,,4,1,0.633136316269,,,,,,PLC_L_D1S1,P22,60.0231097163,01,A,2015_Feb_27_1453,Y,
stim/posf.jpg,stim/negf.jpg,stim/1.jpg,stim/3.jpg,stim/latef.jpg,EF,1,2,,,,,,,,,0,5,5,45,,,,,,,,,,2,1,0.716435467402,,,,,,PLC_L_D1S1,P22,60.0231097163,01,A,2015_Feb_27_1453,Y,
stim/negf.jpg,stim/posf.jpg,stim/1.jpg,stim/3.jpg,stim/latef.jpg,EF,1,2,,,,,,,,,0,6,6,47,,,,,,,,,,2,1,0.566476612958,,,,,,PLC_L_D1S1,P22,60.0231097163,01,A,2015_Feb_27_1453,Y,
stim/posf.jpg,stim/negf.jpg,stim/2.jpg,stim/4.jpg,stim/latef.jpg,AB,2,4,,,,,,,,,0,7,7,14,,,,,,,,,,4,1,0.616446772581,,,,,,PLC_L_D1S1,P22,60.0231097163,01,A,2015_Feb_27_1453,Y,
stim/posf.jpg,stim/negf.jpg,stim/4.jpg,stim/2.jpg,stim/latef.jpg,AB,1,2,,,,,,,,,0,8,8,6,,,,,,,,,,2,1,1.23295148157,,,,,,PLC_L_D1S1,P22,60.0231097163,01,A,2015_Feb_27_1453,Y,
stim/posf.jpg,stim/negf.jpg,stim/6.jpg,stim/5.jpg,stim/latef.jpg,CD,1,2,,,,,,,,,0,9,9,25,,,,,,,,,,2,1,1.1995985955,,,,,,PLC_L_D1S1,P22,60.0231097163,01,A,2015_Feb_27_1453,Y,
stim/negf.jpg,stim/posf.jpg,stim/5.jpg,stim/6.jpg,stim/latef.jpg,CD,2,4,,,,,,,,,0,10,10,39,,,,,,,,,,4,1,1.3162492673,,,,,,PLC_L_D1S1,P22,60.0231097163,01,A,2015_Feb_27_1453,Y,
stim/posf.jpg,stim/negf.jpg,stim/6.jpg,stim/5.jpg,stim/latef.jpg,CD,1,2,,,,,,,,,0,11,11,24,,,,,,,,,,2,1,0.816375900933,,,,,,PLC_L_D1S1,P22,60.0231097163,01,A,2015_Feb_27_1453,Y,
stim/negf.jpg,stim/posf.jpg,stim/4.jpg,stim/2.jpg,stim/latef.jpg,AB,1,2,,,,,,,,,0,12,12,9,,,,,,,,,,2,1,0.766394526357,,,,,,PLC_L_D1S1,P22,60.0231097163,01,A,2015_Feb_27_1453,Y,
stim/posf.jpg,stim/negf.jpg,stim/4.jpg,stim/2.jpg,stim/latef.jpg,AB,1,2,,,,,,,,,0,13,13,0,,,,,,,,,,2,1,0.583139152337,,,,,,PLC_L_D1S1,P22,60.0231097163,01,A,2015_Feb_27_1453,Y,
stim/posf.jpg,stim/negf.jpg,stim/2.jpg,stim/4.jpg,stim/latef.jpg,AB,2,4,,,,,,,,,0,14,14,11,,,,,,,,,,4,1,0.599801589462,,,,,,PLC_L_D1S1,P22,60.0231097163,01,A,2015_Feb_27_1453,Y,
stim/posf.jpg,stim/negf.jpg,stim/4.jpg,stim/2.jpg,stim/latef.jpg,AB,1,2,,,,,,,,,0,15,15,1,,,,,,,,,,2,1,0.899701400741,,,,,,PLC_L_D1S1,P22,60.0231097163,01,A,2015_Feb_27_1453,Y,
stim/negf.jpg,stim/posf.jpg,stim/2.jpg,stim/4.jpg,stim/latef.jpg,AB,2,4,,,,,,,,,0,16,16,18,,,,,,,,,,4,1,0.816391708333,,,,,,PLC_L_D1S1,P22,60.0231097163,01,A,2015_Feb_27_1453,Y,
stim/negf.jpg,stim/posf.jpg,stim/2.jpg,stim/4.jpg,stim/latef.jpg,AB,2,4,,,,,,,,,0,17,17,19,,,,,,,,,,4,1,0.616432360659,,,,,,PLC_L_D1S1,P22,60.0231097163,01,A,2015_Feb_27_1453,Y,
stim/posf.jpg,stim/negf.jpg,stim/2.jpg,stim/4.jpg,stim/latef.jpg,AB,2,4,,,,,,,,,0,18,18,13,,,,,,,,,,4,1,0.63318252344,,,,,,PLC_L_D1S1,P22,60.0231097163,01,A,2015_Feb_27_1453,Y,
stim/posf.jpg,stim/negf.jpg,stim/3.jpg,stim/1.jpg,stim/latef.jpg,EF,2,4,,,,,,,,,0,19,19,53,,,,,,,,,,4,1,1.03299180908,,,,,,PLC_L_D1S1,P22,60.0231097163,01,A,2015_Feb_27_1453,Y,
stim/posf.jpg,stim/negf.jpg,stim/6.jpg,stim/5.jpg,stim/latef.jpg,CD,1,2,,,,,,,,,0,20,20,26,,,,,,,,,,2,1,0.78306029278,,,,,,PLC_L_D1S1,P22,60.0231097163,01,A,2015_Feb_27_1453,Y,
stim/posf.jpg,stim/negf.jpg,stim/1.jpg,stim/3.jpg,stim/latef.jpg,EF,1,2,,,,,,,,,0,21,21,44,,,,,,,,,,2,1,0.766406496191,,,,,,PLC_L_D1S1,P22,60.0231097163,01,A,2015_Feb_27_1453,Y,
stim/posf.jpg,stim/negf.jpg,stim/6.jpg,stim/5.jpg,stim/latef.jpg,CD,1,2,,,,,,,,,0,22,22,20,,,,,,,,,,2,1,0.699754540192,,,,,,PLC_L_D1S1,P22,60.0231097163,01,A,2015_Feb_27_1453,Y,
stim/posf.jpg,stim/negf.jpg,stim/6.jpg,stim/5.jpg,stim/latef.jpg,CD,1,2,,,,,,,,,0,23,23,22,,,,,,,,,,2,1,0.866362911557,,,,,,PLC_L_D1S1,P22,60.0231097163,01,A,2015_Feb_27_1453,Y,
stim/negf.jpg,stim/posf.jpg,stim/3.jpg,stim/1.jpg,stim/latef.jpg,EF,2,4,,,,,,,,,0,24,24,59,,,,,,,,,,4,1,0.816381055781,,,,,,PLC_L_D1S1,P22,60.0231097163,01,A,2015_Feb_27_1453,Y,
stim/posf.jpg,stim/negf.jpg,stim/1.jpg,stim/3.jpg,stim/latef.jpg,EF,1,2,,,,,,,,,0,25,25,43,,,,,,,,,,2,1,1.11628966699,,,,,,PLC_L_D1S1,P22,60.0231097163,01,A,2015_Feb_27_1453,Y,
stim/negf.jpg,stim/posf.jpg,stim/5.jpg,stim/6.jpg,stim/latef.jpg,CD,2,4,,,,,,,,,0,26,26,37,,,,,,,,,,4,1,0.633121732919,,,,,,PLC_L_D1S1,P22,60.0231097163,01,A,2015_Feb_27_1453,Y,
stim/posf.jpg,stim/negf.jpg,stim/3.jpg,stim/1.jpg,stim/latef.jpg,EF,2,4,,,,,,,,,0,27,27,50,,,,,,,,,,4,1,0.816425130638,,,,,,PLC_L_D1S1,P22,60.0231097163,01,A,2015_Feb_27_1453,Y,
stim/negf.jpg,stim/posf.jpg,stim/3.jpg,stim/1.jpg,stim/latef.jpg,EF,2,4,,,,,,,,,0,28,28,56,,,,,,,,,,4,1,1.09963551552,,,,,,PLC_L_D1S1,P22,60.0231097163,01,A,2015_Feb_27_1453,Y,
stim/posf.jpg,stim/negf.jpg,stim/4.jpg,stim/2.jpg,stim/latef.jpg,AB,1,2,,,,,,,,,0,29,29,2,,,,,,,,,,2,1,0.649791138413,,,,,,PLC_L_D1S1,P22,60.0231097163,01,A,2015_Feb_27_1453,Y,
stim/posf.jpg,stim/negf.jpg,stim/5.jpg,stim/6.jpg,stim/latef.jpg,CD,2,4,,,,,,,,,0,30,30,31,,,,,,,,,,4,1,0.649738272645,,,,,,PLC_L_D1S1,P22,60.0231097163,01,A,2015_Feb_27_1453,Y,
stim/posf.jpg,stim/negf.jpg,stim/3.jpg,stim/1.jpg,stim/latef.jpg,EF,2,4,,,,,,,,,0,31,31,52,,,,,,,,,,4,1,0.666451094353,,,,,,PLC_L_D1S1,P22,60.0231097163,01,A,2015_Feb_27_1453,Y,
stim/posf.jpg,stim/negf.jpg,stim/5.jpg,stim/6.jpg,stim/latef.jpg,CD,2,4,,,,,,,,,0,32,32,32,,,,,,,,,,4,1,0.616474023504,,,,,,PLC_L_D1S1,P22,60.0231097163,01,A,2015_Feb_27_1453,Y,
stim/negf.jpg,stim/posf.jpg,stim/3.jpg,stim/1.jpg,stim/latef.jpg,EF,2,4,,,,,,,,,0,33,33,57,,,,,,,,,,2,0,0.716427449418,,,,,,PLC_L_D1S1,P22,60.0231097163,01,A,2015_Feb_27_1453,Y,
stim/negf.jpg,stim/posf.jpg,stim/1.jpg,stim/3.jpg,stim/latef.jpg,EF,1,2,,,,,,,,,0,34,34,46,,,,,,,,,,2,1,1.46618072646,,,,,,PLC_L_D1S1,P22,60.0231097163,01,A,2015_Feb_27_1453,Y,
stim/posf.jpg,stim/negf.jpg,stim/2.jpg,stim/4.jpg,stim/latef.jpg,AB,2,4,,,,,,,,,0,35,35,15,,,,,,,,,,4,1,0.799767255885,,,,,,PLC_L_D1S1,P22,60.0231097163,01,A,2015_Feb_27_1453,Y,
stim/negf.jpg,stim/posf.jpg,stim/1.jpg,stim/3.jpg,stim/latef.jpg,EF,1,2,,,,,,,,,0,36,36,49,,,,,,,,,,2,1,0.816430108044,,,,,,PLC_L_D1S1,P22,60.0231097163,01,A,2015_Feb_27_1453,Y,
stim/posf.jpg,stim/negf.jpg,stim/3.jpg,stim/1.jpg,stim/latef.jpg,EF,2,4,,,,,,,,,0,37,37,54,,,,,,,,,,4,1,1.43291719611,,,,,,PLC_L_D1S1,P22,60.0231097163,01,A,2015_Feb_27_1453,Y,
stim/posf.jpg,stim/negf.jpg,stim/6.jpg,stim/5.jpg,stim/latef.jpg,CD,1,2,,,,,,,,,0,38,38,23,,,,,,,,,,2,1,0.666445659807,,,,,,PLC_L_D1S1,P22,60.0231097163,01,A,2015_Feb_27_1453,Y,
stim/posf.jpg,stim/negf.jpg,stim/1.jpg,stim/3.jpg,stim/latef.jpg,EF,1,2,,,,,,,,,0,39,39,40,,,,,,,,,,2,1,0.766395070714,,,,,,PLC_L_D1S1,P22,60.0231097163,01,A,2015_Feb_27_1453,Y,
stim/posf.jpg,stim/negf.jpg,stim/5.jpg,stim/6.jpg,stim/latef.jpg,CD,2,4,,,,,,,,,0,40,40,30,,,,,,,,,,4,1,0.633110286389,,,,,,PLC_L_D1S1,P22,60.0231097163,01,A,2015_Feb_27_1453,Y,
stim/negf.jpg,stim/posf.jpg,stim/3.jpg,stim/1.jpg,stim/latef.jpg,EF,2,4,,,,,,,,,0,41,41,58,,,,,,,,,,2,0,1.16628416929,,,,,,PLC_L_D1S1,P22,60.0231097163,01,A,2015_Feb_27_1453,Y,
stim/negf.jpg,stim/posf.jpg,stim/6.jpg,stim/5.jpg,stim/latef.jpg,CD,1,2,,,,,,,,,0,42,42,29,,,,,,,,,,2,1,0.799715021692,,,,,,PLC_L_D1S1,P22,60.0231097163,01,A,2015_Feb_27_1453,Y,
stim/posf.jpg,stim/negf.jpg,stim/4.jpg,stim/2.jpg,stim/latef.jpg,AB,1,2,,,,,,,,,0,43,43,4,,,,,,,,,,2,1,1.11633621702,,,,,,PLC_L_D1S1,P22,60.0231097163,01,A,2015_Feb_27_1453,Y,
stim/posf.jpg,stim/negf.jpg,stim/3.jpg,stim/1.jpg,stim/latef.jpg,EF,2,4,,,,,,,,,0,44,44,55,,,,,,,,,,2,0,1.51616692205,,,,,,PLC_L_D1S1,P22,60.0231097163,01,A,2015_Feb_27_1453,Y,
stim/posf.jpg,stim/negf.jpg,stim/4.jpg,stim/2.jpg,stim/latef.jpg,AB,1,2,,,,,,,,,0,45,45,5,,,,,,,,,,2,1,0.733019607371,,,,,,PLC_L_D1S1,P22,60.0231097163,01,A,2015_Feb_27_1453,Y,
stim/posf.jpg,stim/negf.jpg,stim/1.jpg,stim/3.jpg,stim/latef.jpg,EF,1,2,,,,,,,,,0,46,46,42,,,,,,,,,,2,1,1.41621705401,,,,,,PLC_L_D1S1,P22,60.0231097163,01,A,2015_Feb_27_1453,Y,
stim/posf.jpg,stim/negf.jpg,stim/5.jpg,stim/6.jpg,stim/latef.jpg,CD,2,4,,,,,,,,,0,47,47,34,,,,,,,,,,4,1,0.883019556244,,,,,,PLC_L_D1S1,P22,60.0231097163,01,A,2015_Feb_27_1453,Y,
stim/posf.jpg,stim/negf.jpg,stim/4.jpg,stim/2.jpg,stim/latef.jpg,AB,1,2,,,,,,,,,0,48,48,3,,,,,,,,,,2,1,0.699755854468,,,,,,PLC_L_D1S1,P22,60.0231097163,01,A,2015_Feb_27_1453,Y,
stim/posf.jpg,stim/negf.jpg,stim/5.jpg,stim/6.jpg,stim/latef.jpg,CD,2,4,,,,,,,,,0,49,49,35,,,,,,,,,,4,1,0.699780203156,,,,,,PLC_L_D1S1,P22,60.0231097163,01,A,2015_Feb_27_1453,Y,
stim/posf.jpg,stim/negf.jpg,stim/1.jpg,stim/3.jpg,stim/latef.jpg,EF,1,2,,,,,,,,,0,50,50,41,,,,,,,,,,4,0,0.716434195232,,,,,,PLC_L_D1S1,P22,60.0231097163,01,A,2015_Feb_27_1453,Y,
stim/posf.jpg,stim/negf.jpg,stim/5.jpg,stim/6.jpg,stim/latef.jpg,CD,2,4,,,,,,,,,0,51,51,36,,,,,,,,,,4,1,1.19960817738,,,,,,PLC_L_D1S1,P22,60.0231097163,01,A,2015_Feb_27_1453,Y,
stim/negf.jpg,stim/posf.jpg,stim/4.jpg,stim/2.jpg,stim/latef.jpg,AB,1,2,,,,,,,,,0,52,52,8,,,,,,,,,,2,1,0.783068235577,,,,,,PLC_L_D1S1,P22,60.0231097163,01,A,2015_Feb_27_1453,Y,
stim/posf.jpg,stim/negf.jpg,stim/6.jpg,stim/5.jpg,stim/latef.jpg,CD,1,2,,,,,,,,,0,53,53,21,,,,,,,,,,2,1,0.633109663837,,,,,,PLC_L_D1S1,P22,60.0231097163,01,A,2015_Feb_27_1453,Y,
stim/posf.jpg,stim/negf.jpg,stim/4.jpg,stim/2.jpg,stim/latef.jpg,AB,1,2,,,,,,,,,0,54,54,7,,,,,,,,,,2,1,1.23292310283,,,,,,PLC_L_D1S1,P22,60.0231097163,01,A,2015_Feb_27_1453,Y,
stim/posf.jpg,stim/negf.jpg,stim/2.jpg,stim/4.jpg,stim/latef.jpg,AB,2,4,,,,,,,,,0,55,55,10,,,,,,,,,,4,1,1.66612939752,,,,,,PLC_L_D1S1,P22,60.0231097163,01,A,2015_Feb_27_1453,Y,
stim/posf.jpg,stim/negf.jpg,stim/5.jpg,stim/6.jpg,stim/latef.jpg,CD,2,4,,,,,,,,,0,56,56,33,,,,,,,,,,4,1,0.849737024534,,,,,,PLC_L_D1S1,P22,60.0231097163,01,A,2015_Feb_27_1453,Y,
stim/negf.jpg,stim/posf.jpg,stim/6.jpg,stim/5.jpg,stim/latef.jpg,CD,1,2,,,,,,,,,0,57,57,27,,,,,,,,,,2,1,0.69977916557,,,,,,PLC_L_D1S1,P22,60.0231097163,01,A,2015_Feb_27_1453,Y,
stim/posf.jpg,stim/negf.jpg,stim/3.jpg,stim/1.jpg,stim/latef.jpg,EF,2,4,,,,,,,,,0,58,58,51,,,,,,,,,,2,0,1.31627953775,,,,,,PLC_L_D1S1,P22,60.0231097163,01,A,2015_Feb_27_1453,Y,
stim/negf.jpg,stim/posf.jpg,stim/6.jpg,stim/5.jpg,stim/latef.jpg,CD,1,2,,,,,,,,,0,59,59,28,,,,,,,,,,2,1,0.616454688311,,,,,,PLC_L_D1S1,P22,60.0231097163,01,A,2015_Feb_27_1453,Y,
,,,,,,,,,,,,,,,,,,,,,,,,,,,,,,,,0.9984375,1.0,1,0,0,PLC_L_D1S1,P22,60.0231097163,01,A,2015_Feb_27_1453,Y,
stim/posf.jpg,stim/negf.jpg,stim/1.jpg,stim/3.jpg,stim/latef.jpg,EF,1,2,,,,,,,,,,,,,0,0,0,41,,,,,,4,0,1.2995111736,,,,,,PLC_L_D1S1,P22,60.0231097163,01,A,2015_Feb_27_1453,Y,
stim/posf.jpg,stim/negf.jpg,stim/1.jpg,stim/3.jpg,stim/latef.jpg,EF,1,2,,,,,,,,,,,,,0,1,1,43,,,,,,2,1,0.549822235923,,,,,,PLC_L_D1S1,P22,60.0231097163,01,A,2015_Feb_27_1453,Y,
stim/posf.jpg,stim/negf.jpg,stim/3.jpg,stim/1.jpg,stim/latef.jpg,EF,2,4,,,,,,,,,,,,,0,2,2,55,,,,,,4,1,0.733142093668,,,,,,PLC_L_D1S1,P22,60.0231097163,01,A,2015_Feb_27_1453,Y,
stim/negf.jpg,stim/posf.jpg,stim/1.jpg,stim/3.jpg,stim/latef.jpg,EF,1,2,,,,,,,,,,,,,0,3,3,49,,,,,,4,0,1.43284365982,,,,,,PLC_L_D1S1,P22,60.0231097163,01,A,2015_Feb_27_1453,Y,
stim/posf.jpg,stim/negf.jpg,stim/4.jpg,stim/2.jpg,stim/latef.jpg,AB,1,2,,,,,,,,,,,,,0,4,4,0,,,,,,2,1,0.649768897978,,,,,,PLC_L_D1S1,P22,60.0231097163,01,A,2015_Feb_27_1453,Y,
stim/posf.jpg,stim/negf.jpg,stim/3.jpg,stim/1.jpg,stim/latef.jpg,EF,2,4,,,,,,,,,,,,,0,5,5,53,,,,,,4,1,1.43285445974,,,,,,PLC_L_D1S1,P22,60.0231097163,01,A,2015_Feb_27_1453,Y,
stim/posf.jpg,stim/negf.jpg,stim/6.jpg,stim/5.jpg,stim/latef.jpg,CD,1,2,,,,,,,,,,,,,0,6,6,25,,,,,,2,1,0.666450510899,,,,,,PLC_L_D1S1,P22,60.0231097163,01,A,2015_Feb_27_1453,Y,
stim/posf.jpg,stim/negf.jpg,stim/6.jpg,stim/5.jpg,stim/latef.jpg,CD,1,2,,,,,,,,,,,,,0,7,7,22,,,,,,2,1,0.649723481778,,,,,,PLC_L_D1S1,P22,60.0231097163,01,A,2015_Feb_27_1453,Y,
stim/negf.jpg,stim/posf.jpg,stim/4.jpg,stim/2.jpg,stim/latef.jpg,AB,1,2,,,,,,,,,,,,,0,8,8,8,,,,,,2,1,0.716413563808,,,,,,PLC_L_D1S1,P22,60.0231097163,01,A,2015_Feb_27_1453,Y,
stim/negf.jpg,stim/posf.jpg,stim/5.jpg,stim/6.jpg,stim/latef.jpg,CD,2,4,,,,,,,,,,,,,0,9,9,37,,,,,,4,1,0.749789469252,,,,,,PLC_L_D1S1,P22,60.0231097163,01,A,2015_Feb_27_1453,Y,
stim/posf.jpg,stim/negf.jpg,stim/4.jpg,stim/2.jpg,stim/latef.jpg,AB,1,2,,,,,,,,,,,,,0,10,10,4,,,,,,2,1,0.949684113653,,,,,,PLC_L_D1S1,P22,60.0231097163,01,A,2015_Feb_27_1453,Y,
stim/posf.jpg,stim/negf.jpg,stim/3.jpg,stim/1.jpg,stim/latef.jpg,EF,2,4,,,,,,,,,,,,,0,11,11,52,,,,,,4,1,1.46617964376,,,,,,PLC_L_D1S1,P22,60.0231097163,01,A,2015_Feb_27_1453,Y,
stim/posf.jpg,stim/negf.jpg,stim/6.jpg,stim/5.jpg,stim/latef.jpg,CD,1,2,,,,,,,,,,,,,0,12,12,23,,,,,,2,1,0.716422878023,,,,,,PLC_L_D1S1,P22,60.0231097163,01,A,2015_Feb_27_1453,Y,
stim/posf.jpg,stim/negf.jpg,stim/5.jpg,stim/6.jpg,stim/latef.jpg,CD,2,4,,,,,,,,,,,,,0,13,13,35,,,,,,4,1,0.683104391696,,,,,,PLC_L_D1S1,P22,60.0231097163,01,A,2015_Feb_27_1453,Y,
stim/posf.jpg,stim/negf.jpg,stim/5.jpg,stim/6.jpg,stim/latef.jpg,CD,2,4,,,,,,,,,,,,,0,14,14,36,,,,,,4,1,0.633113426215,,,,,,PLC_L_D1S1,P22,60.0231097163,01,A,2015_Feb_27_1453,Y,
stim/negf.jpg,stim/posf.jpg,stim/3.jpg,stim/1.jpg,stim/latef.jpg,EF,2,4,,,,,,,,,,,,,0,15,15,59,,,,,,None,0,,,,,,,PLC_L_D1S1,P22,60.0231097163,01,A,2015_Feb_27_1453,Y,
stim/posf.jpg,stim/negf.jpg,stim/5.jpg,stim/6.jpg,stim/latef.jpg,CD,2,4,,,,,,,,,,,,,0,16,16,34,,,,,,4,1,0.583120214134,,,,,,PLC_L_D1S1,P22,60.0231097163,01,A,2015_Feb_27_1453,Y,
stim/posf.jpg,stim/negf.jpg,stim/1.jpg,stim/3.jpg,stim/latef.jpg,EF,1,2,,,,,,,,,,,,,0,17,17,40,,,,,,4,0,0.966353437944,,,,,,PLC_L_D1S1,P22,60.0231097163,01,A,2015_Feb_27_1453,Y,
stim/negf.jpg,stim/posf.jpg,stim/5.jpg,stim/6.jpg,stim/latef.jpg,CD,2,4,,,,,,,,,,,,,0,18,18,38,,,,,,4,1,0.8330560883,,,,,,PLC_L_D1S1,P22,60.0231097163,01,A,2015_Feb_27_1453,Y,
stim/negf.jpg,stim/posf.jpg,stim/2.jpg,stim/4.jpg,stim/latef.jpg,AB,2,4,,,,,,,,,,,,,0,19,19,18,,,,,,4,1,0.866388800084,,,,,,PLC_L_D1S1,P22,60.0231097163,01,A,2015_Feb_27_1453,Y,
stim/posf.jpg,stim/negf.jpg,stim/2.jpg,stim/4.jpg,stim/latef.jpg,AB,2,4,,,,,,,,,,,,,0,20,20,17,,,,,,4,1,0.583127534379,,,,,,PLC_L_D1S1,P22,60.0231097163,01,A,2015_Feb_27_1453,Y,
stim/negf.jpg,stim/posf.jpg,stim/2.jpg,stim/4.jpg,stim/latef.jpg,AB,2,4,,,,,,,,,,,,,0,21,21,19,,,,,,4,1,0.683005069135,,,,,,PLC_L_D1S1,P22,60.0231097163,01,A,2015_Feb_27_1453,Y,
stim/posf.jpg,stim/negf.jpg,stim/6.jpg,stim/5.jpg,stim/latef.jpg,CD,1,2,,,,,,,,,,,,,0,22,22,24,,,,,,2,1,1.21625326125,,,,,,PLC_L_D1S1,P22,60.0231097163,01,A,2015_Feb_27_1453,Y,
stim/negf.jpg,stim/posf.jpg,stim/6.jpg,stim/5.jpg,stim/latef.jpg,CD,1,2,,,,,,,,,,,,,0,23,23,29,,,,,,2,1,0.649801556379,,,,,,PLC_L_D1S1,P22,60.0231097163,01,A,2015_Feb_27_1453,Y,
stim/posf.jpg,stim/negf.jpg,stim/2.jpg,stim/4.jpg,stim/latef.jpg,AB,2,4,,,,,,,,,,,,,0,24,24,10,,,,,,4,1,0.749737003481,,,,,,PLC_L_D1S1,P22,60.0231097163,01,A,2015_Feb_27_1453,Y,
stim/negf.jpg,stim/posf.jpg,stim/6.jpg,stim/5.jpg,stim/latef.jpg,CD,1,2,,,,,,,,,,,,,0,25,25,28,,,,,,2,1,0.766418072045,,,,,,PLC_L_D1S1,P22,60.0231097163,01,A,2015_Feb_27_1453,Y,
stim/posf.jpg,stim/negf.jpg,stim/6.jpg,stim/5.jpg,stim/latef.jpg,CD,1,2,,,,,,,,,,,,,0,26,26,21,,,,,,2,1,0.633092006827,,,,,,PLC_L_D1S1,P22,60.0231097163,01,A,2015_Feb_27_1453,Y,
stim/posf.jpg,stim/negf.jpg,stim/1.jpg,stim/3.jpg,stim/latef.jpg,EF,1,2,,,,,,,,,,,,,0,27,27,42,,,,,,4,0,1.33296496417,,,,,,PLC_L_D1S1,P22,60.0231097163,01,A,2015_Feb_27_1453,Y,
stim/posf.jpg,stim/negf.jpg,stim/2.jpg,stim/4.jpg,stim/latef.jpg,AB,2,4,,,,,,,,,,,,,0,28,28,16,,,,,,4,1,0.633051231194,,,,,,PLC_L_D1S1,P22,60.0231097163,01,A,2015_Feb_27_1453,Y,
stim/negf.jpg,stim/posf.jpg,stim/3.jpg,stim/1.jpg,stim/latef.jpg,EF,2,4,,,,,,,,,,,,,0,29,29,58,,,,,,4,1,0.866428273472,,,,,,PLC_L_D1S1,P22,60.0231097163,01,A,2015_Feb_27_1453,Y,
stim/posf.jpg,stim/negf.jpg,stim/2.jpg,stim/4.jpg,stim/latef.jpg,AB,2,4,,,,,,,,,,,,,0,30,30,13,,,,,,4,1,0.816417311148,,,,,,PLC_L_D1S1,P22,60.0231097163,01,A,2015_Feb_27_1453,Y,
stim/posf.jpg,stim/negf.jpg,stim/4.jpg,stim/2.jpg,stim/latef.jpg,AB,1,2,,,,,,,,,,,,,0,31,31,2,,,,,,2,1,0.883037189194,,,,,,PLC_L_D1S1,P22,60.0231097163,01,A,2015_Feb_27_1453,Y,
stim/negf.jpg,stim/posf.jpg,stim/6.jpg,stim/5.jpg,stim/latef.jpg,CD,1,2,,,,,,,,,,,,,0,32,32,27,,,,,,2,1,1.04964614401,,,,,,PLC_L_D1S1,P22,60.0231097163,01,A,2015_Feb_27_1453,Y,
stim/posf.jpg,stim/negf.jpg,stim/5.jpg,stim/6.jpg,stim/latef.jpg,CD,2,4,,,,,,,,,,,,,0,33,33,33,,,,,,4,1,0.649794218089,,,,,,PLC_L_D1S1,P22,60.0231097163,01,A,2015_Feb_27_1453,Y,
stim/posf.jpg,stim/negf.jpg,stim/5.jpg,stim/6.jpg,stim/latef.jpg,CD,2,4,,,,,,,,,,,,,0,34,34,31,,,,,,4,1,0.733069682183,,,,,,PLC_L_D1S1,P22,60.0231097163,01,A,2015_Feb_27_1453,Y,
stim/posf.jpg,stim/negf.jpg,stim/2.jpg,stim/4.jpg,stim/latef.jpg,AB,2,4,,,,,,,,,,,,,0,35,35,12,,,,,,4,1,0.566394679739,,,,,,PLC_L_D1S1,P22,60.0231097163,01,A,2015_Feb_27_1453,Y,
stim/posf.jpg,stim/negf.jpg,stim/5.jpg,stim/6.jpg,stim/latef.jpg,CD,2,4,,,,,,,,,,,,,0,36,36,30,,,,,,4,1,0.566492645919,,,,,,PLC_L_D1S1,P22,60.0231097163,01,A,2015_Feb_27_1453,Y,
stim/posf.jpg,stim/negf.jpg,stim/4.jpg,stim/2.jpg,stim/latef.jpg,AB,1,2,,,,,,,,,,,,,0,37,37,7,,,,,,2,1,0.799703836813,,,,,,PLC_L_D1S1,P22,60.0231097163,01,A,2015_Feb_27_1453,Y,
stim/posf.jpg,stim/negf.jpg,stim/4.jpg,stim/2.jpg,stim/latef.jpg,AB,1,2,,,,,,,,,,,,,0,38,38,1,,,,,,2,1,1.4328587755,,,,,,PLC_L_D1S1,P22,60.0231097163,01,A,2015_Feb_27_1453,Y,
stim/posf.jpg,stim/negf.jpg,stim/4.jpg,stim/2.jpg,stim/latef.jpg,AB,1,2,,,,,,,,,,,,,0,39,39,6,,,,,,2,1,0.59989613612,,,,,,PLC_L_D1S1,P22,60.0231097163,01,A,2015_Feb_27_1453,Y,
stim/posf.jpg,stim/negf.jpg,stim/3.jpg,stim/1.jpg,stim/latef.jpg,EF,2,4,,,,,,,,,,,,,0,40,40,51,,,,,,4,1,1.21626813633,,,,,,PLC_L_D1S1,P22,60.0231097163,01,A,2015_Feb_27_1453,Y,
stim/negf.jpg,stim/posf.jpg,stim/1.jpg,stim/3.jpg,stim/latef.jpg,EF,1,2,,,,,,,,,,,,,0,41,41,46,,,,,,2,1,0.799740194435,,,,,,PLC_L_D1S1,P22,60.0231097163,01,A,2015_Feb_27_1453,Y,
stim/negf.jpg,stim/posf.jpg,stim/4.jpg,stim/2.jpg,stim/latef.jpg,AB,1,2,,,,,,,,,,,,,0,42,42,9,,,,,,2,1,0.666442089909,,,,,,PLC_L_D1S1,P22,60.0231097163,01,A,2015_Feb_27_1453,Y,
stim/negf.jpg,stim/posf.jpg,stim/5.jpg,stim/6.jpg,stim/latef.jpg,CD,2,4,,,,,,,,,,,,,0,43,43,39,,,,,,4,1,0.566486110631,,,,,,PLC_L_D1S1,P22,60.0231097163,01,A,2015_Feb_27_1453,Y,
stim/negf.jpg,stim/posf.jpg,stim/1.jpg,stim/3.jpg,stim/latef.jpg,EF,1,2,,,,,,,,,,,,,0,44,44,48,,,,,,2,1,1.64945462064,,,,,,PLC_L_D1S1,P22,60.0231097163,01,A,2015_Feb_27_1453,Y,
stim/negf.jpg,stim/posf.jpg,stim/1.jpg,stim/3.jpg,stim/latef.jpg,EF,1,2,,,,,,,,,,,,,0,45,45,47,,,,,,4,0,0.56645538605,,,,,,PLC_L_D1S1,P22,60.0231097163,01,A,2015_Feb_27_1453,Y,
stim/negf.jpg,stim/posf.jpg,stim/3.jpg,stim/1.jpg,stim/latef.jpg,EF,2,4,,,,,,,,,,,,,0,46,46,57,,,,,,4,1,1.34955493568,,,,,,PLC_L_D1S1,P22,60.0231097163,01,A,2015_Feb_27_1453,Y,
stim/posf.jpg,stim/negf.jpg,stim/6.jpg,stim/5.jpg,stim/latef.jpg,CD,1,2,,,,,,,,,,,,,0,47,47,26,,,,,,2,1,0.533162258931,,,,,,PLC_L_D1S1,P22,60.0231097163,01,A,2015_Feb_27_1453,Y,
stim/posf.jpg,stim/negf.jpg,stim/4.jpg,stim/2.jpg,stim/latef.jpg,AB,1,2,,,,,,,,,,,,,0,48,48,5,,,,,,2,1,0.683169660379,,,,,,PLC_L_D1S1,P22,60.0231097163,01,A,2015_Feb_27_1453,Y,
stim/posf.jpg,stim/negf.jpg,stim/2.jpg,stim/4.jpg,stim/latef.jpg,AB,2,4,,,,,,,,,,,,,0,49,49,15,,,,,,4,1,0.64973146668,,,,,,PLC_L_D1S1,P22,60.0231097163,01,A,2015_Feb_27_1453,Y,
stim/posf.jpg,stim/negf.jpg,stim/5.jpg,stim/6.jpg,stim/latef.jpg,CD,2,4,,,,,,,,,,,,,0,50,50,32,,,,,,4,1,0.999657482274,,,,,,PLC_L_D1S1,P22,60.0231097163,01,A,2015_Feb_27_1453,Y,
stim/posf.jpg,stim/negf.jpg,stim/2.jpg,stim/4.jpg,stim/latef.jpg,AB,2,4,,,,,,,,,,,,,0,51,51,14,,,,,,4,1,0.649792684265,,,,,,PLC_L_D1S1,P22,60.0231097163,01,A,2015_Feb_27_1453,Y,
stim/posf.jpg,stim/negf.jpg,stim/3.jpg,stim/1.jpg,stim/latef.jpg,EF,2,4,,,,,,,,,,,,,0,52,52,50,,,,,,4,1,0.833077450545,,,,,,PLC_L_D1S1,P22,60.0231097163,01,A,2015_Feb_27_1453,Y,
stim/posf.jpg,stim/negf.jpg,stim/6.jpg,stim/5.jpg,stim/latef.jpg,CD,1,2,,,,,,,,,,,,,0,53,53,20,,,,,,2,1,0.599813252532,,,,,,PLC_L_D1S1,P22,60.0231097163,01,A,2015_Feb_27_1453,Y,
stim/posf.jpg,stim/negf.jpg,stim/1.jpg,stim/3.jpg,stim/latef.jpg,EF,1,2,,,,,,,,,,,,,0,54,54,45,,,,,,2,1,1.28292197803,,,,,,PLC_L_D1S1,P22,60.0231097163,01,A,2015_Feb_27_1453,Y,
stim/negf.jpg,stim/posf.jpg,stim/3.jpg,stim/1.jpg,stim/latef.jpg,EF,2,4,,,,,,,,,,,,,0,55,55,56,,,,,,4,1,1.19962015624,,,,,,PLC_L_D1S1,P22,60.0231097163,01,A,2015_Feb_27_1453,Y,
stim/posf.jpg,stim/negf.jpg,stim/1.jpg,stim/3.jpg,stim/latef.jpg,EF,1,2,,,,,,,,,,,,,0,56,56,44,,,,,,2,1,0.949651786077,,,,,,PLC_L_D1S1,P22,60.0231097163,01,A,2015_Feb_27_1453,Y,
stim/posf.jpg,stim/negf.jpg,stim/2.jpg,stim/4.jpg,stim/latef.jpg,AB,2,4,,,,,,,,,,,,,0,57,57,11,,,,,,4,1,0.849621711115,,,,,,PLC_L_D1S1,P22,60.0231097163,01,A,2015_Feb_27_1453,Y,
stim/posf.jpg,stim/negf.jpg,stim/3.jpg,stim/1.jpg,stim/latef.jpg,EF,2,4,,,,,,,,,,,,,0,58,58,54,,,,,,4,1,1.59946360403,,,,,,PLC_L_D1S1,P22,60.0231097163,01,A,2015_Feb_27_1453,Y,
stim/posf.jpg,stim/negf.jpg,stim/4.jpg,stim/2.jpg,stim/latef.jpg,AB,1,2,,,,,,,,,,,,,0,59,59,3,,,,,,2,1,0.583149080083,,,,,,PLC_L_D1S1,P22,60.0231097163,01,A,2015_Feb_27_1453,Y,
