fb_corr,fb_incorr,symbol2,symbol1,fb_late,pair,position,correct,block_01.thisRepN,block_01.thisTrialN,block_01.thisN,block_01.thisIndex,block_02.thisRepN,block_02.thisTrialN,block_02.thisN,block_02.thisIndex,block_03.thisRepN,block_03.thisTrialN,block_03.thisN,block_03.thisIndex,block_04.thisRepN,block_04.thisTrialN,block_04.thisN,block_04.thisIndex,mouse.x,mouse.y,mouse.leftButton,mouse.midButton,mouse.rightButton,buttonBox_2.keys,buttonBox_2.corr,buttonBox_2.rt,mouse_2.x,mouse_2.y,mouse_2.leftButton,mouse_2.midButton,mouse_2.rightButton,expName,Participant,frameRate,SessionNumber,Version,date,Group,
,,,,,,,,,,,,,,,,,,,,,,,,0.990625,1.0,1,0,0,,,,,,,,,PLC_L_D1S1,P24,60.0187642716,01,A,2015_Mrz_04_1658,X,
stim/negf.jpg,stim/posf.jpg,stim/2.jpg,stim/5.jpg,stim/latef.jpg,CD,2,4,0,0,0,39,,,,,,,,,,,,,,,,,,4,1,1.54952124901,,,,,,PLC_L_D1S1,P24,60.0187642716,01,A,2015_Mrz_04_1658,X,
stim/posf.jpg,stim/negf.jpg,stim/6.jpg,stim/3.jpg,stim/latef.jpg,EF,1,2,0,1,1,42,,,,,,,,,,,,,,,,,,2,1,1.6661785619,,,,,,PLC_L_D1S1,P24,60.0187642716,01,A,2015_Mrz_04_1658,X,
stim/posf.jpg,stim/negf.jpg,stim/6.jpg,stim/3.jpg,stim/latef.jpg,EF,1,2,0,2,2,45,,,,,,,,,,,,,,,,,,None,0,,,,,,,PLC_L_D1S1,P24,60.0187642716,01,A,2015_Mrz_04_1658,X,
stim/posf.jpg,stim/negf.jpg,stim/3.jpg,stim/6.jpg,stim/latef.jpg,EF,2,4,0,3,3,51,,,,,,,,,,,,,,,,,,2,0,1.26621715996,,,,,,PLC_L_D1S1,P24,60.0187642716,01,A,2015_Mrz_04_1658,X,
stim/posf.jpg,stim/negf.jpg,stim/5.jpg,stim/2.jpg,stim/latef.jpg,CD,1,2,0,4,4,25,,,,,,,,,,,,,,,,,,4,0,1.18294486904,,,,,,PLC_L_D1S1,P24,60.0187642716,01,A,2015_Mrz_04_1658,X,
stim/posf.jpg,stim/negf.jpg,stim/4.jpg,stim/1.jpg,stim/latef.jpg,AB,2,4,0,5,5,15,,,,,,,,,,,,,,,,,,4,1,1.21630522964,,,,,,PLC_L_D1S1,P24,60.0187642716,01,A,2015_Mrz_04_1658,X,
stim/posf.jpg,stim/negf.jpg,stim/1.jpg,stim/4.jpg,stim/latef.jpg,AB,1,2,0,6,6,7,,,,,,,,,,,,,,,,,,2,1,0.999675456292,,,,,,PLC_L_D1S1,P24,60.0187642716,01,A,2015_Mrz_04_1658,X,
stim/posf.jpg,stim/negf.jpg,stim/1.jpg,stim/4.jpg,stim/latef.jpg,AB,1,2,0,7,7,5,,,,,,,,,,,,,,,,,,2,1,1.21627498337,,,,,,PLC_L_D1S1,P24,60.0187642716,01,A,2015_Mrz_04_1658,X,
stim/posf.jpg,stim/negf.jpg,stim/3.jpg,stim/6.jpg,stim/latef.jpg,EF,2,4,0,8,8,50,,,,,,,,,,,,,,,,,,4,1,1.63280110375,,,,,,PLC_L_D1S1,P24,60.0187642716,01,A,2015_Mrz_04_1658,X,
stim/posf.jpg,stim/negf.jpg,stim/6.jpg,stim/3.jpg,stim/latef.jpg,EF,1,2,0,9,9,41,,,,,,,,,,,,,,,,,,2,1,1.21619138732,,,,,,PLC_L_D1S1,P24,60.0187642716,01,A,2015_Mrz_04_1658,X,
stim/posf.jpg,stim/negf.jpg,stim/4.jpg,stim/1.jpg,stim/latef.jpg,AB,2,4,0,10,10,12,,,,,,,,,,,,,,,,,,4,1,0.999633279324,,,,,,PLC_L_D1S1,P24,60.0187642716,01,A,2015_Mrz_04_1658,X,
stim/negf.jpg,stim/posf.jpg,stim/3.jpg,stim/6.jpg,stim/latef.jpg,EF,2,4,0,11,11,58,,,,,,,,,,,,,,,,,,4,1,1.11630299207,,,,,,PLC_L_D1S1,P24,60.0187642716,01,A,2015_Mrz_04_1658,X,
stim/negf.jpg,stim/posf.jpg,stim/3.jpg,stim/6.jpg,stim/latef.jpg,EF,2,4,0,12,12,59,,,,,,,,,,,,,,,,,,2,0,0.883064488746,,,,,,PLC_L_D1S1,P24,60.0187642716,01,A,2015_Mrz_04_1658,X,
stim/negf.jpg,stim/posf.jpg,stim/4.jpg,stim/1.jpg,stim/latef.jpg,AB,2,4,0,13,13,19,,,,,,,,,,,,,,,,,,4,1,0.833074802917,,,,,,PLC_L_D1S1,P24,60.0187642716,01,A,2015_Mrz_04_1658,X,
stim/posf.jpg,stim/negf.jpg,stim/2.jpg,stim/5.jpg,stim/latef.jpg,CD,2,4,0,14,14,34,,,,,,,,,,,,,,,,,,2,0,1.58280229321,,,,,,PLC_L_D1S1,P24,60.0187642716,01,A,2015_Mrz_04_1658,X,
stim/negf.jpg,stim/posf.jpg,stim/1.jpg,stim/4.jpg,stim/latef.jpg,AB,1,2,0,15,15,9,,,,,,,,,,,,,,,,,,2,1,1.0163085469,,,,,,PLC_L_D1S1,P24,60.0187642716,01,A,2015_Mrz_04_1658,X,
stim/posf.jpg,stim/negf.jpg,stim/4.jpg,stim/1.jpg,stim/latef.jpg,AB,2,4,0,16,16,16,,,,,,,,,,,,,,,,,,4,1,1.4495337,,,,,,PLC_L_D1S1,P24,60.0187642716,01,A,2015_Mrz_04_1658,X,
stim/posf.jpg,stim/negf.jpg,stim/5.jpg,stim/2.jpg,stim/latef.jpg,CD,1,2,0,17,17,21,,,,,,,,,,,,,,,,,,2,1,1.59944809946,,,,,,PLC_L_D1S1,P24,60.0187642716,01,A,2015_Mrz_04_1658,X,
stim/negf.jpg,stim/posf.jpg,stim/5.jpg,stim/2.jpg,stim/latef.jpg,CD,1,2,0,18,18,28,,,,,,,,,,,,,,,,,,2,1,1.39960677436,,,,,,PLC_L_D1S1,P24,60.0187642716,01,A,2015_Mrz_04_1658,X,
stim/posf.jpg,stim/negf.jpg,stim/1.jpg,stim/4.jpg,stim/latef.jpg,AB,1,2,0,19,19,6,,,,,,,,,,,,,,,,,,4,0,1.3995345466,,,,,,PLC_L_D1S1,P24,60.0187642716,01,A,2015_Mrz_04_1658,X,
stim/posf.jpg,stim/negf.jpg,stim/2.jpg,stim/5.jpg,stim/latef.jpg,CD,2,4,0,20,20,32,,,,,,,,,,,,,,,,,,2,0,1.11627413826,,,,,,PLC_L_D1S1,P24,60.0187642716,01,A,2015_Mrz_04_1658,X,
stim/posf.jpg,stim/negf.jpg,stim/3.jpg,stim/6.jpg,stim/latef.jpg,EF,2,4,0,21,21,55,,,,,,,,,,,,,,,,,,4,1,1.33289873874,,,,,,PLC_L_D1S1,P24,60.0187642716,01,A,2015_Mrz_04_1658,X,
stim/posf.jpg,stim/negf.jpg,stim/1.jpg,stim/4.jpg,stim/latef.jpg,AB,1,2,0,22,22,1,,,,,,,,,,,,,,,,,,4,0,1.33292127683,,,,,,PLC_L_D1S1,P24,60.0187642716,01,A,2015_Mrz_04_1658,X,
stim/posf.jpg,stim/negf.jpg,stim/4.jpg,stim/1.jpg,stim/latef.jpg,AB,2,4,0,23,23,10,,,,,,,,,,,,,,,,,,4,1,1.14960820743,,,,,,PLC_L_D1S1,P24,60.0187642716,01,A,2015_Mrz_04_1658,X,
stim/posf.jpg,stim/negf.jpg,stim/2.jpg,stim/5.jpg,stim/latef.jpg,CD,2,4,0,24,24,33,,,,,,,,,,,,,,,,,,4,1,1.1996587858,,,,,,PLC_L_D1S1,P24,60.0187642716,01,A,2015_Mrz_04_1658,X,
stim/posf.jpg,stim/negf.jpg,stim/1.jpg,stim/4.jpg,stim/latef.jpg,AB,1,2,0,25,25,3,,,,,,,,,,,,,,,,,,2,1,0.96632690308,,,,,,PLC_L_D1S1,P24,60.0187642716,01,A,2015_Mrz_04_1658,X,
stim/posf.jpg,stim/negf.jpg,stim/6.jpg,stim/3.jpg,stim/latef.jpg,EF,1,2,0,26,26,40,,,,,,,,,,,,,,,,,,2,1,0.966342132983,,,,,,PLC_L_D1S1,P24,60.0187642716,01,A,2015_Mrz_04_1658,X,
stim/posf.jpg,stim/negf.jpg,stim/4.jpg,stim/1.jpg,stim/latef.jpg,AB,2,4,0,27,27,17,,,,,,,,,,,,,,,,,,4,1,1.53287172551,,,,,,PLC_L_D1S1,P24,60.0187642716,01,A,2015_Mrz_04_1658,X,
stim/posf.jpg,stim/negf.jpg,stim/2.jpg,stim/5.jpg,stim/latef.jpg,CD,2,4,0,28,28,35,,,,,,,,,,,,,,,,,,4,1,1.24957700778,,,,,,PLC_L_D1S1,P24,60.0187642716,01,A,2015_Mrz_04_1658,X,
stim/posf.jpg,stim/negf.jpg,stim/6.jpg,stim/3.jpg,stim/latef.jpg,EF,1,2,0,29,29,44,,,,,,,,,,,,,,,,,,2,1,0.899686069706,,,,,,PLC_L_D1S1,P24,60.0187642716,01,A,2015_Mrz_04_1658,X,
stim/negf.jpg,stim/posf.jpg,stim/6.jpg,stim/3.jpg,stim/latef.jpg,EF,1,2,0,30,30,48,,,,,,,,,,,,,,,,,,2,1,0.999630605671,,,,,,PLC_L_D1S1,P24,60.0187642716,01,A,2015_Mrz_04_1658,X,
stim/posf.jpg,stim/negf.jpg,stim/2.jpg,stim/5.jpg,stim/latef.jpg,CD,2,4,0,31,31,36,,,,,,,,,,,,,,,,,,4,1,1.28291187693,,,,,,PLC_L_D1S1,P24,60.0187642716,01,A,2015_Mrz_04_1658,X,
stim/posf.jpg,stim/negf.jpg,stim/2.jpg,stim/5.jpg,stim/latef.jpg,CD,2,4,0,32,32,31,,,,,,,,,,,,,,,,,,4,1,1.14960802698,,,,,,PLC_L_D1S1,P24,60.0187642716,01,A,2015_Mrz_04_1658,X,
stim/posf.jpg,stim/negf.jpg,stim/1.jpg,stim/4.jpg,stim/latef.jpg,AB,1,2,0,33,33,0,,,,,,,,,,,,,,,,,,2,1,0.883028425997,,,,,,PLC_L_D1S1,P24,60.0187642716,01,A,2015_Mrz_04_1658,X,
stim/posf.jpg,stim/negf.jpg,stim/3.jpg,stim/6.jpg,stim/latef.jpg,EF,2,4,0,34,34,52,,,,,,,,,,,,,,,,,,4,1,0.599778835578,,,,,,PLC_L_D1S1,P24,60.0187642716,01,A,2015_Mrz_04_1658,X,
stim/posf.jpg,stim/negf.jpg,stim/5.jpg,stim/2.jpg,stim/latef.jpg,CD,1,2,0,35,35,22,,,,,,,,,,,,,,,,,,2,1,1.08296442672,,,,,,PLC_L_D1S1,P24,60.0187642716,01,A,2015_Mrz_04_1658,X,
stim/negf.jpg,stim/posf.jpg,stim/6.jpg,stim/3.jpg,stim/latef.jpg,EF,1,2,0,36,36,46,,,,,,,,,,,,,,,,,,2,1,0.966333594733,,,,,,PLC_L_D1S1,P24,60.0187642716,01,A,2015_Mrz_04_1658,X,
stim/negf.jpg,stim/posf.jpg,stim/6.jpg,stim/3.jpg,stim/latef.jpg,EF,1,2,0,37,37,49,,,,,,,,,,,,,,,,,,4,0,1.16622739142,,,,,,PLC_L_D1S1,P24,60.0187642716,01,A,2015_Mrz_04_1658,X,
stim/posf.jpg,stim/negf.jpg,stim/3.jpg,stim/6.jpg,stim/latef.jpg,EF,2,4,0,38,38,54,,,,,,,,,,,,,,,,,,2,0,0.983079141213,,,,,,PLC_L_D1S1,P24,60.0187642716,01,A,2015_Mrz_04_1658,X,
stim/posf.jpg,stim/negf.jpg,stim/4.jpg,stim/1.jpg,stim/latef.jpg,AB,2,4,0,39,39,14,,,,,,,,,,,,,,,,,,4,1,0.966344394612,,,,,,PLC_L_D1S1,P24,60.0187642716,01,A,2015_Mrz_04_1658,X,
stim/negf.jpg,stim/posf.jpg,stim/3.jpg,stim/6.jpg,stim/latef.jpg,EF,2,4,0,40,40,56,,,,,,,,,,,,,,,,,,4,1,0.533173135642,,,,,,PLC_L_D1S1,P24,60.0187642716,01,A,2015_Mrz_04_1658,X,
stim/posf.jpg,stim/negf.jpg,stim/5.jpg,stim/2.jpg,stim/latef.jpg,CD,1,2,0,41,41,20,,,,,,,,,,,,,,,,,,2,1,0.999656527181,,,,,,PLC_L_D1S1,P24,60.0187642716,01,A,2015_Mrz_04_1658,X,
stim/negf.jpg,stim/posf.jpg,stim/2.jpg,stim/5.jpg,stim/latef.jpg,CD,2,4,0,42,42,38,,,,,,,,,,,,,,,,,,4,1,0.999659907597,,,,,,PLC_L_D1S1,P24,60.0187642716,01,A,2015_Mrz_04_1658,X,
stim/posf.jpg,stim/negf.jpg,stim/3.jpg,stim/6.jpg,stim/latef.jpg,EF,2,4,0,43,43,53,,,,,,,,,,,,,,,,,,2,0,1.31622325162,,,,,,PLC_L_D1S1,P24,60.0187642716,01,A,2015_Mrz_04_1658,X,
stim/negf.jpg,stim/posf.jpg,stim/3.jpg,stim/6.jpg,stim/latef.jpg,EF,2,4,0,44,44,57,,,,,,,,,,,,,,,,,,4,1,0.832999648876,,,,,,PLC_L_D1S1,P24,60.0187642716,01,A,2015_Mrz_04_1658,X,
stim/posf.jpg,stim/negf.jpg,stim/4.jpg,stim/1.jpg,stim/latef.jpg,AB,2,4,0,45,45,11,,,,,,,,,,,,,,,,,,4,1,1.0496586249,,,,,,PLC_L_D1S1,P24,60.0187642716,01,A,2015_Mrz_04_1658,X,
stim/negf.jpg,stim/posf.jpg,stim/5.jpg,stim/2.jpg,stim/latef.jpg,CD,1,2,0,46,46,27,,,,,,,,,,,,,,,,,,4,0,1.21625123626,,,,,,PLC_L_D1S1,P24,60.0187642716,01,A,2015_Mrz_04_1658,X,
stim/negf.jpg,stim/posf.jpg,stim/5.jpg,stim/2.jpg,stim/latef.jpg,CD,1,2,0,47,47,29,,,,,,,,,,,,,,,,,,4,0,0.983047102476,,,,,,PLC_L_D1S1,P24,60.0187642716,01,A,2015_Mrz_04_1658,X,
stim/negf.jpg,stim/posf.jpg,stim/2.jpg,stim/5.jpg,stim/latef.jpg,CD,2,4,0,48,48,37,,,,,,,,,,,,,,,,,,4,1,1.18293517592,,,,,,PLC_L_D1S1,P24,60.0187642716,01,A,2015_Mrz_04_1658,X,
stim/posf.jpg,stim/negf.jpg,stim/6.jpg,stim/3.jpg,stim/latef.jpg,EF,1,2,0,49,49,43,,,,,,,,,,,,,,,,,,None,0,,,,,,,PLC_L_D1S1,P24,60.0187642716,01,A,2015_Mrz_04_1658,X,
stim/posf.jpg,stim/negf.jpg,stim/2.jpg,stim/5.jpg,stim/latef.jpg,CD,2,4,0,50,50,30,,,,,,,,,,,,,,,,,,2,0,0.849739751808,,,,,,PLC_L_D1S1,P24,60.0187642716,01,A,2015_Mrz_04_1658,X,
stim/negf.jpg,stim/posf.jpg,stim/4.jpg,stim/1.jpg,stim/latef.jpg,AB,2,4,0,51,51,18,,,,,,,,,,,,,,,,,,4,1,0.899688629077,,,,,,PLC_L_D1S1,P24,60.0187642716,01,A,2015_Mrz_04_1658,X,
stim/posf.jpg,stim/negf.jpg,stim/1.jpg,stim/4.jpg,stim/latef.jpg,AB,1,2,0,52,52,2,,,,,,,,,,,,,,,,,,2,1,0.783147176535,,,,,,PLC_L_D1S1,P24,60.0187642716,01,A,2015_Mrz_04_1658,X,
stim/posf.jpg,stim/negf.jpg,stim/5.jpg,stim/2.jpg,stim/latef.jpg,CD,1,2,0,53,53,23,,,,,,,,,,,,,,,,,,4,0,0.466503186806,,,,,,PLC_L_D1S1,P24,60.0187642716,01,A,2015_Mrz_04_1658,X,
stim/negf.jpg,stim/posf.jpg,stim/1.jpg,stim/4.jpg,stim/latef.jpg,AB,1,2,0,54,54,8,,,,,,,,,,,,,,,,,,2,1,0.799724797089,,,,,,PLC_L_D1S1,P24,60.0187642716,01,A,2015_Mrz_04_1658,X,
stim/posf.jpg,stim/negf.jpg,stim/4.jpg,stim/1.jpg,stim/latef.jpg,AB,2,4,0,55,55,13,,,,,,,,,,,,,,,,,,4,1,0.866384953551,,,,,,PLC_L_D1S1,P24,60.0187642716,01,A,2015_Mrz_04_1658,X,
stim/posf.jpg,stim/negf.jpg,stim/5.jpg,stim/2.jpg,stim/latef.jpg,CD,1,2,0,56,56,24,,,,,,,,,,,,,,,,,,4,0,0.78307480442,,,,,,PLC_L_D1S1,P24,60.0187642716,01,A,2015_Mrz_04_1658,X,
stim/posf.jpg,stim/negf.jpg,stim/1.jpg,stim/4.jpg,stim/latef.jpg,AB,1,2,0,57,57,4,,,,,,,,,,,,,,,,,,2,1,0.916365189865,,,,,,PLC_L_D1S1,P24,60.0187642716,01,A,2015_Mrz_04_1658,X,
stim/posf.jpg,stim/negf.jpg,stim/5.jpg,stim/2.jpg,stim/latef.jpg,CD,1,2,0,58,58,26,,,,,,,,,,,,,,,,,,2,1,0.783116533272,,,,,,PLC_L_D1S1,P24,60.0187642716,01,A,2015_Mrz_04_1658,X,
stim/negf.jpg,stim/posf.jpg,stim/6.jpg,stim/3.jpg,stim/latef.jpg,EF,1,2,0,59,59,47,,,,,,,,,,,,,,,,,,2,1,1.34955893881,,,,,,PLC_L_D1S1,P24,60.0187642716,01,A,2015_Mrz_04_1658,X,
,,,,,,,,,,,,,,,,,,,,,,,,,,,,,,,,-1.0,0.9921875,1,0,0,PLC_L_D1S1,P24,60.0187642716,01,A,2015_Mrz_04_1658,X,
stim/negf.jpg,stim/posf.jpg,stim/2.jpg,stim/5.jpg,stim/latef.jpg,CD,2,4,,,,,0,0,0,39,,,,,,,,,,,,,,4,1,1.29953285038,,,,,,PLC_L_D1S1,P24,60.0187642716,01,A,2015_Mrz_04_1658,X,
stim/posf.jpg,stim/negf.jpg,stim/3.jpg,stim/6.jpg,stim/latef.jpg,EF,2,4,,,,,0,1,1,53,,,,,,,,,,,,,,4,1,0.96640034586,,,,,,PLC_L_D1S1,P24,60.0187642716,01,A,2015_Mrz_04_1658,X,
stim/posf.jpg,stim/negf.jpg,stim/6.jpg,stim/3.jpg,stim/latef.jpg,EF,1,2,,,,,0,2,2,45,,,,,,,,,,,,,,2,1,0.949705649937,,,,,,PLC_L_D1S1,P24,60.0187642716,01,A,2015_Mrz_04_1658,X,
stim/posf.jpg,stim/negf.jpg,stim/1.jpg,stim/4.jpg,stim/latef.jpg,AB,1,2,,,,,0,3,3,5,,,,,,,,,,,,,,2,1,1.03303141092,,,,,,PLC_L_D1S1,P24,60.0187642716,01,A,2015_Mrz_04_1658,X,
stim/posf.jpg,stim/negf.jpg,stim/4.jpg,stim/1.jpg,stim/latef.jpg,AB,2,4,,,,,0,4,4,16,,,,,,,,,,,,,,4,1,0.966346445717,,,,,,PLC_L_D1S1,P24,60.0187642716,01,A,2015_Mrz_04_1658,X,
stim/posf.jpg,stim/negf.jpg,stim/1.jpg,stim/4.jpg,stim/latef.jpg,AB,1,2,,,,,0,5,5,4,,,,,,,,,,,,,,2,1,1.21619073469,,,,,,PLC_L_D1S1,P24,60.0187642716,01,A,2015_Mrz_04_1658,X,
stim/negf.jpg,stim/posf.jpg,stim/6.jpg,stim/3.jpg,stim/latef.jpg,EF,1,2,,,,,0,6,6,46,,,,,,,,,,,,,,2,1,0.88309514404,,,,,,PLC_L_D1S1,P24,60.0187642716,01,A,2015_Mrz_04_1658,X,
stim/posf.jpg,stim/negf.jpg,stim/5.jpg,stim/2.jpg,stim/latef.jpg,CD,1,2,,,,,0,7,7,21,,,,,,,,,,,,,,2,1,1.3495181934,,,,,,PLC_L_D1S1,P24,60.0187642716,01,A,2015_Mrz_04_1658,X,
stim/posf.jpg,stim/negf.jpg,stim/6.jpg,stim/3.jpg,stim/latef.jpg,EF,1,2,,,,,0,8,8,43,,,,,,,,,,,,,,4,0,1.43281291414,,,,,,PLC_L_D1S1,P24,60.0187642716,01,A,2015_Mrz_04_1658,X,
stim/posf.jpg,stim/negf.jpg,stim/1.jpg,stim/4.jpg,stim/latef.jpg,AB,1,2,,,,,0,9,9,2,,,,,,,,,,,,,,2,1,1.01628868847,,,,,,PLC_L_D1S1,P24,60.0187642716,01,A,2015_Mrz_04_1658,X,
stim/posf.jpg,stim/negf.jpg,stim/5.jpg,stim/2.jpg,stim/latef.jpg,CD,1,2,,,,,0,10,10,26,,,,,,,,,,,,,,2,1,0.899686352408,,,,,,PLC_L_D1S1,P24,60.0187642716,01,A,2015_Mrz_04_1658,X,
stim/posf.jpg,stim/negf.jpg,stim/5.jpg,stim/2.jpg,stim/latef.jpg,CD,1,2,,,,,0,11,11,25,,,,,,,,,,,,,,2,1,0.899736637555,,,,,,PLC_L_D1S1,P24,60.0187642716,01,A,2015_Mrz_04_1658,X,
stim/negf.jpg,stim/posf.jpg,stim/1.jpg,stim/4.jpg,stim/latef.jpg,AB,1,2,,,,,0,12,12,8,,,,,,,,,,,,,,2,1,0.883112945343,,,,,,PLC_L_D1S1,P24,60.0187642716,01,A,2015_Mrz_04_1658,X,
stim/posf.jpg,stim/negf.jpg,stim/1.jpg,stim/4.jpg,stim/latef.jpg,AB,1,2,,,,,0,13,13,1,,,,,,,,,,,,,,4,0,0.883085586252,,,,,,PLC_L_D1S1,P24,60.0187642716,01,A,2015_Mrz_04_1658,X,
stim/posf.jpg,stim/negf.jpg,stim/3.jpg,stim/6.jpg,stim/latef.jpg,EF,2,4,,,,,0,14,14,52,,,,,,,,,,,,,,2,0,1.24955827115,,,,,,PLC_L_D1S1,P24,60.0187642716,01,A,2015_Mrz_04_1658,X,
stim/negf.jpg,stim/posf.jpg,stim/5.jpg,stim/2.jpg,stim/latef.jpg,CD,1,2,,,,,0,15,15,27,,,,,,,,,,,,,,4,0,1.54949158017,,,,,,PLC_L_D1S1,P24,60.0187642716,01,A,2015_Mrz_04_1658,X,
stim/posf.jpg,stim/negf.jpg,stim/5.jpg,stim/2.jpg,stim/latef.jpg,CD,1,2,,,,,0,16,16,20,,,,,,,,,,,,,,2,1,0.982996083503,,,,,,PLC_L_D1S1,P24,60.0187642716,01,A,2015_Mrz_04_1658,X,
stim/negf.jpg,stim/posf.jpg,stim/3.jpg,stim/6.jpg,stim/latef.jpg,EF,2,4,,,,,0,17,17,58,,,,,,,,,,,,,,4,1,0.966403729281,,,,,,PLC_L_D1S1,P24,60.0187642716,01,A,2015_Mrz_04_1658,X,
stim/posf.jpg,stim/negf.jpg,stim/6.jpg,stim/3.jpg,stim/latef.jpg,EF,1,2,,,,,0,18,18,42,,,,,,,,,,,,,,2,1,0.783054392619,,,,,,PLC_L_D1S1,P24,60.0187642716,01,A,2015_Mrz_04_1658,X,
stim/posf.jpg,stim/negf.jpg,stim/5.jpg,stim/2.jpg,stim/latef.jpg,CD,1,2,,,,,0,19,19,24,,,,,,,,,,,,,,2,1,1.19959760755,,,,,,PLC_L_D1S1,P24,60.0187642716,01,A,2015_Mrz_04_1658,X,
stim/negf.jpg,stim/posf.jpg,stim/4.jpg,stim/1.jpg,stim/latef.jpg,AB,2,4,,,,,0,20,20,18,,,,,,,,,,,,,,4,1,0.749733135341,,,,,,PLC_L_D1S1,P24,60.0187642716,01,A,2015_Mrz_04_1658,X,
stim/posf.jpg,stim/negf.jpg,stim/4.jpg,stim/1.jpg,stim/latef.jpg,AB,2,4,,,,,0,21,21,14,,,,,,,,,,,,,,2,0,0.599795319602,,,,,,PLC_L_D1S1,P24,60.0187642716,01,A,2015_Mrz_04_1658,X,
stim/posf.jpg,stim/negf.jpg,stim/6.jpg,stim/3.jpg,stim/latef.jpg,EF,1,2,,,,,0,22,22,40,,,,,,,,,,,,,,2,1,0.733071046567,,,,,,PLC_L_D1S1,P24,60.0187642716,01,A,2015_Mrz_04_1658,X,
stim/posf.jpg,stim/negf.jpg,stim/4.jpg,stim/1.jpg,stim/latef.jpg,AB,2,4,,,,,0,23,23,13,,,,,,,,,,,,,,4,1,0.899695429,,,,,,PLC_L_D1S1,P24,60.0187642716,01,A,2015_Mrz_04_1658,X,
stim/posf.jpg,stim/negf.jpg,stim/5.jpg,stim/2.jpg,stim/latef.jpg,CD,1,2,,,,,0,24,24,22,,,,,,,,,,,,,,4,0,0.633160272628,,,,,,PLC_L_D1S1,P24,60.0187642716,01,A,2015_Mrz_04_1658,X,
stim/negf.jpg,stim/posf.jpg,stim/5.jpg,stim/2.jpg,stim/latef.jpg,CD,1,2,,,,,0,25,25,28,,,,,,,,,,,,,,2,1,0.78307832017,,,,,,PLC_L_D1S1,P24,60.0187642716,01,A,2015_Mrz_04_1658,X,
stim/posf.jpg,stim/negf.jpg,stim/3.jpg,stim/6.jpg,stim/latef.jpg,EF,2,4,,,,,0,26,26,50,,,,,,,,,,,,,,2,0,1.06631150175,,,,,,PLC_L_D1S1,P24,60.0187642716,01,A,2015_Mrz_04_1658,X,
stim/posf.jpg,stim/negf.jpg,stim/1.jpg,stim/4.jpg,stim/latef.jpg,AB,1,2,,,,,0,27,27,6,,,,,,,,,,,,,,4,0,0.616478154006,,,,,,PLC_L_D1S1,P24,60.0187642716,01,A,2015_Mrz_04_1658,X,
stim/posf.jpg,stim/negf.jpg,stim/2.jpg,stim/5.jpg,stim/latef.jpg,CD,2,4,,,,,0,28,28,30,,,,,,,,,,,,,,4,1,1.1329098123,,,,,,PLC_L_D1S1,P24,60.0187642716,01,A,2015_Mrz_04_1658,X,
stim/posf.jpg,stim/negf.jpg,stim/5.jpg,stim/2.jpg,stim/latef.jpg,CD,1,2,,,,,0,29,29,23,,,,,,,,,,,,,,2,1,0.766338292426,,,,,,PLC_L_D1S1,P24,60.0187642716,01,A,2015_Mrz_04_1658,X,
stim/posf.jpg,stim/negf.jpg,stim/2.jpg,stim/5.jpg,stim/latef.jpg,CD,2,4,,,,,0,30,30,34,,,,,,,,,,,,,,2,0,1.14962076067,,,,,,PLC_L_D1S1,P24,60.0187642716,01,A,2015_Mrz_04_1658,X,
stim/negf.jpg,stim/posf.jpg,stim/3.jpg,stim/6.jpg,stim/latef.jpg,EF,2,4,,,,,0,31,31,59,,,,,,,,,,,,,,4,1,0.499875084115,,,,,,PLC_L_D1S1,P24,60.0187642716,01,A,2015_Mrz_04_1658,X,
stim/posf.jpg,stim/negf.jpg,stim/4.jpg,stim/1.jpg,stim/latef.jpg,AB,2,4,,,,,0,32,32,11,,,,,,,,,,,,,,2,0,0.516558601219,,,,,,PLC_L_D1S1,P24,60.0187642716,01,A,2015_Mrz_04_1658,X,
stim/negf.jpg,stim/posf.jpg,stim/6.jpg,stim/3.jpg,stim/latef.jpg,EF,1,2,,,,,0,33,33,49,,,,,,,,,,,,,,2,1,1.24958067992,,,,,,PLC_L_D1S1,P24,60.0187642716,01,A,2015_Mrz_04_1658,X,
stim/posf.jpg,stim/negf.jpg,stim/2.jpg,stim/5.jpg,stim/latef.jpg,CD,2,4,,,,,0,34,34,32,,,,,,,,,,,,,,4,1,0.849713204738,,,,,,PLC_L_D1S1,P24,60.0187642716,01,A,2015_Mrz_04_1658,X,
stim/negf.jpg,stim/posf.jpg,stim/3.jpg,stim/6.jpg,stim/latef.jpg,EF,2,4,,,,,0,35,35,57,,,,,,,,,,,,,,2,0,0.999591526412,,,,,,PLC_L_D1S1,P24,60.0187642716,01,A,2015_Mrz_04_1658,X,
stim/negf.jpg,stim/posf.jpg,stim/2.jpg,stim/5.jpg,stim/latef.jpg,CD,2,4,,,,,0,36,36,37,,,,,,,,,,,,,,4,1,1.41619609403,,,,,,PLC_L_D1S1,P24,60.0187642716,01,A,2015_Mrz_04_1658,X,
stim/posf.jpg,stim/negf.jpg,stim/4.jpg,stim/1.jpg,stim/latef.jpg,AB,2,4,,,,,0,37,37,17,,,,,,,,,,,,,,4,1,1.46613941948,,,,,,PLC_L_D1S1,P24,60.0187642716,01,A,2015_Mrz_04_1658,X,
stim/posf.jpg,stim/negf.jpg,stim/2.jpg,stim/5.jpg,stim/latef.jpg,CD,2,4,,,,,0,38,38,31,,,,,,,,,,,,,,2,0,0.916361974865,,,,,,PLC_L_D1S1,P24,60.0187642716,01,A,2015_Mrz_04_1658,X,
stim/negf.jpg,stim/posf.jpg,stim/5.jpg,stim/2.jpg,stim/latef.jpg,CD,1,2,,,,,0,39,39,29,,,,,,,,,,,,,,4,0,1.18293784055,,,,,,PLC_L_D1S1,P24,60.0187642716,01,A,2015_Mrz_04_1658,X,
stim/negf.jpg,stim/posf.jpg,stim/6.jpg,stim/3.jpg,stim/latef.jpg,EF,1,2,,,,,0,40,40,47,,,,,,,,,,,,,,2,1,1.532837771,,,,,,PLC_L_D1S1,P24,60.0187642716,01,A,2015_Mrz_04_1658,X,
stim/posf.jpg,stim/negf.jpg,stim/3.jpg,stim/6.jpg,stim/latef.jpg,EF,2,4,,,,,0,41,41,51,,,,,,,,,,,,,,4,1,1.11629383127,,,,,,PLC_L_D1S1,P24,60.0187642716,01,A,2015_Mrz_04_1658,X,
stim/negf.jpg,stim/posf.jpg,stim/6.jpg,stim/3.jpg,stim/latef.jpg,EF,1,2,,,,,0,42,42,48,,,,,,,,,,,,,,2,1,1.19957727394,,,,,,PLC_L_D1S1,P24,60.0187642716,01,A,2015_Mrz_04_1658,X,
stim/posf.jpg,stim/negf.jpg,stim/6.jpg,stim/3.jpg,stim/latef.jpg,EF,1,2,,,,,0,43,43,41,,,,,,,,,,,,,,2,1,1.06631824754,,,,,,PLC_L_D1S1,P24,60.0187642716,01,A,2015_Mrz_04_1658,X,
stim/negf.jpg,stim/posf.jpg,stim/1.jpg,stim/4.jpg,stim/latef.jpg,AB,1,2,,,,,0,44,44,9,,,,,,,,,,,,,,2,1,0.916338543551,,,,,,PLC_L_D1S1,P24,60.0187642716,01,A,2015_Mrz_04_1658,X,
stim/negf.jpg,stim/posf.jpg,stim/2.jpg,stim/5.jpg,stim/latef.jpg,CD,2,4,,,,,0,45,45,38,,,,,,,,,,,,,,4,1,1.08298851366,,,,,,PLC_L_D1S1,P24,60.0187642716,01,A,2015_Mrz_04_1658,X,
stim/posf.jpg,stim/negf.jpg,stim/2.jpg,stim/5.jpg,stim/latef.jpg,CD,2,4,,,,,0,46,46,33,,,,,,,,,,,,,,4,1,1.13296012451,,,,,,PLC_L_D1S1,P24,60.0187642716,01,A,2015_Mrz_04_1658,X,
stim/posf.jpg,stim/negf.jpg,stim/3.jpg,stim/6.jpg,stim/latef.jpg,EF,2,4,,,,,0,47,47,54,,,,,,,,,,,,,,4,1,1.39954805322,,,,,,PLC_L_D1S1,P24,60.0187642716,01,A,2015_Mrz_04_1658,X,
stim/posf.jpg,stim/negf.jpg,stim/4.jpg,stim/1.jpg,stim/latef.jpg,AB,2,4,,,,,0,48,48,12,,,,,,,,,,,,,,2,0,0.683086671956,,,,,,PLC_L_D1S1,P24,60.0187642716,01,A,2015_Mrz_04_1658,X,
stim/posf.jpg,stim/negf.jpg,stim/1.jpg,stim/4.jpg,stim/latef.jpg,AB,1,2,,,,,0,49,49,3,,,,,,,,,,,,,,2,1,1.06624127096,,,,,,PLC_L_D1S1,P24,60.0187642716,01,A,2015_Mrz_04_1658,X,
stim/posf.jpg,stim/negf.jpg,stim/4.jpg,stim/1.jpg,stim/latef.jpg,AB,2,4,,,,,0,50,50,10,,,,,,,,,,,,,,4,1,1.2495885084,,,,,,PLC_L_D1S1,P24,60.0187642716,01,A,2015_Mrz_04_1658,X,
stim/posf.jpg,stim/negf.jpg,stim/1.jpg,stim/4.jpg,stim/latef.jpg,AB,1,2,,,,,0,51,51,7,,,,,,,,,,,,,,2,1,0.866378974673,,,,,,PLC_L_D1S1,P24,60.0187642716,01,A,2015_Mrz_04_1658,X,
stim/negf.jpg,stim/posf.jpg,stim/4.jpg,stim/1.jpg,stim/latef.jpg,AB,2,4,,,,,0,52,52,19,,,,,,,,,,,,,,4,1,0.982994925622,,,,,,PLC_L_D1S1,P24,60.0187642716,01,A,2015_Mrz_04_1658,X,
stim/posf.jpg,stim/negf.jpg,stim/6.jpg,stim/3.jpg,stim/latef.jpg,EF,1,2,,,,,0,53,53,44,,,,,,,,,,,,,,2,1,1.06633157671,,,,,,PLC_L_D1S1,P24,60.0187642716,01,A,2015_Mrz_04_1658,X,
stim/posf.jpg,stim/negf.jpg,stim/4.jpg,stim/1.jpg,stim/latef.jpg,AB,2,4,,,,,0,54,54,15,,,,,,,,,,,,,,2,0,0.633112408506,,,,,,PLC_L_D1S1,P24,60.0187642716,01,A,2015_Mrz_04_1658,X,
stim/negf.jpg,stim/posf.jpg,stim/3.jpg,stim/6.jpg,stim/latef.jpg,EF,2,4,,,,,0,55,55,56,,,,,,,,,,,,,,4,1,0.499806342033,,,,,,PLC_L_D1S1,P24,60.0187642716,01,A,2015_Mrz_04_1658,X,
stim/posf.jpg,stim/negf.jpg,stim/1.jpg,stim/4.jpg,stim/latef.jpg,AB,1,2,,,,,0,56,56,0,,,,,,,,,,,,,,2,1,1.39947249617,,,,,,PLC_L_D1S1,P24,60.0187642716,01,A,2015_Mrz_04_1658,X,
stim/posf.jpg,stim/negf.jpg,stim/2.jpg,stim/5.jpg,stim/latef.jpg,CD,2,4,,,,,0,57,57,36,,,,,,,,,,,,,,4,1,1.13293895783,,,,,,PLC_L_D1S1,P24,60.0187642716,01,A,2015_Mrz_04_1658,X,
stim/posf.jpg,stim/negf.jpg,stim/2.jpg,stim/5.jpg,stim/latef.jpg,CD,2,4,,,,,0,58,58,35,,,,,,,,,,,,,,4,1,1.29956494025,,,,,,PLC_L_D1S1,P24,60.0187642716,01,A,2015_Mrz_04_1658,X,
stim/posf.jpg,stim/negf.jpg,stim/3.jpg,stim/6.jpg,stim/latef.jpg,EF,2,4,,,,,0,59,59,55,,,,,,,,,,,,,,None,0,,,,,,,PLC_L_D1S1,P24,60.0187642716,01,A,2015_Mrz_04_1658,X,
,,,,,,,,,,,,,,,,,,,,,,,,,,,,,,,,-1.0,0.9921875,1,0,0,PLC_L_D1S1,P24,60.0187642716,01,A,2015_Mrz_04_1658,X,
stim/posf.jpg,stim/negf.jpg,stim/2.jpg,stim/5.jpg,stim/latef.jpg,CD,2,4,,,,,,,,,0,0,0,31,,,,,,,,,,4,1,1.14961789754,,,,,,PLC_L_D1S1,P24,60.0187642716,01,A,2015_Mrz_04_1658,X,
stim/posf.jpg,stim/negf.jpg,stim/3.jpg,stim/6.jpg,stim/latef.jpg,EF,2,4,,,,,,,,,0,1,1,52,,,,,,,,,,4,1,1.53285464901,,,,,,PLC_L_D1S1,P24,60.0187642716,01,A,2015_Mrz_04_1658,X,
stim/posf.jpg,stim/negf.jpg,stim/5.jpg,stim/2.jpg,stim/latef.jpg,CD,1,2,,,,,,,,,0,2,2,26,,,,,,,,,,2,1,0.916346507371,,,,,,PLC_L_D1S1,P24,60.0187642716,01,A,2015_Mrz_04_1658,X,
stim/posf.jpg,stim/negf.jpg,stim/3.jpg,stim/6.jpg,stim/latef.jpg,EF,2,4,,,,,,,,,0,3,3,51,,,,,,,,,,4,1,1.06634758255,,,,,,PLC_L_D1S1,P24,60.0187642716,01,A,2015_Mrz_04_1658,X,
stim/negf.jpg,stim/posf.jpg,stim/5.jpg,stim/2.jpg,stim/latef.jpg,CD,1,2,,,,,,,,,0,4,4,28,,,,,,,,,,2,1,0.766426258349,,,,,,PLC_L_D1S1,P24,60.0187642716,01,A,2015_Mrz_04_1658,X,
stim/posf.jpg,stim/negf.jpg,stim/5.jpg,stim/2.jpg,stim/latef.jpg,CD,1,2,,,,,,,,,0,5,5,25,,,,,,,,,,4,0,1.09962364334,,,,,,PLC_L_D1S1,P24,60.0187642716,01,A,2015_Mrz_04_1658,X,
stim/negf.jpg,stim/posf.jpg,stim/2.jpg,stim/5.jpg,stim/latef.jpg,CD,2,4,,,,,,,,,0,6,6,37,,,,,,,,,,4,1,1.34948391409,,,,,,PLC_L_D1S1,P24,60.0187642716,01,A,2015_Mrz_04_1658,X,
stim/posf.jpg,stim/negf.jpg,stim/1.jpg,stim/4.jpg,stim/latef.jpg,AB,1,2,,,,,,,,,0,7,7,5,,,,,,,,,,2,1,1.04961095928,,,,,,PLC_L_D1S1,P24,60.0187642716,01,A,2015_Mrz_04_1658,X,
stim/posf.jpg,stim/negf.jpg,stim/4.jpg,stim/1.jpg,stim/latef.jpg,AB,2,4,,,,,,,,,0,8,8,15,,,,,,,,,,4,1,0.883030792886,,,,,,PLC_L_D1S1,P24,60.0187642716,01,A,2015_Mrz_04_1658,X,
stim/posf.jpg,stim/negf.jpg,stim/4.jpg,stim/1.jpg,stim/latef.jpg,AB,2,4,,,,,,,,,0,9,9,11,,,,,,,,,,4,1,0.749742864555,,,,,,PLC_L_D1S1,P24,60.0187642716,01,A,2015_Mrz_04_1658,X,
stim/negf.jpg,stim/posf.jpg,stim/5.jpg,stim/2.jpg,stim/latef.jpg,CD,1,2,,,,,,,,,0,10,10,29,,,,,,,,,,2,1,1.04963251693,,,,,,PLC_L_D1S1,P24,60.0187642716,01,A,2015_Mrz_04_1658,X,
stim/posf.jpg,stim/negf.jpg,stim/2.jpg,stim/5.jpg,stim/latef.jpg,CD,2,4,,,,,,,,,0,11,11,30,,,,,,,,,,2,0,0.816415129151,,,,,,PLC_L_D1S1,P24,60.0187642716,01,A,2015_Mrz_04_1658,X,
stim/posf.jpg,stim/negf.jpg,stim/1.jpg,stim/4.jpg,stim/latef.jpg,AB,1,2,,,,,,,,,0,12,12,2,,,,,,,,,,2,1,1.53283175904,,,,,,PLC_L_D1S1,P24,60.0187642716,01,A,2015_Mrz_04_1658,X,
stim/posf.jpg,stim/negf.jpg,stim/5.jpg,stim/2.jpg,stim/latef.jpg,CD,1,2,,,,,,,,,0,13,13,23,,,,,,,,,,4,0,0.966344635211,,,,,,PLC_L_D1S1,P24,60.0187642716,01,A,2015_Mrz_04_1658,X,
stim/posf.jpg,stim/negf.jpg,stim/6.jpg,stim/3.jpg,stim/latef.jpg,EF,1,2,,,,,,,,,0,14,14,43,,,,,,,,,,2,1,0.933030863562,,,,,,PLC_L_D1S1,P24,60.0187642716,01,A,2015_Mrz_04_1658,X,
stim/posf.jpg,stim/negf.jpg,stim/4.jpg,stim/1.jpg,stim/latef.jpg,AB,2,4,,,,,,,,,0,15,15,12,,,,,,,,,,4,1,0.999618115586,,,,,,PLC_L_D1S1,P24,60.0187642716,01,A,2015_Mrz_04_1658,X,
stim/posf.jpg,stim/negf.jpg,stim/2.jpg,stim/5.jpg,stim/latef.jpg,CD,2,4,,,,,,,,,0,16,16,32,,,,,,,,,,4,1,0.949682657714,,,,,,PLC_L_D1S1,P24,60.0187642716,01,A,2015_Mrz_04_1658,X,
stim/posf.jpg,stim/negf.jpg,stim/1.jpg,stim/4.jpg,stim/latef.jpg,AB,1,2,,,,,,,,,0,17,17,1,,,,,,,,,,4,0,1.06633384435,,,,,,PLC_L_D1S1,P24,60.0187642716,01,A,2015_Mrz_04_1658,X,
stim/posf.jpg,stim/negf.jpg,stim/3.jpg,stim/6.jpg,stim/latef.jpg,EF,2,4,,,,,,,,,0,18,18,53,,,,,,,,,,4,1,0.999660536159,,,,,,PLC_L_D1S1,P24,60.0187642716,01,A,2015_Mrz_04_1658,X,
stim/negf.jpg,stim/posf.jpg,stim/4.jpg,stim/1.jpg,stim/latef.jpg,AB,2,4,,,,,,,,,0,19,19,19,,,,,,,,,,4,1,0.833081347204,,,,,,PLC_L_D1S1,P24,60.0187642716,01,A,2015_Mrz_04_1658,X,
stim/posf.jpg,stim/negf.jpg,stim/2.jpg,stim/5.jpg,stim/latef.jpg,CD,2,4,,,,,,,,,0,20,20,33,,,,,,,,,,2,0,0.666378192727,,,,,,PLC_L_D1S1,P24,60.0187642716,01,A,2015_Mrz_04_1658,X,
stim/negf.jpg,stim/posf.jpg,stim/3.jpg,stim/6.jpg,stim/latef.jpg,EF,2,4,,,,,,,,,0,21,21,59,,,,,,,,,,4,1,0.98300450446,,,,,,PLC_L_D1S1,P24,60.0187642716,01,A,2015_Mrz_04_1658,X,
stim/negf.jpg,stim/posf.jpg,stim/6.jpg,stim/3.jpg,stim/latef.jpg,EF,1,2,,,,,,,,,0,22,22,46,,,,,,,,,,2,1,0.666431545509,,,,,,PLC_L_D1S1,P24,60.0187642716,01,A,2015_Mrz_04_1658,X,
stim/posf.jpg,stim/negf.jpg,stim/3.jpg,stim/6.jpg,stim/latef.jpg,EF,2,4,,,,,,,,,0,23,23,50,,,,,,,,,,4,1,1.14957108002,,,,,,PLC_L_D1S1,P24,60.0187642716,01,A,2015_Mrz_04_1658,X,
stim/posf.jpg,stim/negf.jpg,stim/1.jpg,stim/4.jpg,stim/latef.jpg,AB,1,2,,,,,,,,,0,24,24,7,,,,,,,,,,2,1,1.33288578249,,,,,,PLC_L_D1S1,P24,60.0187642716,01,A,2015_Mrz_04_1658,X,
stim/posf.jpg,stim/negf.jpg,stim/2.jpg,stim/5.jpg,stim/latef.jpg,CD,2,4,,,,,,,,,0,25,25,34,,,,,,,,,,4,1,1.03297455743,,,,,,PLC_L_D1S1,P24,60.0187642716,01,A,2015_Mrz_04_1658,X,
stim/negf.jpg,stim/posf.jpg,stim/6.jpg,stim/3.jpg,stim/latef.jpg,EF,1,2,,,,,,,,,0,26,26,48,,,,,,,,,,4,0,1.21626726917,,,,,,PLC_L_D1S1,P24,60.0187642716,01,A,2015_Mrz_04_1658,X,
stim/posf.jpg,stim/negf.jpg,stim/4.jpg,stim/1.jpg,stim/latef.jpg,AB,2,4,,,,,,,,,0,27,27,13,,,,,,,,,,4,1,1.36617709424,,,,,,PLC_L_D1S1,P24,60.0187642716,01,A,2015_Mrz_04_1658,X,
stim/posf.jpg,stim/negf.jpg,stim/2.jpg,stim/5.jpg,stim/latef.jpg,CD,2,4,,,,,,,,,0,28,28,35,,,,,,,,,,4,1,1.29959210385,,,,,,PLC_L_D1S1,P24,60.0187642716,01,A,2015_Mrz_04_1658,X,
stim/negf.jpg,stim/posf.jpg,stim/6.jpg,stim/3.jpg,stim/latef.jpg,EF,1,2,,,,,,,,,0,29,29,47,,,,,,,,,,2,1,1.16628205546,,,,,,PLC_L_D1S1,P24,60.0187642716,01,A,2015_Mrz_04_1658,X,
stim/negf.jpg,stim/posf.jpg,stim/2.jpg,stim/5.jpg,stim/latef.jpg,CD,2,4,,,,,,,,,0,30,30,39,,,,,,,,,,4,1,0.466520106915,,,,,,PLC_L_D1S1,P24,60.0187642716,01,A,2015_Mrz_04_1658,X,
stim/posf.jpg,stim/negf.jpg,stim/3.jpg,stim/6.jpg,stim/latef.jpg,EF,2,4,,,,,,,,,0,31,31,54,,,,,,,,,,4,1,1.19955814333,,,,,,PLC_L_D1S1,P24,60.0187642716,01,A,2015_Mrz_04_1658,X,
stim/negf.jpg,stim/posf.jpg,stim/5.jpg,stim/2.jpg,stim/latef.jpg,CD,1,2,,,,,,,,,0,32,32,27,,,,,,,,,,2,1,1.29955448021,,,,,,PLC_L_D1S1,P24,60.0187642716,01,A,2015_Mrz_04_1658,X,
stim/posf.jpg,stim/negf.jpg,stim/6.jpg,stim/3.jpg,stim/latef.jpg,EF,1,2,,,,,,,,,0,33,33,40,,,,,,,,,,4,0,1.28290770555,,,,,,PLC_L_D1S1,P24,60.0187642716,01,A,2015_Mrz_04_1658,X,
stim/negf.jpg,stim/posf.jpg,stim/1.jpg,stim/4.jpg,stim/latef.jpg,AB,1,2,,,,,,,,,0,34,34,8,,,,,,,,,,2,1,1.5827396473,,,,,,PLC_L_D1S1,P24,60.0187642716,01,A,2015_Mrz_04_1658,X,
stim/negf.jpg,stim/posf.jpg,stim/6.jpg,stim/3.jpg,stim/latef.jpg,EF,1,2,,,,,,,,,0,35,35,49,,,,,,,,,,4,0,1.31622606662,,,,,,PLC_L_D1S1,P24,60.0187642716,01,A,2015_Mrz_04_1658,X,
stim/negf.jpg,stim/posf.jpg,stim/3.jpg,stim/6.jpg,stim/latef.jpg,EF,2,4,,,,,,,,,0,36,36,58,,,,,,,,,,4,1,1.31624700473,,,,,,PLC_L_D1S1,P24,60.0187642716,01,A,2015_Mrz_04_1658,X,
stim/negf.jpg,stim/posf.jpg,stim/3.jpg,stim/6.jpg,stim/latef.jpg,EF,2,4,,,,,,,,,0,37,37,56,,,,,,,,,,2,0,0.666437966489,,,,,,PLC_L_D1S1,P24,60.0187642716,01,A,2015_Mrz_04_1658,X,
stim/posf.jpg,stim/negf.jpg,stim/1.jpg,stim/4.jpg,stim/latef.jpg,AB,1,2,,,,,,,,,0,38,38,4,,,,,,,,,,2,1,1.38285739334,,,,,,PLC_L_D1S1,P24,60.0187642716,01,A,2015_Mrz_04_1658,X,
stim/posf.jpg,stim/negf.jpg,stim/5.jpg,stim/2.jpg,stim/latef.jpg,CD,1,2,,,,,,,,,0,39,39,24,,,,,,,,,,4,0,0.983007436758,,,,,,PLC_L_D1S1,P24,60.0187642716,01,A,2015_Mrz_04_1658,X,
stim/posf.jpg,stim/negf.jpg,stim/1.jpg,stim/4.jpg,stim/latef.jpg,AB,1,2,,,,,,,,,0,40,40,3,,,,,,,,,,2,1,0.416572498805,,,,,,PLC_L_D1S1,P24,60.0187642716,01,A,2015_Mrz_04_1658,X,
stim/posf.jpg,stim/negf.jpg,stim/6.jpg,stim/3.jpg,stim/latef.jpg,EF,1,2,,,,,,,,,0,41,41,44,,,,,,,,,,4,0,1.21625677304,,,,,,PLC_L_D1S1,P24,60.0187642716,01,A,2015_Mrz_04_1658,X,
stim/negf.jpg,stim/posf.jpg,stim/4.jpg,stim/1.jpg,stim/latef.jpg,AB,2,4,,,,,,,,,0,42,42,18,,,,,,,,,,4,1,1.1496241892,,,,,,PLC_L_D1S1,P24,60.0187642716,01,A,2015_Mrz_04_1658,X,
stim/posf.jpg,stim/negf.jpg,stim/4.jpg,stim/1.jpg,stim/latef.jpg,AB,2,4,,,,,,,,,0,43,43,16,,,,,,,,,,2,0,0.783010982583,,,,,,PLC_L_D1S1,P24,60.0187642716,01,A,2015_Mrz_04_1658,X,
stim/negf.jpg,stim/posf.jpg,stim/1.jpg,stim/4.jpg,stim/latef.jpg,AB,1,2,,,,,,,,,0,44,44,9,,,,,,,,,,4,0,0.766392126405,,,,,,PLC_L_D1S1,P24,60.0187642716,01,A,2015_Mrz_04_1658,X,
stim/posf.jpg,stim/negf.jpg,stim/4.jpg,stim/1.jpg,stim/latef.jpg,AB,2,4,,,,,,,,,0,45,45,14,,,,,,,,,,4,1,0.966335832301,,,,,,PLC_L_D1S1,P24,60.0187642716,01,A,2015_Mrz_04_1658,X,
stim/posf.jpg,stim/negf.jpg,stim/6.jpg,stim/3.jpg,stim/latef.jpg,EF,1,2,,,,,,,,,0,46,46,42,,,,,,,,,,4,0,1.13302297192,,,,,,PLC_L_D1S1,P24,60.0187642716,01,A,2015_Mrz_04_1658,X,
stim/posf.jpg,stim/negf.jpg,stim/2.jpg,stim/5.jpg,stim/latef.jpg,CD,2,4,,,,,,,,,0,47,47,36,,,,,,,,,,4,1,1.21628805389,,,,,,PLC_L_D1S1,P24,60.0187642716,01,A,2015_Mrz_04_1658,X,
stim/posf.jpg,stim/negf.jpg,stim/5.jpg,stim/2.jpg,stim/latef.jpg,CD,1,2,,,,,,,,,0,48,48,20,,,,,,,,,,2,1,1.06624216419,,,,,,PLC_L_D1S1,P24,60.0187642716,01,A,2015_Mrz_04_1658,X,
stim/posf.jpg,stim/negf.jpg,stim/5.jpg,stim/2.jpg,stim/latef.jpg,CD,1,2,,,,,,,,,0,49,49,21,,,,,,,,,,4,0,1.24957185896,,,,,,PLC_L_D1S1,P24,60.0187642716,01,A,2015_Mrz_04_1658,X,
stim/posf.jpg,stim/negf.jpg,stim/6.jpg,stim/3.jpg,stim/latef.jpg,EF,1,2,,,,,,,,,0,50,50,41,,,,,,,,,,2,1,0.883070578902,,,,,,PLC_L_D1S1,P24,60.0187642716,01,A,2015_Mrz_04_1658,X,
stim/posf.jpg,stim/negf.jpg,stim/6.jpg,stim/3.jpg,stim/latef.jpg,EF,1,2,,,,,,,,,0,51,51,45,,,,,,,,,,2,1,1.13295948692,,,,,,PLC_L_D1S1,P24,60.0187642716,01,A,2015_Mrz_04_1658,X,
stim/negf.jpg,stim/posf.jpg,stim/2.jpg,stim/5.jpg,stim/latef.jpg,CD,2,4,,,,,,,,,0,52,52,38,,,,,,,,,,4,1,1.29957128604,,,,,,PLC_L_D1S1,P24,60.0187642716,01,A,2015_Mrz_04_1658,X,
stim/negf.jpg,stim/posf.jpg,stim/3.jpg,stim/6.jpg,stim/latef.jpg,EF,2,4,,,,,,,,,0,53,53,57,,,,,,,,,,2,0,0.983004826261,,,,,,PLC_L_D1S1,P24,60.0187642716,01,A,2015_Mrz_04_1658,X,
stim/posf.jpg,stim/negf.jpg,stim/1.jpg,stim/4.jpg,stim/latef.jpg,AB,1,2,,,,,,,,,0,54,54,6,,,,,,,,,,2,1,0.949693571878,,,,,,PLC_L_D1S1,P24,60.0187642716,01,A,2015_Mrz_04_1658,X,
stim/posf.jpg,stim/negf.jpg,stim/3.jpg,stim/6.jpg,stim/latef.jpg,EF,2,4,,,,,,,,,0,55,55,55,,,,,,,,,,2,0,1.01635197498,,,,,,PLC_L_D1S1,P24,60.0187642716,01,A,2015_Mrz_04_1658,X,
stim/posf.jpg,stim/negf.jpg,stim/1.jpg,stim/4.jpg,stim/latef.jpg,AB,1,2,,,,,,,,,0,56,56,0,,,,,,,,,,2,1,0.816391869264,,,,,,PLC_L_D1S1,P24,60.0187642716,01,A,2015_Mrz_04_1658,X,
stim/posf.jpg,stim/negf.jpg,stim/4.jpg,stim/1.jpg,stim/latef.jpg,AB,2,4,,,,,,,,,0,57,57,10,,,,,,,,,,4,1,0.81639057304,,,,,,PLC_L_D1S1,P24,60.0187642716,01,A,2015_Mrz_04_1658,X,
stim/posf.jpg,stim/negf.jpg,stim/4.jpg,stim/1.jpg,stim/latef.jpg,AB,2,4,,,,,,,,,0,58,58,17,,,,,,,,,,4,1,0.949733381955,,,,,,PLC_L_D1S1,P24,60.0187642716,01,A,2015_Mrz_04_1658,X,
stim/posf.jpg,stim/negf.jpg,stim/5.jpg,stim/2.jpg,stim/latef.jpg,CD,1,2,,,,,,,,,0,59,59,22,,,,,,,,,,2,1,1.36619087153,,,,,,PLC_L_D1S1,P24,60.0187642716,01,A,2015_Mrz_04_1658,X,
,,,,,,,,,,,,,,,,,,,,,,,,,,,,,,,,-1.0,0.9921875,1,0,0,PLC_L_D1S1,P24,60.0187642716,01,A,2015_Mrz_04_1658,X,
stim/posf.jpg,stim/negf.jpg,stim/2.jpg,stim/5.jpg,stim/latef.jpg,CD,2,4,,,,,,,,,,,,,0,0,0,32,,,,,,4,1,1.21632399634,,,,,,PLC_L_D1S1,P24,60.0187642716,01,A,2015_Mrz_04_1658,X,
stim/posf.jpg,stim/negf.jpg,stim/4.jpg,stim/1.jpg,stim/latef.jpg,AB,2,4,,,,,,,,,,,,,0,1,1,12,,,,,,4,1,0.966306070231,,,,,,PLC_L_D1S1,P24,60.0187642716,01,A,2015_Mrz_04_1658,X,
stim/posf.jpg,stim/negf.jpg,stim/2.jpg,stim/5.jpg,stim/latef.jpg,CD,2,4,,,,,,,,,,,,,0,2,2,36,,,,,,4,1,0.683100217668,,,,,,PLC_L_D1S1,P24,60.0187642716,01,A,2015_Mrz_04_1658,X,
stim/posf.jpg,stim/negf.jpg,stim/5.jpg,stim/2.jpg,stim/latef.jpg,CD,1,2,,,,,,,,,,,,,0,3,3,23,,,,,,2,1,0.816392167006,,,,,,PLC_L_D1S1,P24,60.0187642716,01,A,2015_Mrz_04_1658,X,
stim/posf.jpg,stim/negf.jpg,stim/1.jpg,stim/4.jpg,stim/latef.jpg,AB,1,2,,,,,,,,,,,,,0,4,4,4,,,,,,2,1,0.799697868069,,,,,,PLC_L_D1S1,P24,60.0187642716,01,A,2015_Mrz_04_1658,X,
stim/posf.jpg,stim/negf.jpg,stim/1.jpg,stim/4.jpg,stim/latef.jpg,AB,1,2,,,,,,,,,,,,,0,5,5,0,,,,,,2,1,0.716434286831,,,,,,PLC_L_D1S1,P24,60.0187642716,01,A,2015_Mrz_04_1658,X,
stim/posf.jpg,stim/negf.jpg,stim/3.jpg,stim/6.jpg,stim/latef.jpg,EF,2,4,,,,,,,,,,,,,0,6,6,54,,,,,,4,1,0.983021656146,,,,,,PLC_L_D1S1,P24,60.0187642716,01,A,2015_Mrz_04_1658,X,
stim/posf.jpg,stim/negf.jpg,stim/6.jpg,stim/3.jpg,stim/latef.jpg,EF,1,2,,,,,,,,,,,,,0,7,7,43,,,,,,2,1,1.16631070477,,,,,,PLC_L_D1S1,P24,60.0187642716,01,A,2015_Mrz_04_1658,X,
stim/negf.jpg,stim/posf.jpg,stim/2.jpg,stim/5.jpg,stim/latef.jpg,CD,2,4,,,,,,,,,,,,,0,8,8,39,,,,,,4,1,0.799665300015,,,,,,PLC_L_D1S1,P24,60.0187642716,01,A,2015_Mrz_04_1658,X,
stim/posf.jpg,stim/negf.jpg,stim/2.jpg,stim/5.jpg,stim/latef.jpg,CD,2,4,,,,,,,,,,,,,0,9,9,31,,,,,,2,0,0.899713681423,,,,,,PLC_L_D1S1,P24,60.0187642716,01,A,2015_Mrz_04_1658,X,
stim/posf.jpg,stim/negf.jpg,stim/3.jpg,stim/6.jpg,stim/latef.jpg,EF,2,4,,,,,,,,,,,,,0,10,10,55,,,,,,4,1,1.04966551505,,,,,,PLC_L_D1S1,P24,60.0187642716,01,A,2015_Mrz_04_1658,X,
stim/posf.jpg,stim/negf.jpg,stim/2.jpg,stim/5.jpg,stim/latef.jpg,CD,2,4,,,,,,,,,,,,,0,11,11,34,,,,,,4,1,0.89970066503,,,,,,PLC_L_D1S1,P24,60.0187642716,01,A,2015_Mrz_04_1658,X,
stim/negf.jpg,stim/posf.jpg,stim/5.jpg,stim/2.jpg,stim/latef.jpg,CD,1,2,,,,,,,,,,,,,0,12,12,29,,,,,,2,1,1.56615852302,,,,,,PLC_L_D1S1,P24,60.0187642716,01,A,2015_Mrz_04_1658,X,
stim/negf.jpg,stim/posf.jpg,stim/3.jpg,stim/6.jpg,stim/latef.jpg,EF,2,4,,,,,,,,,,,,,0,13,13,59,,,,,,4,1,1.1329481066,,,,,,PLC_L_D1S1,P24,60.0187642716,01,A,2015_Mrz_04_1658,X,
stim/posf.jpg,stim/negf.jpg,stim/5.jpg,stim/2.jpg,stim/latef.jpg,CD,1,2,,,,,,,,,,,,,0,14,14,21,,,,,,2,1,1.19959835942,,,,,,PLC_L_D1S1,P24,60.0187642716,01,A,2015_Mrz_04_1658,X,
stim/negf.jpg,stim/posf.jpg,stim/5.jpg,stim/2.jpg,stim/latef.jpg,CD,1,2,,,,,,,,,,,,,0,15,15,27,,,,,,2,1,1.13298970914,,,,,,PLC_L_D1S1,P24,60.0187642716,01,A,2015_Mrz_04_1658,X,
stim/negf.jpg,stim/posf.jpg,stim/3.jpg,stim/6.jpg,stim/latef.jpg,EF,2,4,,,,,,,,,,,,,0,16,16,57,,,,,,4,1,1.1162757593,,,,,,PLC_L_D1S1,P24,60.0187642716,01,A,2015_Mrz_04_1658,X,
stim/negf.jpg,stim/posf.jpg,stim/1.jpg,stim/4.jpg,stim/latef.jpg,AB,1,2,,,,,,,,,,,,,0,17,17,8,,,,,,2,1,0.966409284107,,,,,,PLC_L_D1S1,P24,60.0187642716,01,A,2015_Mrz_04_1658,X,
stim/posf.jpg,stim/negf.jpg,stim/3.jpg,stim/6.jpg,stim/latef.jpg,EF,2,4,,,,,,,,,,,,,0,18,18,53,,,,,,2,0,1.29959189633,,,,,,PLC_L_D1S1,P24,60.0187642716,01,A,2015_Mrz_04_1658,X,
stim/posf.jpg,stim/negf.jpg,stim/5.jpg,stim/2.jpg,stim/latef.jpg,CD,1,2,,,,,,,,,,,,,0,19,19,24,,,,,,2,1,1.0663113213,,,,,,PLC_L_D1S1,P24,60.0187642716,01,A,2015_Mrz_04_1658,X,
stim/posf.jpg,stim/negf.jpg,stim/4.jpg,stim/1.jpg,stim/latef.jpg,AB,2,4,,,,,,,,,,,,,0,20,20,14,,,,,,4,1,1.31622934178,,,,,,PLC_L_D1S1,P24,60.0187642716,01,A,2015_Mrz_04_1658,X,
stim/posf.jpg,stim/negf.jpg,stim/1.jpg,stim/4.jpg,stim/latef.jpg,AB,1,2,,,,,,,,,,,,,0,21,21,5,,,,,,2,1,0.633118724225,,,,,,PLC_L_D1S1,P24,60.0187642716,01,A,2015_Mrz_04_1658,X,
stim/posf.jpg,stim/negf.jpg,stim/4.jpg,stim/1.jpg,stim/latef.jpg,AB,2,4,,,,,,,,,,,,,0,22,22,11,,,,,,4,1,0.749723024177,,,,,,PLC_L_D1S1,P24,60.0187642716,01,A,2015_Mrz_04_1658,X,
stim/posf.jpg,stim/negf.jpg,stim/4.jpg,stim/1.jpg,stim/latef.jpg,AB,2,4,,,,,,,,,,,,,0,23,23,16,,,,,,4,1,0.649760184659,,,,,,PLC_L_D1S1,P24,60.0187642716,01,A,2015_Mrz_04_1658,X,
stim/negf.jpg,stim/posf.jpg,stim/6.jpg,stim/3.jpg,stim/latef.jpg,EF,1,2,,,,,,,,,,,,,0,24,24,48,,,,,,2,1,0.916294399687,,,,,,PLC_L_D1S1,P24,60.0187642716,01,A,2015_Mrz_04_1658,X,
stim/posf.jpg,stim/negf.jpg,stim/6.jpg,stim/3.jpg,stim/latef.jpg,EF,1,2,,,,,,,,,,,,,0,25,25,41,,,,,,4,0,0.583155805009,,,,,,PLC_L_D1S1,P24,60.0187642716,01,A,2015_Mrz_04_1658,X,
stim/negf.jpg,stim/posf.jpg,stim/3.jpg,stim/6.jpg,stim/latef.jpg,EF,2,4,,,,,,,,,,,,,0,26,26,58,,,,,,4,1,0.999673197672,,,,,,PLC_L_D1S1,P24,60.0187642716,01,A,2015_Mrz_04_1658,X,
stim/posf.jpg,stim/negf.jpg,stim/6.jpg,stim/3.jpg,stim/latef.jpg,EF,1,2,,,,,,,,,,,,,0,27,27,45,,,,,,4,0,1.21623399435,,,,,,PLC_L_D1S1,P24,60.0187642716,01,A,2015_Mrz_04_1658,X,
stim/negf.jpg,stim/posf.jpg,stim/5.jpg,stim/2.jpg,stim/latef.jpg,CD,1,2,,,,,,,,,,,,,0,28,28,28,,,,,,2,1,0.7997282166,,,,,,PLC_L_D1S1,P24,60.0187642716,01,A,2015_Mrz_04_1658,X,
stim/posf.jpg,stim/negf.jpg,stim/5.jpg,stim/2.jpg,stim/latef.jpg,CD,1,2,,,,,,,,,,,,,0,29,29,25,,,,,,4,0,0.5831354293,,,,,,PLC_L_D1S1,P24,60.0187642716,01,A,2015_Mrz_04_1658,X,
stim/negf.jpg,stim/posf.jpg,stim/6.jpg,stim/3.jpg,stim/latef.jpg,EF,1,2,,,,,,,,,,,,,0,30,30,46,,,,,,2,1,0.982980297216,,,,,,PLC_L_D1S1,P24,60.0187642716,01,A,2015_Mrz_04_1658,X,
stim/posf.jpg,stim/negf.jpg,stim/1.jpg,stim/4.jpg,stim/latef.jpg,AB,1,2,,,,,,,,,,,,,0,31,31,7,,,,,,2,1,0.982971340924,,,,,,PLC_L_D1S1,P24,60.0187642716,01,A,2015_Mrz_04_1658,X,
stim/posf.jpg,stim/negf.jpg,stim/5.jpg,stim/2.jpg,stim/latef.jpg,CD,1,2,,,,,,,,,,,,,0,32,32,26,,,,,,2,1,1.28288008481,,,,,,PLC_L_D1S1,P24,60.0187642716,01,A,2015_Mrz_04_1658,X,
stim/posf.jpg,stim/negf.jpg,stim/3.jpg,stim/6.jpg,stim/latef.jpg,EF,2,4,,,,,,,,,,,,,0,33,33,50,,,,,,4,1,0.73307411721,,,,,,PLC_L_D1S1,P24,60.0187642716,01,A,2015_Mrz_04_1658,X,
stim/negf.jpg,stim/posf.jpg,stim/1.jpg,stim/4.jpg,stim/latef.jpg,AB,1,2,,,,,,,,,,,,,0,34,34,9,,,,,,2,1,0.61645077687,,,,,,PLC_L_D1S1,P24,60.0187642716,01,A,2015_Mrz_04_1658,X,
stim/negf.jpg,stim/posf.jpg,stim/4.jpg,stim/1.jpg,stim/latef.jpg,AB,2,4,,,,,,,,,,,,,0,35,35,18,,,,,,2,0,1.09960951117,,,,,,PLC_L_D1S1,P24,60.0187642716,01,A,2015_Mrz_04_1658,X,
stim/negf.jpg,stim/posf.jpg,stim/2.jpg,stim/5.jpg,stim/latef.jpg,CD,2,4,,,,,,,,,,,,,0,36,36,37,,,,,,4,1,1.0328778698,,,,,,PLC_L_D1S1,P24,60.0187642716,01,A,2015_Mrz_04_1658,X,
stim/posf.jpg,stim/negf.jpg,stim/5.jpg,stim/2.jpg,stim/latef.jpg,CD,1,2,,,,,,,,,,,,,0,37,37,22,,,,,,2,1,0.999626686918,,,,,,PLC_L_D1S1,P24,60.0187642716,01,A,2015_Mrz_04_1658,X,
stim/posf.jpg,stim/negf.jpg,stim/2.jpg,stim/5.jpg,stim/latef.jpg,CD,2,4,,,,,,,,,,,,,0,38,38,33,,,,,,4,1,0.849710413791,,,,,,PLC_L_D1S1,P24,60.0187642716,01,A,2015_Mrz_04_1658,X,
stim/posf.jpg,stim/negf.jpg,stim/4.jpg,stim/1.jpg,stim/latef.jpg,AB,2,4,,,,,,,,,,,,,0,39,39,15,,,,,,4,1,1.18294637579,,,,,,PLC_L_D1S1,P24,60.0187642716,01,A,2015_Mrz_04_1658,X,
stim/posf.jpg,stim/negf.jpg,stim/1.jpg,stim/4.jpg,stim/latef.jpg,AB,1,2,,,,,,,,,,,,,0,40,40,2,,,,,,2,1,0.783062639144,,,,,,PLC_L_D1S1,P24,60.0187642716,01,A,2015_Mrz_04_1658,X,
stim/posf.jpg,stim/negf.jpg,stim/6.jpg,stim/3.jpg,stim/latef.jpg,EF,1,2,,,,,,,,,,,,,0,41,41,40,,,,,,2,1,0.916417959195,,,,,,PLC_L_D1S1,P24,60.0187642716,01,A,2015_Mrz_04_1658,X,
stim/posf.jpg,stim/negf.jpg,stim/3.jpg,stim/6.jpg,stim/latef.jpg,EF,2,4,,,,,,,,,,,,,0,42,42,52,,,,,,4,1,0.583116247562,,,,,,PLC_L_D1S1,P24,60.0187642716,01,A,2015_Mrz_04_1658,X,
stim/posf.jpg,stim/negf.jpg,stim/2.jpg,stim/5.jpg,stim/latef.jpg,CD,2,4,,,,,,,,,,,,,0,43,43,35,,,,,,4,1,0.766439536395,,,,,,PLC_L_D1S1,P24,60.0187642716,01,A,2015_Mrz_04_1658,X,
stim/posf.jpg,stim/negf.jpg,stim/1.jpg,stim/4.jpg,stim/latef.jpg,AB,1,2,,,,,,,,,,,,,0,44,44,6,,,,,,2,1,0.716340206689,,,,,,PLC_L_D1S1,P24,60.0187642716,01,A,2015_Mrz_04_1658,X,
stim/posf.jpg,stim/negf.jpg,stim/2.jpg,stim/5.jpg,stim/latef.jpg,CD,2,4,,,,,,,,,,,,,0,45,45,30,,,,,,4,1,0.932956323048,,,,,,PLC_L_D1S1,P24,60.0187642716,01,A,2015_Mrz_04_1658,X,
stim/posf.jpg,stim/negf.jpg,stim/4.jpg,stim/1.jpg,stim/latef.jpg,AB,2,4,,,,,,,,,,,,,0,46,46,13,,,,,,4,1,0.716419724589,,,,,,PLC_L_D1S1,P24,60.0187642716,01,A,2015_Mrz_04_1658,X,
stim/posf.jpg,stim/negf.jpg,stim/6.jpg,stim/3.jpg,stim/latef.jpg,EF,1,2,,,,,,,,,,,,,0,47,47,44,,,,,,2,1,1.04963264926,,,,,,PLC_L_D1S1,P24,60.0187642716,01,A,2015_Mrz_04_1658,X,
stim/negf.jpg,stim/posf.jpg,stim/3.jpg,stim/6.jpg,stim/latef.jpg,EF,2,4,,,,,,,,,,,,,0,48,48,56,,,,,,4,1,0.583147961488,,,,,,PLC_L_D1S1,P24,60.0187642716,01,A,2015_Mrz_04_1658,X,
stim/negf.jpg,stim/posf.jpg,stim/4.jpg,stim/1.jpg,stim/latef.jpg,AB,2,4,,,,,,,,,,,,,0,49,49,19,,,,,,4,1,0.916317286647,,,,,,PLC_L_D1S1,P24,60.0187642716,01,A,2015_Mrz_04_1658,X,
stim/posf.jpg,stim/negf.jpg,stim/5.jpg,stim/2.jpg,stim/latef.jpg,CD,1,2,,,,,,,,,,,,,0,50,50,20,,,,,,2,1,0.666487310293,,,,,,PLC_L_D1S1,P24,60.0187642716,01,A,2015_Mrz_04_1658,X,
stim/posf.jpg,stim/negf.jpg,stim/3.jpg,stim/6.jpg,stim/latef.jpg,EF,2,4,,,,,,,,,,,,,0,51,51,51,,,,,,4,1,0.649754581715,,,,,,PLC_L_D1S1,P24,60.0187642716,01,A,2015_Mrz_04_1658,X,
stim/negf.jpg,stim/posf.jpg,stim/6.jpg,stim/3.jpg,stim/latef.jpg,EF,1,2,,,,,,,,,,,,,0,52,52,49,,,,,,2,1,0.683105649185,,,,,,PLC_L_D1S1,P24,60.0187642716,01,A,2015_Mrz_04_1658,X,
stim/negf.jpg,stim/posf.jpg,stim/6.jpg,stim/3.jpg,stim/latef.jpg,EF,1,2,,,,,,,,,,,,,0,53,53,47,,,,,,4,0,0.533166642481,,,,,,PLC_L_D1S1,P24,60.0187642716,01,A,2015_Mrz_04_1658,X,
stim/posf.jpg,stim/negf.jpg,stim/1.jpg,stim/4.jpg,stim/latef.jpg,AB,1,2,,,,,,,,,,,,,0,54,54,3,,,,,,4,0,0.799720643752,,,,,,PLC_L_D1S1,P24,60.0187642716,01,A,2015_Mrz_04_1658,X,
stim/posf.jpg,stim/negf.jpg,stim/4.jpg,stim/1.jpg,stim/latef.jpg,AB,2,4,,,,,,,,,,,,,0,55,55,10,,,,,,2,0,0.449887894496,,,,,,PLC_L_D1S1,P24,60.0187642716,01,A,2015_Mrz_04_1658,X,
stim/posf.jpg,stim/negf.jpg,stim/6.jpg,stim/3.jpg,stim/latef.jpg,EF,1,2,,,,,,,,,,,,,0,56,56,42,,,,,,4,0,1.51619699928,,,,,,PLC_L_D1S1,P24,60.0187642716,01,A,2015_Mrz_04_1658,X,
stim/negf.jpg,stim/posf.jpg,stim/2.jpg,stim/5.jpg,stim/latef.jpg,CD,2,4,,,,,,,,,,,,,0,57,57,38,,,,,,4,1,1.06625800461,,,,,,PLC_L_D1S1,P24,60.0187642716,01,A,2015_Mrz_04_1658,X,
stim/posf.jpg,stim/negf.jpg,stim/1.jpg,stim/4.jpg,stim/latef.jpg,AB,1,2,,,,,,,,,,,,,0,58,58,1,,,,,,2,1,0.816352402042,,,,,,PLC_L_D1S1,P24,60.0187642716,01,A,2015_Mrz_04_1658,X,
stim/posf.jpg,stim/negf.jpg,stim/4.jpg,stim/1.jpg,stim/latef.jpg,AB,2,4,,,,,,,,,,,,,0,59,59,17,,,,,,4,1,1.13294876223,,,,,,PLC_L_D1S1,P24,60.0187642716,01,A,2015_Mrz_04_1658,X,
