fb_corr,fb_incorr,symbol2,symbol1,fb_late,pair,position,correct,block_01.thisRepN,block_01.thisTrialN,block_01.thisN,block_01.thisIndex,block_02.thisRepN,block_02.thisTrialN,block_02.thisN,block_02.thisIndex,block_03.thisRepN,block_03.thisTrialN,block_03.thisN,block_03.thisIndex,block_04.thisRepN,block_04.thisTrialN,block_04.thisN,block_04.thisIndex,mouse.x,mouse.y,mouse.leftButton,mouse.midButton,mouse.rightButton,buttonBox_2.keys,buttonBox_2.corr,buttonBox_2.rt,mouse_2.x,mouse_2.y,mouse_2.leftButton,mouse_2.midButton,mouse_2.rightButton,expName,Participant,frameRate,SessionNumber,Version,date,Group,
,,,,,,,,,,,,,,,,,,,,,,,,0.9984375,1.0,1,0,0,,,,,,,,,PLC_L_D1S1,P25,60.013421557,01,B,2015_Jul_22_1627,X,
stim/posf.jpg,stim/negf.jpg,stim/2.jpg,stim/6.jpg,stim/latef.jpg,EF,1,2,0,0,0,44,,,,,,,,,,,,,,,,,,2,1,1.04968790878,,,,,,PLC_L_D1S1,P25,60.013421557,01,B,2015_Jul_22_1627,X,
stim/negf.jpg,stim/posf.jpg,stim/6.jpg,stim/2.jpg,stim/latef.jpg,EF,2,4,0,1,1,56,,,,,,,,,,,,,,,,,,None,0,,,,,,,PLC_L_D1S1,P25,60.013421557,01,B,2015_Jul_22_1627,X,
stim/posf.jpg,stim/negf.jpg,stim/2.jpg,stim/6.jpg,stim/latef.jpg,EF,1,2,0,2,2,43,,,,,,,,,,,,,,,,,,2,1,0.966336758608,,,,,,PLC_L_D1S1,P25,60.013421557,01,B,2015_Jul_22_1627,X,
stim/posf.jpg,stim/negf.jpg,stim/5.jpg,stim/3.jpg,stim/latef.jpg,CD,1,2,0,3,3,26,,,,,,,,,,,,,,,,,,4,0,1.13296004932,,,,,,PLC_L_D1S1,P25,60.013421557,01,B,2015_Jul_22_1627,X,
stim/negf.jpg,stim/posf.jpg,stim/5.jpg,stim/3.jpg,stim/latef.jpg,CD,1,2,0,4,4,27,,,,,,,,,,,,,,,,,,2,1,1.03296241621,,,,,,PLC_L_D1S1,P25,60.013421557,01,B,2015_Jul_22_1627,X,
stim/posf.jpg,stim/negf.jpg,stim/2.jpg,stim/6.jpg,stim/latef.jpg,EF,1,2,0,5,5,42,,,,,,,,,,,,,,,,,,2,1,1.5661312722,,,,,,PLC_L_D1S1,P25,60.013421557,01,B,2015_Jul_22_1627,X,
stim/posf.jpg,stim/negf.jpg,stim/3.jpg,stim/5.jpg,stim/latef.jpg,CD,2,4,0,6,6,35,,,,,,,,,,,,,,,,,,4,1,1.01630449882,,,,,,PLC_L_D1S1,P25,60.013421557,01,B,2015_Jul_22_1627,X,
stim/posf.jpg,stim/negf.jpg,stim/3.jpg,stim/5.jpg,stim/latef.jpg,CD,2,4,0,7,7,31,,,,,,,,,,,,,,,,,,4,1,0.949674844269,,,,,,PLC_L_D1S1,P25,60.013421557,01,B,2015_Jul_22_1627,X,
stim/negf.jpg,stim/posf.jpg,stim/5.jpg,stim/3.jpg,stim/latef.jpg,CD,1,2,0,8,8,29,,,,,,,,,,,,,,,,,,2,1,1.18294885697,,,,,,PLC_L_D1S1,P25,60.013421557,01,B,2015_Jul_22_1627,X,
stim/negf.jpg,stim/posf.jpg,stim/3.jpg,stim/5.jpg,stim/latef.jpg,CD,2,4,0,9,9,38,,,,,,,,,,,,,,,,,,4,1,1.11623686349,,,,,,PLC_L_D1S1,P25,60.013421557,01,B,2015_Jul_22_1627,X,
stim/posf.jpg,stim/negf.jpg,stim/1.jpg,stim/4.jpg,stim/latef.jpg,AB,1,2,0,10,10,2,,,,,,,,,,,,,,,,,,2,1,1.08299319331,,,,,,PLC_L_D1S1,P25,60.013421557,01,B,2015_Jul_22_1627,X,
stim/posf.jpg,stim/negf.jpg,stim/3.jpg,stim/5.jpg,stim/latef.jpg,CD,2,4,0,11,11,34,,,,,,,,,,,,,,,,,,4,1,1.31627679989,,,,,,PLC_L_D1S1,P25,60.013421557,01,B,2015_Jul_22_1627,X,
stim/posf.jpg,stim/negf.jpg,stim/3.jpg,stim/5.jpg,stim/latef.jpg,CD,2,4,0,12,12,36,,,,,,,,,,,,,,,,,,4,1,1.24952959779,,,,,,PLC_L_D1S1,P25,60.013421557,01,B,2015_Jul_22_1627,X,
stim/posf.jpg,stim/negf.jpg,stim/1.jpg,stim/4.jpg,stim/latef.jpg,AB,1,2,0,13,13,4,,,,,,,,,,,,,,,,,,2,1,1.24961950354,,,,,,PLC_L_D1S1,P25,60.013421557,01,B,2015_Jul_22_1627,X,
stim/posf.jpg,stim/negf.jpg,stim/4.jpg,stim/1.jpg,stim/latef.jpg,AB,2,4,0,14,14,10,,,,,,,,,,,,,,,,,,4,1,0.999659179784,,,,,,PLC_L_D1S1,P25,60.013421557,01,B,2015_Jul_22_1627,X,
stim/posf.jpg,stim/negf.jpg,stim/4.jpg,stim/1.jpg,stim/latef.jpg,AB,2,4,0,15,15,12,,,,,,,,,,,,,,,,,,4,1,0.983008802157,,,,,,PLC_L_D1S1,P25,60.013421557,01,B,2015_Jul_22_1627,X,
stim/negf.jpg,stim/posf.jpg,stim/2.jpg,stim/6.jpg,stim/latef.jpg,EF,1,2,0,16,16,46,,,,,,,,,,,,,,,,,,2,1,1.2995697853,,,,,,PLC_L_D1S1,P25,60.013421557,01,B,2015_Jul_22_1627,X,
stim/negf.jpg,stim/posf.jpg,stim/2.jpg,stim/6.jpg,stim/latef.jpg,EF,1,2,0,17,17,49,,,,,,,,,,,,,,,,,,2,1,1.26622028473,,,,,,PLC_L_D1S1,P25,60.013421557,01,B,2015_Jul_22_1627,X,
stim/negf.jpg,stim/posf.jpg,stim/6.jpg,stim/2.jpg,stim/latef.jpg,EF,2,4,0,18,18,58,,,,,,,,,,,,,,,,,,4,1,1.39956376432,,,,,,PLC_L_D1S1,P25,60.013421557,01,B,2015_Jul_22_1627,X,
stim/posf.jpg,stim/negf.jpg,stim/1.jpg,stim/4.jpg,stim/latef.jpg,AB,1,2,0,19,19,0,,,,,,,,,,,,,,,,,,2,1,0.816342351026,,,,,,PLC_L_D1S1,P25,60.013421557,01,B,2015_Jul_22_1627,X,
stim/posf.jpg,stim/negf.jpg,stim/3.jpg,stim/5.jpg,stim/latef.jpg,CD,2,4,0,20,20,32,,,,,,,,,,,,,,,,,,4,1,1.46625704522,,,,,,PLC_L_D1S1,P25,60.013421557,01,B,2015_Jul_22_1627,X,
stim/posf.jpg,stim/negf.jpg,stim/1.jpg,stim/4.jpg,stim/latef.jpg,AB,1,2,0,21,21,3,,,,,,,,,,,,,,,,,,2,1,1.01633713304,,,,,,PLC_L_D1S1,P25,60.013421557,01,B,2015_Jul_22_1627,X,
stim/posf.jpg,stim/negf.jpg,stim/1.jpg,stim/4.jpg,stim/latef.jpg,AB,1,2,0,22,22,1,,,,,,,,,,,,,,,,,,2,1,0.899722240727,,,,,,PLC_L_D1S1,P25,60.013421557,01,B,2015_Jul_22_1627,X,
stim/negf.jpg,stim/posf.jpg,stim/2.jpg,stim/6.jpg,stim/latef.jpg,EF,1,2,0,23,23,48,,,,,,,,,,,,,,,,,,4,0,1.23291196265,,,,,,PLC_L_D1S1,P25,60.013421557,01,B,2015_Jul_22_1627,X,
stim/posf.jpg,stim/negf.jpg,stim/3.jpg,stim/5.jpg,stim/latef.jpg,CD,2,4,0,24,24,33,,,,,,,,,,,,,,,,,,4,1,1.18294378635,,,,,,PLC_L_D1S1,P25,60.013421557,01,B,2015_Jul_22_1627,X,
stim/negf.jpg,stim/posf.jpg,stim/3.jpg,stim/5.jpg,stim/latef.jpg,CD,2,4,0,25,25,37,,,,,,,,,,,,,,,,,,4,1,1.3662141254,,,,,,PLC_L_D1S1,P25,60.013421557,01,B,2015_Jul_22_1627,X,
stim/negf.jpg,stim/posf.jpg,stim/5.jpg,stim/3.jpg,stim/latef.jpg,CD,1,2,0,26,26,28,,,,,,,,,,,,,,,,,,4,0,1.13296218163,,,,,,PLC_L_D1S1,P25,60.013421557,01,B,2015_Jul_22_1627,X,
stim/posf.jpg,stim/negf.jpg,stim/5.jpg,stim/3.jpg,stim/latef.jpg,CD,1,2,0,27,27,25,,,,,,,,,,,,,,,,,,2,1,0.999685666703,,,,,,PLC_L_D1S1,P25,60.013421557,01,B,2015_Jul_22_1627,X,
stim/posf.jpg,stim/negf.jpg,stim/4.jpg,stim/1.jpg,stim/latef.jpg,AB,2,4,0,28,28,13,,,,,,,,,,,,,,,,,,4,1,0.89971361526,,,,,,PLC_L_D1S1,P25,60.013421557,01,B,2015_Jul_22_1627,X,
stim/posf.jpg,stim/negf.jpg,stim/1.jpg,stim/4.jpg,stim/latef.jpg,AB,1,2,0,29,29,7,,,,,,,,,,,,,,,,,,2,1,0.716451095664,,,,,,PLC_L_D1S1,P25,60.013421557,01,B,2015_Jul_22_1627,X,
stim/posf.jpg,stim/negf.jpg,stim/2.jpg,stim/6.jpg,stim/latef.jpg,EF,1,2,0,30,30,41,,,,,,,,,,,,,,,,,,4,0,1.28288806066,,,,,,PLC_L_D1S1,P25,60.013421557,01,B,2015_Jul_22_1627,X,
stim/posf.jpg,stim/negf.jpg,stim/6.jpg,stim/2.jpg,stim/latef.jpg,EF,2,4,0,31,31,54,,,,,,,,,,,,,,,,,,4,1,1.06636949207,,,,,,PLC_L_D1S1,P25,60.013421557,01,B,2015_Jul_22_1627,X,
stim/posf.jpg,stim/negf.jpg,stim/6.jpg,stim/2.jpg,stim/latef.jpg,EF,2,4,0,32,32,53,,,,,,,,,,,,,,,,,,4,1,0.783081204347,,,,,,PLC_L_D1S1,P25,60.013421557,01,B,2015_Jul_22_1627,X,
stim/posf.jpg,stim/negf.jpg,stim/1.jpg,stim/4.jpg,stim/latef.jpg,AB,1,2,0,33,33,5,,,,,,,,,,,,,,,,,,2,1,1.01630936794,,,,,,PLC_L_D1S1,P25,60.013421557,01,B,2015_Jul_22_1627,X,
stim/posf.jpg,stim/negf.jpg,stim/3.jpg,stim/5.jpg,stim/latef.jpg,CD,2,4,0,34,34,30,,,,,,,,,,,,,,,,,,4,1,1.41619080386,,,,,,PLC_L_D1S1,P25,60.013421557,01,B,2015_Jul_22_1627,X,
stim/posf.jpg,stim/negf.jpg,stim/6.jpg,stim/2.jpg,stim/latef.jpg,EF,2,4,0,35,35,52,,,,,,,,,,,,,,,,,,2,0,1.14962610798,,,,,,PLC_L_D1S1,P25,60.013421557,01,B,2015_Jul_22_1627,X,
stim/posf.jpg,stim/negf.jpg,stim/5.jpg,stim/3.jpg,stim/latef.jpg,CD,1,2,0,36,36,21,,,,,,,,,,,,,,,,,,2,1,1.19957830551,,,,,,PLC_L_D1S1,P25,60.013421557,01,B,2015_Jul_22_1627,X,
stim/posf.jpg,stim/negf.jpg,stim/5.jpg,stim/3.jpg,stim/latef.jpg,CD,1,2,0,37,37,24,,,,,,,,,,,,,,,,,,4,0,1.43288889223,,,,,,PLC_L_D1S1,P25,60.013421557,01,B,2015_Jul_22_1627,X,
stim/negf.jpg,stim/posf.jpg,stim/2.jpg,stim/6.jpg,stim/latef.jpg,EF,1,2,0,38,38,47,,,,,,,,,,,,,,,,,,2,1,1.51619458126,,,,,,PLC_L_D1S1,P25,60.013421557,01,B,2015_Jul_22_1627,X,
stim/negf.jpg,stim/posf.jpg,stim/3.jpg,stim/5.jpg,stim/latef.jpg,CD,2,4,0,39,39,39,,,,,,,,,,,,,,,,,,4,1,1.38287963068,,,,,,PLC_L_D1S1,P25,60.013421557,01,B,2015_Jul_22_1627,X,
stim/posf.jpg,stim/negf.jpg,stim/1.jpg,stim/4.jpg,stim/latef.jpg,AB,1,2,0,40,40,6,,,,,,,,,,,,,,,,,,2,1,0.699745681064,,,,,,PLC_L_D1S1,P25,60.013421557,01,B,2015_Jul_22_1627,X,
stim/negf.jpg,stim/posf.jpg,stim/1.jpg,stim/4.jpg,stim/latef.jpg,AB,1,2,0,41,41,8,,,,,,,,,,,,,,,,,,2,1,0.683156698233,,,,,,PLC_L_D1S1,P25,60.013421557,01,B,2015_Jul_22_1627,X,
stim/posf.jpg,stim/negf.jpg,stim/2.jpg,stim/6.jpg,stim/latef.jpg,EF,1,2,0,42,42,45,,,,,,,,,,,,,,,,,,4,0,1.33287172551,,,,,,PLC_L_D1S1,P25,60.013421557,01,B,2015_Jul_22_1627,X,
stim/negf.jpg,stim/posf.jpg,stim/6.jpg,stim/2.jpg,stim/latef.jpg,EF,2,4,0,43,43,57,,,,,,,,,,,,,,,,,,4,1,0.916316306207,,,,,,PLC_L_D1S1,P25,60.013421557,01,B,2015_Jul_22_1627,X,
stim/posf.jpg,stim/negf.jpg,stim/4.jpg,stim/1.jpg,stim/latef.jpg,AB,2,4,0,44,44,16,,,,,,,,,,,,,,,,,,4,1,0.633086183238,,,,,,PLC_L_D1S1,P25,60.013421557,01,B,2015_Jul_22_1627,X,
stim/posf.jpg,stim/negf.jpg,stim/5.jpg,stim/3.jpg,stim/latef.jpg,CD,1,2,0,45,45,22,,,,,,,,,,,,,,,,,,2,1,0.8996787946,,,,,,PLC_L_D1S1,P25,60.013421557,01,B,2015_Jul_22_1627,X,
stim/negf.jpg,stim/posf.jpg,stim/4.jpg,stim/1.jpg,stim/latef.jpg,AB,2,4,0,46,46,19,,,,,,,,,,,,,,,,,,4,1,0.633081407353,,,,,,PLC_L_D1S1,P25,60.013421557,01,B,2015_Jul_22_1627,X,
stim/posf.jpg,stim/negf.jpg,stim/4.jpg,stim/1.jpg,stim/latef.jpg,AB,2,4,0,47,47,11,,,,,,,,,,,,,,,,,,4,1,0.599769292827,,,,,,PLC_L_D1S1,P25,60.013421557,01,B,2015_Jul_22_1627,X,
stim/posf.jpg,stim/negf.jpg,stim/6.jpg,stim/2.jpg,stim/latef.jpg,EF,2,4,0,48,48,51,,,,,,,,,,,,,,,,,,4,1,1.16628670504,,,,,,PLC_L_D1S1,P25,60.013421557,01,B,2015_Jul_22_1627,X,
stim/posf.jpg,stim/negf.jpg,stim/4.jpg,stim/1.jpg,stim/latef.jpg,AB,2,4,0,49,49,14,,,,,,,,,,,,,,,,,,4,1,0.666421214798,,,,,,PLC_L_D1S1,P25,60.013421557,01,B,2015_Jul_22_1627,X,
stim/posf.jpg,stim/negf.jpg,stim/5.jpg,stim/3.jpg,stim/latef.jpg,CD,1,2,0,50,50,23,,,,,,,,,,,,,,,,,,2,1,1.31623629207,,,,,,PLC_L_D1S1,P25,60.013421557,01,B,2015_Jul_22_1627,X,
stim/posf.jpg,stim/negf.jpg,stim/2.jpg,stim/6.jpg,stim/latef.jpg,EF,1,2,0,51,51,40,,,,,,,,,,,,,,,,,,2,1,0.916340603677,,,,,,PLC_L_D1S1,P25,60.013421557,01,B,2015_Jul_22_1627,X,
stim/posf.jpg,stim/negf.jpg,stim/4.jpg,stim/1.jpg,stim/latef.jpg,AB,2,4,0,52,52,17,,,,,,,,,,,,,,,,,,4,1,0.483192869253,,,,,,PLC_L_D1S1,P25,60.013421557,01,B,2015_Jul_22_1627,X,
stim/posf.jpg,stim/negf.jpg,stim/6.jpg,stim/2.jpg,stim/latef.jpg,EF,2,4,0,53,53,55,,,,,,,,,,,,,,,,,,2,0,1.29955889219,,,,,,PLC_L_D1S1,P25,60.013421557,01,B,2015_Jul_22_1627,X,
stim/posf.jpg,stim/negf.jpg,stim/4.jpg,stim/1.jpg,stim/latef.jpg,AB,2,4,0,54,54,15,,,,,,,,,,,,,,,,,,4,1,0.866355149378,,,,,,PLC_L_D1S1,P25,60.013421557,01,B,2015_Jul_22_1627,X,
stim/negf.jpg,stim/posf.jpg,stim/4.jpg,stim/1.jpg,stim/latef.jpg,AB,2,4,0,55,55,18,,,,,,,,,,,,,,,,,,4,1,0.733085413322,,,,,,PLC_L_D1S1,P25,60.013421557,01,B,2015_Jul_22_1627,X,
stim/posf.jpg,stim/negf.jpg,stim/6.jpg,stim/2.jpg,stim/latef.jpg,EF,2,4,0,56,56,50,,,,,,,,,,,,,,,,,,2,0,1.51617202814,,,,,,PLC_L_D1S1,P25,60.013421557,01,B,2015_Jul_22_1627,X,
stim/negf.jpg,stim/posf.jpg,stim/6.jpg,stim/2.jpg,stim/latef.jpg,EF,2,4,0,57,57,59,,,,,,,,,,,,,,,,,,4,1,1.39952735571,,,,,,PLC_L_D1S1,P25,60.013421557,01,B,2015_Jul_22_1627,X,
stim/posf.jpg,stim/negf.jpg,stim/5.jpg,stim/3.jpg,stim/latef.jpg,CD,1,2,0,58,58,20,,,,,,,,,,,,,,,,,,2,1,1.1328869103,,,,,,PLC_L_D1S1,P25,60.013421557,01,B,2015_Jul_22_1627,X,
stim/negf.jpg,stim/posf.jpg,stim/1.jpg,stim/4.jpg,stim/latef.jpg,AB,1,2,0,59,59,9,,,,,,,,,,,,,,,,,,2,1,0.633122946734,,,,,,PLC_L_D1S1,P25,60.013421557,01,B,2015_Jul_22_1627,X,
,,,,,,,,,,,,,,,,,,,,,,,,,,,,,,,,0.9984375,1.0,1,0,0,PLC_L_D1S1,P25,60.013421557,01,B,2015_Jul_22_1627,X,
stim/posf.jpg,stim/negf.jpg,stim/4.jpg,stim/1.jpg,stim/latef.jpg,AB,2,4,,,,,0,0,0,12,,,,,,,,,,,,,,4,1,1.34959858648,,,,,,PLC_L_D1S1,P25,60.013421557,01,B,2015_Jul_22_1627,X,
stim/posf.jpg,stim/negf.jpg,stim/2.jpg,stim/6.jpg,stim/latef.jpg,EF,1,2,,,,,0,1,1,44,,,,,,,,,,,,,,2,1,1.43284003865,,,,,,PLC_L_D1S1,P25,60.013421557,01,B,2015_Jul_22_1627,X,
stim/negf.jpg,stim/posf.jpg,stim/2.jpg,stim/6.jpg,stim/latef.jpg,EF,1,2,,,,,0,2,2,46,,,,,,,,,,,,,,2,1,0.616555870423,,,,,,PLC_L_D1S1,P25,60.013421557,01,B,2015_Jul_22_1627,X,
stim/posf.jpg,stim/negf.jpg,stim/3.jpg,stim/5.jpg,stim/latef.jpg,CD,2,4,,,,,0,3,3,32,,,,,,,,,,,,,,4,1,1.03299110762,,,,,,PLC_L_D1S1,P25,60.013421557,01,B,2015_Jul_22_1627,X,
stim/posf.jpg,stim/negf.jpg,stim/1.jpg,stim/4.jpg,stim/latef.jpg,AB,1,2,,,,,0,4,4,0,,,,,,,,,,,,,,2,1,0.583191251226,,,,,,PLC_L_D1S1,P25,60.013421557,01,B,2015_Jul_22_1627,X,
stim/negf.jpg,stim/posf.jpg,stim/3.jpg,stim/5.jpg,stim/latef.jpg,CD,2,4,,,,,0,5,5,39,,,,,,,,,,,,,,4,1,1.13293596538,,,,,,PLC_L_D1S1,P25,60.013421557,01,B,2015_Jul_22_1627,X,
stim/posf.jpg,stim/negf.jpg,stim/6.jpg,stim/2.jpg,stim/latef.jpg,EF,2,4,,,,,0,6,6,53,,,,,,,,,,,,,,4,1,1.41617956489,,,,,,PLC_L_D1S1,P25,60.013421557,01,B,2015_Jul_22_1627,X,
stim/posf.jpg,stim/negf.jpg,stim/2.jpg,stim/6.jpg,stim/latef.jpg,EF,1,2,,,,,0,7,7,41,,,,,,,,,,,,,,2,1,1.29961829303,,,,,,PLC_L_D1S1,P25,60.013421557,01,B,2015_Jul_22_1627,X,
stim/posf.jpg,stim/negf.jpg,stim/2.jpg,stim/6.jpg,stim/latef.jpg,EF,1,2,,,,,0,8,8,42,,,,,,,,,,,,,,2,1,0.549813116394,,,,,,PLC_L_D1S1,P25,60.013421557,01,B,2015_Jul_22_1627,X,
stim/posf.jpg,stim/negf.jpg,stim/1.jpg,stim/4.jpg,stim/latef.jpg,AB,1,2,,,,,0,9,9,5,,,,,,,,,,,,,,2,1,1.03299963685,,,,,,PLC_L_D1S1,P25,60.013421557,01,B,2015_Jul_22_1627,X,
stim/negf.jpg,stim/posf.jpg,stim/6.jpg,stim/2.jpg,stim/latef.jpg,EF,2,4,,,,,0,10,10,58,,,,,,,,,,,,,,4,1,1.08299803235,,,,,,PLC_L_D1S1,P25,60.013421557,01,B,2015_Jul_22_1627,X,
stim/posf.jpg,stim/negf.jpg,stim/5.jpg,stim/3.jpg,stim/latef.jpg,CD,1,2,,,,,0,11,11,24,,,,,,,,,,,,,,2,1,0.916414007361,,,,,,PLC_L_D1S1,P25,60.013421557,01,B,2015_Jul_22_1627,X,
stim/posf.jpg,stim/negf.jpg,stim/5.jpg,stim/3.jpg,stim/latef.jpg,CD,1,2,,,,,0,12,12,20,,,,,,,,,,,,,,2,1,0.833034240967,,,,,,PLC_L_D1S1,P25,60.013421557,01,B,2015_Jul_22_1627,X,
stim/negf.jpg,stim/posf.jpg,stim/6.jpg,stim/2.jpg,stim/latef.jpg,EF,2,4,,,,,0,13,13,59,,,,,,,,,,,,,,4,1,0.899662379747,,,,,,PLC_L_D1S1,P25,60.013421557,01,B,2015_Jul_22_1627,X,
stim/posf.jpg,stim/negf.jpg,stim/4.jpg,stim/1.jpg,stim/latef.jpg,AB,2,4,,,,,0,14,14,15,,,,,,,,,,,,,,4,1,0.683111339346,,,,,,PLC_L_D1S1,P25,60.013421557,01,B,2015_Jul_22_1627,X,
stim/posf.jpg,stim/negf.jpg,stim/3.jpg,stim/5.jpg,stim/latef.jpg,CD,2,4,,,,,0,15,15,36,,,,,,,,,,,,,,4,1,1.21626689624,,,,,,PLC_L_D1S1,P25,60.013421557,01,B,2015_Jul_22_1627,X,
stim/posf.jpg,stim/negf.jpg,stim/1.jpg,stim/4.jpg,stim/latef.jpg,AB,1,2,,,,,0,16,16,4,,,,,,,,,,,,,,2,1,0.999669567636,,,,,,PLC_L_D1S1,P25,60.013421557,01,B,2015_Jul_22_1627,X,
stim/negf.jpg,stim/posf.jpg,stim/2.jpg,stim/6.jpg,stim/latef.jpg,EF,1,2,,,,,0,17,17,47,,,,,,,,,,,,,,2,1,0.849710988222,,,,,,PLC_L_D1S1,P25,60.013421557,01,B,2015_Jul_22_1627,X,
stim/negf.jpg,stim/posf.jpg,stim/2.jpg,stim/6.jpg,stim/latef.jpg,EF,1,2,,,,,0,18,18,49,,,,,,,,,,,,,,2,1,0.783020859163,,,,,,PLC_L_D1S1,P25,60.013421557,01,B,2015_Jul_22_1627,X,
stim/negf.jpg,stim/posf.jpg,stim/5.jpg,stim/3.jpg,stim/latef.jpg,CD,1,2,,,,,0,19,19,27,,,,,,,,,,,,,,2,1,1.44951124912,,,,,,PLC_L_D1S1,P25,60.013421557,01,B,2015_Jul_22_1627,X,
stim/negf.jpg,stim/posf.jpg,stim/4.jpg,stim/1.jpg,stim/latef.jpg,AB,2,4,,,,,0,20,20,19,,,,,,,,,,,,,,4,1,0.749751026868,,,,,,PLC_L_D1S1,P25,60.013421557,01,B,2015_Jul_22_1627,X,
stim/posf.jpg,stim/negf.jpg,stim/1.jpg,stim/4.jpg,stim/latef.jpg,AB,1,2,,,,,0,21,21,6,,,,,,,,,,,,,,4,0,0.233254566302,,,,,,PLC_L_D1S1,P25,60.013421557,01,B,2015_Jul_22_1627,X,
stim/negf.jpg,stim/posf.jpg,stim/3.jpg,stim/5.jpg,stim/latef.jpg,CD,2,4,,,,,0,22,22,37,,,,,,,,,,,,,,4,1,0.949644110781,,,,,,PLC_L_D1S1,P25,60.013421557,01,B,2015_Jul_22_1627,X,
stim/posf.jpg,stim/negf.jpg,stim/6.jpg,stim/2.jpg,stim/latef.jpg,EF,2,4,,,,,0,23,23,55,,,,,,,,,,,,,,4,1,0.933019332865,,,,,,PLC_L_D1S1,P25,60.013421557,01,B,2015_Jul_22_1627,X,
stim/posf.jpg,stim/negf.jpg,stim/6.jpg,stim/2.jpg,stim/latef.jpg,EF,2,4,,,,,0,24,24,50,,,,,,,,,,,,,,4,1,1.0163497344,,,,,,PLC_L_D1S1,P25,60.013421557,01,B,2015_Jul_22_1627,X,
stim/posf.jpg,stim/negf.jpg,stim/1.jpg,stim/4.jpg,stim/latef.jpg,AB,1,2,,,,,0,25,25,1,,,,,,,,,,,,,,2,1,1.24959217152,,,,,,PLC_L_D1S1,P25,60.013421557,01,B,2015_Jul_22_1627,X,
stim/posf.jpg,stim/negf.jpg,stim/4.jpg,stim/1.jpg,stim/latef.jpg,AB,2,4,,,,,0,26,26,14,,,,,,,,,,,,,,4,1,0.566464766187,,,,,,PLC_L_D1S1,P25,60.013421557,01,B,2015_Jul_22_1627,X,
stim/posf.jpg,stim/negf.jpg,stim/5.jpg,stim/3.jpg,stim/latef.jpg,CD,1,2,,,,,0,27,27,26,,,,,,,,,,,,,,2,1,0.999675143514,,,,,,PLC_L_D1S1,P25,60.013421557,01,B,2015_Jul_22_1627,X,
stim/posf.jpg,stim/negf.jpg,stim/3.jpg,stim/5.jpg,stim/latef.jpg,CD,2,4,,,,,0,28,28,34,,,,,,,,,,,,,,4,1,0.783066990974,,,,,,PLC_L_D1S1,P25,60.013421557,01,B,2015_Jul_22_1627,X,
stim/negf.jpg,stim/posf.jpg,stim/4.jpg,stim/1.jpg,stim/latef.jpg,AB,2,4,,,,,0,29,29,18,,,,,,,,,,,,,,4,1,0.616417959196,,,,,,PLC_L_D1S1,P25,60.013421557,01,B,2015_Jul_22_1627,X,
stim/posf.jpg,stim/negf.jpg,stim/4.jpg,stim/1.jpg,stim/latef.jpg,AB,2,4,,,,,0,30,30,13,,,,,,,,,,,,,,4,1,1.48274602617,,,,,,PLC_L_D1S1,P25,60.013421557,01,B,2015_Jul_22_1627,X,
stim/posf.jpg,stim/negf.jpg,stim/6.jpg,stim/2.jpg,stim/latef.jpg,EF,2,4,,,,,0,31,31,54,,,,,,,,,,,,,,4,1,0.933020448642,,,,,,PLC_L_D1S1,P25,60.013421557,01,B,2015_Jul_22_1627,X,
stim/posf.jpg,stim/negf.jpg,stim/4.jpg,stim/1.jpg,stim/latef.jpg,AB,2,4,,,,,0,32,32,11,,,,,,,,,,,,,,4,1,0.883050016729,,,,,,PLC_L_D1S1,P25,60.013421557,01,B,2015_Jul_22_1627,X,
stim/posf.jpg,stim/negf.jpg,stim/5.jpg,stim/3.jpg,stim/latef.jpg,CD,1,2,,,,,0,33,33,23,,,,,,,,,,,,,,2,1,0.999642331853,,,,,,PLC_L_D1S1,P25,60.013421557,01,B,2015_Jul_22_1627,X,
stim/negf.jpg,stim/posf.jpg,stim/2.jpg,stim/6.jpg,stim/latef.jpg,EF,1,2,,,,,0,34,34,48,,,,,,,,,,,,,,2,1,0.966321778326,,,,,,PLC_L_D1S1,P25,60.013421557,01,B,2015_Jul_22_1627,X,
stim/posf.jpg,stim/negf.jpg,stim/1.jpg,stim/4.jpg,stim/latef.jpg,AB,1,2,,,,,0,35,35,2,,,,,,,,,,,,,,2,1,1.01631452578,,,,,,PLC_L_D1S1,P25,60.013421557,01,B,2015_Jul_22_1627,X,
stim/posf.jpg,stim/negf.jpg,stim/4.jpg,stim/1.jpg,stim/latef.jpg,AB,2,4,,,,,0,36,36,16,,,,,,,,,,,,,,None,0,,,,,,,PLC_L_D1S1,P25,60.013421557,01,B,2015_Jul_22_1627,X,
stim/posf.jpg,stim/negf.jpg,stim/5.jpg,stim/3.jpg,stim/latef.jpg,CD,1,2,,,,,0,37,37,21,,,,,,,,,,,,,,2,1,0.749724879795,,,,,,PLC_L_D1S1,P25,60.013421557,01,B,2015_Jul_22_1627,X,
stim/posf.jpg,stim/negf.jpg,stim/5.jpg,stim/3.jpg,stim/latef.jpg,CD,1,2,,,,,0,38,38,22,,,,,,,,,,,,,,2,1,0.783102683804,,,,,,PLC_L_D1S1,P25,60.013421557,01,B,2015_Jul_22_1627,X,
stim/negf.jpg,stim/posf.jpg,stim/6.jpg,stim/2.jpg,stim/latef.jpg,EF,2,4,,,,,0,39,39,57,,,,,,,,,,,,,,4,1,0.79973756687,,,,,,PLC_L_D1S1,P25,60.013421557,01,B,2015_Jul_22_1627,X,
stim/negf.jpg,stim/posf.jpg,stim/6.jpg,stim/2.jpg,stim/latef.jpg,EF,2,4,,,,,0,40,40,56,,,,,,,,,,,,,,4,1,0.999620602775,,,,,,PLC_L_D1S1,P25,60.013421557,01,B,2015_Jul_22_1627,X,
stim/posf.jpg,stim/negf.jpg,stim/4.jpg,stim/1.jpg,stim/latef.jpg,AB,2,4,,,,,0,41,41,10,,,,,,,,,,,,,,4,1,1.34956591918,,,,,,PLC_L_D1S1,P25,60.013421557,01,B,2015_Jul_22_1627,X,
stim/posf.jpg,stim/negf.jpg,stim/5.jpg,stim/3.jpg,stim/latef.jpg,CD,1,2,,,,,0,42,42,25,,,,,,,,,,,,,,2,1,0.666408625467,,,,,,PLC_L_D1S1,P25,60.013421557,01,B,2015_Jul_22_1627,X,
stim/negf.jpg,stim/posf.jpg,stim/3.jpg,stim/5.jpg,stim/latef.jpg,CD,2,4,,,,,0,43,43,38,,,,,,,,,,,,,,4,1,0.683044374687,,,,,,PLC_L_D1S1,P25,60.013421557,01,B,2015_Jul_22_1627,X,
stim/posf.jpg,stim/negf.jpg,stim/2.jpg,stim/6.jpg,stim/latef.jpg,EF,1,2,,,,,0,44,44,45,,,,,,,,,,,,,,2,1,0.633123752739,,,,,,PLC_L_D1S1,P25,60.013421557,01,B,2015_Jul_22_1627,X,
stim/posf.jpg,stim/negf.jpg,stim/3.jpg,stim/5.jpg,stim/latef.jpg,CD,2,4,,,,,0,45,45,33,,,,,,,,,,,,,,4,1,0.833083112597,,,,,,PLC_L_D1S1,P25,60.013421557,01,B,2015_Jul_22_1627,X,
stim/posf.jpg,stim/negf.jpg,stim/6.jpg,stim/2.jpg,stim/latef.jpg,EF,2,4,,,,,0,46,46,51,,,,,,,,,,,,,,4,1,1.11628393063,,,,,,PLC_L_D1S1,P25,60.013421557,01,B,2015_Jul_22_1627,X,
stim/posf.jpg,stim/negf.jpg,stim/3.jpg,stim/5.jpg,stim/latef.jpg,CD,2,4,,,,,0,47,47,30,,,,,,,,,,,,,,4,1,0.816374079992,,,,,,PLC_L_D1S1,P25,60.013421557,01,B,2015_Jul_22_1627,X,
stim/posf.jpg,stim/negf.jpg,stim/1.jpg,stim/4.jpg,stim/latef.jpg,AB,1,2,,,,,0,48,48,7,,,,,,,,,,,,,,2,1,1.09968679752,,,,,,PLC_L_D1S1,P25,60.013421557,01,B,2015_Jul_22_1627,X,
stim/posf.jpg,stim/negf.jpg,stim/3.jpg,stim/5.jpg,stim/latef.jpg,CD,2,4,,,,,0,49,49,35,,,,,,,,,,,,,,4,1,0.83312519934,,,,,,PLC_L_D1S1,P25,60.013421557,01,B,2015_Jul_22_1627,X,
stim/negf.jpg,stim/posf.jpg,stim/1.jpg,stim/4.jpg,stim/latef.jpg,AB,1,2,,,,,0,50,50,8,,,,,,,,,,,,,,2,1,1.04965054379,,,,,,PLC_L_D1S1,P25,60.013421557,01,B,2015_Jul_22_1627,X,
stim/posf.jpg,stim/negf.jpg,stim/2.jpg,stim/6.jpg,stim/latef.jpg,EF,1,2,,,,,0,51,51,40,,,,,,,,,,,,,,2,1,1.16626781202,,,,,,PLC_L_D1S1,P25,60.013421557,01,B,2015_Jul_22_1627,X,
stim/posf.jpg,stim/negf.jpg,stim/6.jpg,stim/2.jpg,stim/latef.jpg,EF,2,4,,,,,0,52,52,52,,,,,,,,,,,,,,4,1,1.09967488487,,,,,,PLC_L_D1S1,P25,60.013421557,01,B,2015_Jul_22_1627,X,
stim/posf.jpg,stim/negf.jpg,stim/4.jpg,stim/1.jpg,stim/latef.jpg,AB,2,4,,,,,0,53,53,17,,,,,,,,,,,,,,4,1,1.18292625271,,,,,,PLC_L_D1S1,P25,60.013421557,01,B,2015_Jul_22_1627,X,
stim/posf.jpg,stim/negf.jpg,stim/1.jpg,stim/4.jpg,stim/latef.jpg,AB,1,2,,,,,0,54,54,3,,,,,,,,,,,,,,2,1,0.58308170359,,,,,,PLC_L_D1S1,P25,60.013421557,01,B,2015_Jul_22_1627,X,
stim/negf.jpg,stim/posf.jpg,stim/5.jpg,stim/3.jpg,stim/latef.jpg,CD,1,2,,,,,0,55,55,29,,,,,,,,,,,,,,2,1,0.949650300185,,,,,,PLC_L_D1S1,P25,60.013421557,01,B,2015_Jul_22_1627,X,
stim/posf.jpg,stim/negf.jpg,stim/3.jpg,stim/5.jpg,stim/latef.jpg,CD,2,4,,,,,0,56,56,31,,,,,,,,,,,,,,4,1,0.966334502994,,,,,,PLC_L_D1S1,P25,60.013421557,01,B,2015_Jul_22_1627,X,
stim/negf.jpg,stim/posf.jpg,stim/5.jpg,stim/3.jpg,stim/latef.jpg,CD,1,2,,,,,0,57,57,28,,,,,,,,,,,,,,2,1,0.949672411213,,,,,,PLC_L_D1S1,P25,60.013421557,01,B,2015_Jul_22_1627,X,
stim/posf.jpg,stim/negf.jpg,stim/2.jpg,stim/6.jpg,stim/latef.jpg,EF,1,2,,,,,0,58,58,43,,,,,,,,,,,,,,2,1,1.18294265253,,,,,,PLC_L_D1S1,P25,60.013421557,01,B,2015_Jul_22_1627,X,
stim/negf.jpg,stim/posf.jpg,stim/1.jpg,stim/4.jpg,stim/latef.jpg,AB,1,2,,,,,0,59,59,9,,,,,,,,,,,,,,2,1,1.18295641177,,,,,,PLC_L_D1S1,P25,60.013421557,01,B,2015_Jul_22_1627,X,
,,,,,,,,,,,,,,,,,,,,,,,,,,,,,,,,0.9984375,1.0,1,0,0,PLC_L_D1S1,P25,60.013421557,01,B,2015_Jul_22_1627,X,
stim/posf.jpg,stim/negf.jpg,stim/3.jpg,stim/5.jpg,stim/latef.jpg,CD,2,4,,,,,,,,,0,0,0,32,,,,,,,,,,4,1,1.11625055357,,,,,,PLC_L_D1S1,P25,60.013421557,01,B,2015_Jul_22_1627,X,
stim/posf.jpg,stim/negf.jpg,stim/5.jpg,stim/3.jpg,stim/latef.jpg,CD,1,2,,,,,,,,,0,1,1,24,,,,,,,,,,2,1,1.11629868235,,,,,,PLC_L_D1S1,P25,60.013421557,01,B,2015_Jul_22_1627,X,
stim/negf.jpg,stim/posf.jpg,stim/3.jpg,stim/5.jpg,stim/latef.jpg,CD,2,4,,,,,,,,,0,2,2,37,,,,,,,,,,4,1,0.799736237561,,,,,,PLC_L_D1S1,P25,60.013421557,01,B,2015_Jul_22_1627,X,
stim/posf.jpg,stim/negf.jpg,stim/1.jpg,stim/4.jpg,stim/latef.jpg,AB,1,2,,,,,,,,,0,3,3,6,,,,,,,,,,2,1,0.649794250441,,,,,,PLC_L_D1S1,P25,60.013421557,01,B,2015_Jul_22_1627,X,
stim/posf.jpg,stim/negf.jpg,stim/3.jpg,stim/5.jpg,stim/latef.jpg,CD,2,4,,,,,,,,,0,4,4,30,,,,,,,,,,4,1,1.09963541464,,,,,,PLC_L_D1S1,P25,60.013421557,01,B,2015_Jul_22_1627,X,
stim/negf.jpg,stim/posf.jpg,stim/6.jpg,stim/2.jpg,stim/latef.jpg,EF,2,4,,,,,,,,,0,5,5,56,,,,,,,,,,4,1,1.28290321538,,,,,,PLC_L_D1S1,P25,60.013421557,01,B,2015_Jul_22_1627,X,
stim/posf.jpg,stim/negf.jpg,stim/1.jpg,stim/4.jpg,stim/latef.jpg,AB,1,2,,,,,,,,,0,6,6,1,,,,,,,,,,2,1,0.6331132897,,,,,,PLC_L_D1S1,P25,60.013421557,01,B,2015_Jul_22_1627,X,
stim/posf.jpg,stim/negf.jpg,stim/5.jpg,stim/3.jpg,stim/latef.jpg,CD,1,2,,,,,,,,,0,7,7,26,,,,,,,,,,2,1,0.883048515994,,,,,,PLC_L_D1S1,P25,60.013421557,01,B,2015_Jul_22_1627,X,
stim/posf.jpg,stim/negf.jpg,stim/5.jpg,stim/3.jpg,stim/latef.jpg,CD,1,2,,,,,,,,,0,8,8,22,,,,,,,,,,2,1,0.78303044101,,,,,,PLC_L_D1S1,P25,60.013421557,01,B,2015_Jul_22_1627,X,
stim/posf.jpg,stim/negf.jpg,stim/6.jpg,stim/2.jpg,stim/latef.jpg,EF,2,4,,,,,,,,,0,9,9,52,,,,,,,,,,4,1,0.816446082187,,,,,,PLC_L_D1S1,P25,60.013421557,01,B,2015_Jul_22_1627,X,
stim/posf.jpg,stim/negf.jpg,stim/4.jpg,stim/1.jpg,stim/latef.jpg,AB,2,4,,,,,,,,,0,10,10,16,,,,,,,,,,4,1,0.666442405537,,,,,,PLC_L_D1S1,P25,60.013421557,01,B,2015_Jul_22_1627,X,
stim/posf.jpg,stim/negf.jpg,stim/2.jpg,stim/6.jpg,stim/latef.jpg,EF,1,2,,,,,,,,,0,11,11,42,,,,,,,,,,2,1,0.949657728672,,,,,,PLC_L_D1S1,P25,60.013421557,01,B,2015_Jul_22_1627,X,
stim/negf.jpg,stim/posf.jpg,stim/6.jpg,stim/2.jpg,stim/latef.jpg,EF,2,4,,,,,,,,,0,12,12,57,,,,,,,,,,4,1,1.08297504013,,,,,,PLC_L_D1S1,P25,60.013421557,01,B,2015_Jul_22_1627,X,
stim/posf.jpg,stim/negf.jpg,stim/6.jpg,stim/2.jpg,stim/latef.jpg,EF,2,4,,,,,,,,,0,13,13,53,,,,,,,,,,4,1,0.949685174979,,,,,,PLC_L_D1S1,P25,60.013421557,01,B,2015_Jul_22_1627,X,
stim/posf.jpg,stim/negf.jpg,stim/6.jpg,stim/2.jpg,stim/latef.jpg,EF,2,4,,,,,,,,,0,14,14,51,,,,,,,,,,4,1,0.733133539095,,,,,,PLC_L_D1S1,P25,60.013421557,01,B,2015_Jul_22_1627,X,
stim/negf.jpg,stim/posf.jpg,stim/2.jpg,stim/6.jpg,stim/latef.jpg,EF,1,2,,,,,,,,,0,15,15,49,,,,,,,,,,2,1,0.749757820776,,,,,,PLC_L_D1S1,P25,60.013421557,01,B,2015_Jul_22_1627,X,
stim/negf.jpg,stim/posf.jpg,stim/6.jpg,stim/2.jpg,stim/latef.jpg,EF,2,4,,,,,,,,,0,16,16,58,,,,,,,,,,4,1,0.633166810901,,,,,,PLC_L_D1S1,P25,60.013421557,01,B,2015_Jul_22_1627,X,
stim/posf.jpg,stim/negf.jpg,stim/6.jpg,stim/2.jpg,stim/latef.jpg,EF,2,4,,,,,,,,,0,17,17,54,,,,,,,,,,4,1,0.516552234373,,,,,,PLC_L_D1S1,P25,60.013421557,01,B,2015_Jul_22_1627,X,
stim/negf.jpg,stim/posf.jpg,stim/3.jpg,stim/5.jpg,stim/latef.jpg,CD,2,4,,,,,,,,,0,18,18,39,,,,,,,,,,4,1,0.999717233264,,,,,,PLC_L_D1S1,P25,60.013421557,01,B,2015_Jul_22_1627,X,
stim/negf.jpg,stim/posf.jpg,stim/4.jpg,stim/1.jpg,stim/latef.jpg,AB,2,4,,,,,,,,,0,19,19,18,,,,,,,,,,4,1,0.699710352139,,,,,,PLC_L_D1S1,P25,60.013421557,01,B,2015_Jul_22_1627,X,
stim/posf.jpg,stim/negf.jpg,stim/3.jpg,stim/5.jpg,stim/latef.jpg,CD,2,4,,,,,,,,,0,20,20,33,,,,,,,,,,4,1,0.76636661391,,,,,,PLC_L_D1S1,P25,60.013421557,01,B,2015_Jul_22_1627,X,
stim/posf.jpg,stim/negf.jpg,stim/1.jpg,stim/4.jpg,stim/latef.jpg,AB,1,2,,,,,,,,,0,21,21,3,,,,,,,,,,2,1,0.683118707684,,,,,,PLC_L_D1S1,P25,60.013421557,01,B,2015_Jul_22_1627,X,
stim/posf.jpg,stim/negf.jpg,stim/5.jpg,stim/3.jpg,stim/latef.jpg,CD,1,2,,,,,,,,,0,22,22,20,,,,,,,,,,2,1,0.999667275933,,,,,,PLC_L_D1S1,P25,60.013421557,01,B,2015_Jul_22_1627,X,
stim/negf.jpg,stim/posf.jpg,stim/3.jpg,stim/5.jpg,stim/latef.jpg,CD,2,4,,,,,,,,,0,23,23,38,,,,,,,,,,4,1,0.933063831611,,,,,,PLC_L_D1S1,P25,60.013421557,01,B,2015_Jul_22_1627,X,
stim/posf.jpg,stim/negf.jpg,stim/6.jpg,stim/2.jpg,stim/latef.jpg,EF,2,4,,,,,,,,,0,24,24,50,,,,,,,,,,4,1,0.516486941877,,,,,,PLC_L_D1S1,P25,60.013421557,01,B,2015_Jul_22_1627,X,
stim/posf.jpg,stim/negf.jpg,stim/5.jpg,stim/3.jpg,stim/latef.jpg,CD,1,2,,,,,,,,,0,25,25,21,,,,,,,,,,2,1,0.799725563997,,,,,,PLC_L_D1S1,P25,60.013421557,01,B,2015_Jul_22_1627,X,
stim/posf.jpg,stim/negf.jpg,stim/4.jpg,stim/1.jpg,stim/latef.jpg,AB,2,4,,,,,,,,,0,26,26,15,,,,,,,,,,4,1,0.699717329504,,,,,,PLC_L_D1S1,P25,60.013421557,01,B,2015_Jul_22_1627,X,
stim/posf.jpg,stim/negf.jpg,stim/4.jpg,stim/1.jpg,stim/latef.jpg,AB,2,4,,,,,,,,,0,27,27,11,,,,,,,,,,4,1,0.666424850848,,,,,,PLC_L_D1S1,P25,60.013421557,01,B,2015_Jul_22_1627,X,
stim/negf.jpg,stim/posf.jpg,stim/1.jpg,stim/4.jpg,stim/latef.jpg,AB,1,2,,,,,,,,,0,28,28,9,,,,,,,,,,4,0,0.616408296147,,,,,,PLC_L_D1S1,P25,60.013421557,01,B,2015_Jul_22_1627,X,
stim/posf.jpg,stim/negf.jpg,stim/1.jpg,stim/4.jpg,stim/latef.jpg,AB,1,2,,,,,,,,,0,29,29,7,,,,,,,,,,2,1,0.783054582091,,,,,,PLC_L_D1S1,P25,60.013421557,01,B,2015_Jul_22_1627,X,
stim/posf.jpg,stim/negf.jpg,stim/2.jpg,stim/6.jpg,stim/latef.jpg,EF,1,2,,,,,,,,,0,30,30,43,,,,,,,,,,2,1,0.833051888889,,,,,,PLC_L_D1S1,P25,60.013421557,01,B,2015_Jul_22_1627,X,
stim/posf.jpg,stim/negf.jpg,stim/3.jpg,stim/5.jpg,stim/latef.jpg,CD,2,4,,,,,,,,,0,31,31,31,,,,,,,,,,4,1,0.999662644406,,,,,,PLC_L_D1S1,P25,60.013421557,01,B,2015_Jul_22_1627,X,
stim/posf.jpg,stim/negf.jpg,stim/6.jpg,stim/2.jpg,stim/latef.jpg,EF,2,4,,,,,,,,,0,32,32,55,,,,,,,,,,4,1,0.883038293553,,,,,,PLC_L_D1S1,P25,60.013421557,01,B,2015_Jul_22_1627,X,
stim/posf.jpg,stim/negf.jpg,stim/4.jpg,stim/1.jpg,stim/latef.jpg,AB,2,4,,,,,,,,,0,33,33,17,,,,,,,,,,2,0,0.899636319891,,,,,,PLC_L_D1S1,P25,60.013421557,01,B,2015_Jul_22_1627,X,
stim/posf.jpg,stim/negf.jpg,stim/3.jpg,stim/5.jpg,stim/latef.jpg,CD,2,4,,,,,,,,,0,34,34,35,,,,,,,,,,4,1,0.833062147419,,,,,,PLC_L_D1S1,P25,60.013421557,01,B,2015_Jul_22_1627,X,
stim/posf.jpg,stim/negf.jpg,stim/5.jpg,stim/3.jpg,stim/latef.jpg,CD,1,2,,,,,,,,,0,35,35,23,,,,,,,,,,2,1,0.79971208445,,,,,,PLC_L_D1S1,P25,60.013421557,01,B,2015_Jul_22_1627,X,
stim/negf.jpg,stim/posf.jpg,stim/2.jpg,stim/6.jpg,stim/latef.jpg,EF,1,2,,,,,,,,,0,36,36,46,,,,,,,,,,2,1,0.899691952346,,,,,,PLC_L_D1S1,P25,60.013421557,01,B,2015_Jul_22_1627,X,
stim/posf.jpg,stim/negf.jpg,stim/4.jpg,stim/1.jpg,stim/latef.jpg,AB,2,4,,,,,,,,,0,37,37,10,,,,,,,,,,4,1,0.766403825521,,,,,,PLC_L_D1S1,P25,60.013421557,01,B,2015_Jul_22_1627,X,
stim/negf.jpg,stim/posf.jpg,stim/5.jpg,stim/3.jpg,stim/latef.jpg,CD,1,2,,,,,,,,,0,38,38,27,,,,,,,,,,2,1,0.74977047928,,,,,,PLC_L_D1S1,P25,60.013421557,01,B,2015_Jul_22_1627,X,
stim/posf.jpg,stim/negf.jpg,stim/3.jpg,stim/5.jpg,stim/latef.jpg,CD,2,4,,,,,,,,,0,39,39,34,,,,,,,,,,4,1,0.649756876426,,,,,,PLC_L_D1S1,P25,60.013421557,01,B,2015_Jul_22_1627,X,
stim/posf.jpg,stim/negf.jpg,stim/3.jpg,stim/5.jpg,stim/latef.jpg,CD,2,4,,,,,,,,,0,40,40,36,,,,,,,,,,4,1,0.666409894625,,,,,,PLC_L_D1S1,P25,60.013421557,01,B,2015_Jul_22_1627,X,
stim/posf.jpg,stim/negf.jpg,stim/1.jpg,stim/4.jpg,stim/latef.jpg,AB,1,2,,,,,,,,,0,41,41,5,,,,,,,,,,2,1,1.16627663899,,,,,,PLC_L_D1S1,P25,60.013421557,01,B,2015_Jul_22_1627,X,
stim/posf.jpg,stim/negf.jpg,stim/4.jpg,stim/1.jpg,stim/latef.jpg,AB,2,4,,,,,,,,,0,42,42,13,,,,,,,,,,4,1,0.816395111333,,,,,,PLC_L_D1S1,P25,60.013421557,01,B,2015_Jul_22_1627,X,
stim/posf.jpg,stim/negf.jpg,stim/2.jpg,stim/6.jpg,stim/latef.jpg,EF,1,2,,,,,,,,,0,43,43,44,,,,,,,,,,2,1,0.783066527821,,,,,,PLC_L_D1S1,P25,60.013421557,01,B,2015_Jul_22_1627,X,
stim/negf.jpg,stim/posf.jpg,stim/6.jpg,stim/2.jpg,stim/latef.jpg,EF,2,4,,,,,,,,,0,44,44,59,,,,,,,,,,4,1,0.66644521152,,,,,,PLC_L_D1S1,P25,60.013421557,01,B,2015_Jul_22_1627,X,
stim/posf.jpg,stim/negf.jpg,stim/4.jpg,stim/1.jpg,stim/latef.jpg,AB,2,4,,,,,,,,,0,45,45,14,,,,,,,,,,4,1,0.816390915892,,,,,,PLC_L_D1S1,P25,60.013421557,01,B,2015_Jul_22_1627,X,
stim/negf.jpg,stim/posf.jpg,stim/1.jpg,stim/4.jpg,stim/latef.jpg,AB,1,2,,,,,,,,,0,46,46,8,,,,,,,,,,2,1,0.849710594241,,,,,,PLC_L_D1S1,P25,60.013421557,01,B,2015_Jul_22_1627,X,
stim/posf.jpg,stim/negf.jpg,stim/1.jpg,stim/4.jpg,stim/latef.jpg,AB,1,2,,,,,,,,,0,47,47,4,,,,,,,,,,2,1,0.533150338906,,,,,,PLC_L_D1S1,P25,60.013421557,01,B,2015_Jul_22_1627,X,
stim/posf.jpg,stim/negf.jpg,stim/1.jpg,stim/4.jpg,stim/latef.jpg,AB,1,2,,,,,,,,,0,48,48,2,,,,,,,,,,2,1,0.616407851039,,,,,,PLC_L_D1S1,P25,60.013421557,01,B,2015_Jul_22_1627,X,
stim/posf.jpg,stim/negf.jpg,stim/2.jpg,stim/6.jpg,stim/latef.jpg,EF,1,2,,,,,,,,,0,49,49,40,,,,,,,,,,2,1,0.766399257151,,,,,,PLC_L_D1S1,P25,60.013421557,01,B,2015_Jul_22_1627,X,
stim/negf.jpg,stim/posf.jpg,stim/5.jpg,stim/3.jpg,stim/latef.jpg,CD,1,2,,,,,,,,,0,50,50,28,,,,,,,,,,2,1,1.28295691101,,,,,,PLC_L_D1S1,P25,60.013421557,01,B,2015_Jul_22_1627,X,
stim/posf.jpg,stim/negf.jpg,stim/4.jpg,stim/1.jpg,stim/latef.jpg,AB,2,4,,,,,,,,,0,51,51,12,,,,,,,,,,4,1,1.01632712714,,,,,,PLC_L_D1S1,P25,60.013421557,01,B,2015_Jul_22_1627,X,
stim/negf.jpg,stim/posf.jpg,stim/2.jpg,stim/6.jpg,stim/latef.jpg,EF,1,2,,,,,,,,,0,52,52,47,,,,,,,,,,2,1,1.09963539359,,,,,,PLC_L_D1S1,P25,60.013421557,01,B,2015_Jul_22_1627,X,
stim/negf.jpg,stim/posf.jpg,stim/2.jpg,stim/6.jpg,stim/latef.jpg,EF,1,2,,,,,,,,,0,53,53,48,,,,,,,,,,2,1,0.932981447578,,,,,,PLC_L_D1S1,P25,60.013421557,01,B,2015_Jul_22_1627,X,
stim/posf.jpg,stim/negf.jpg,stim/2.jpg,stim/6.jpg,stim/latef.jpg,EF,1,2,,,,,,,,,0,54,54,45,,,,,,,,,,2,1,1.03302223509,,,,,,PLC_L_D1S1,P25,60.013421557,01,B,2015_Jul_22_1627,X,
stim/posf.jpg,stim/negf.jpg,stim/2.jpg,stim/6.jpg,stim/latef.jpg,EF,1,2,,,,,,,,,0,55,55,41,,,,,,,,,,2,1,0.716377875438,,,,,,PLC_L_D1S1,P25,60.013421557,01,B,2015_Jul_22_1627,X,
stim/negf.jpg,stim/posf.jpg,stim/4.jpg,stim/1.jpg,stim/latef.jpg,AB,2,4,,,,,,,,,0,56,56,19,,,,,,,,,,2,0,1.5827985128,,,,,,PLC_L_D1S1,P25,60.013421557,01,B,2015_Jul_22_1627,X,
stim/posf.jpg,stim/negf.jpg,stim/1.jpg,stim/4.jpg,stim/latef.jpg,AB,1,2,,,,,,,,,0,57,57,0,,,,,,,,,,2,1,0.849724491829,,,,,,PLC_L_D1S1,P25,60.013421557,01,B,2015_Jul_22_1627,X,
stim/posf.jpg,stim/negf.jpg,stim/5.jpg,stim/3.jpg,stim/latef.jpg,CD,1,2,,,,,,,,,0,58,58,25,,,,,,,,,,2,1,1.01631565058,,,,,,PLC_L_D1S1,P25,60.013421557,01,B,2015_Jul_22_1627,X,
stim/negf.jpg,stim/posf.jpg,stim/5.jpg,stim/3.jpg,stim/latef.jpg,CD,1,2,,,,,,,,,0,59,59,29,,,,,,,,,,2,1,0.949694248561,,,,,,PLC_L_D1S1,P25,60.013421557,01,B,2015_Jul_22_1627,X,
,,,,,,,,,,,,,,,,,,,,,,,,,,,,,,,,0.9984375,1.0,1,0,0,PLC_L_D1S1,P25,60.013421557,01,B,2015_Jul_22_1627,X,
stim/posf.jpg,stim/negf.jpg,stim/4.jpg,stim/1.jpg,stim/latef.jpg,AB,2,4,,,,,,,,,,,,,0,0,0,12,,,,,,4,1,0.833040607813,,,,,,PLC_L_D1S1,P25,60.013421557,01,B,2015_Jul_22_1627,X,
stim/posf.jpg,stim/negf.jpg,stim/6.jpg,stim/2.jpg,stim/latef.jpg,EF,2,4,,,,,,,,,,,,,0,1,1,52,,,,,,4,1,0.666449012981,,,,,,PLC_L_D1S1,P25,60.013421557,01,B,2015_Jul_22_1627,X,
stim/posf.jpg,stim/negf.jpg,stim/1.jpg,stim/4.jpg,stim/latef.jpg,AB,1,2,,,,,,,,,,,,,0,2,2,6,,,,,,4,0,0.799736234554,,,,,,PLC_L_D1S1,P25,60.013421557,01,B,2015_Jul_22_1627,X,
stim/negf.jpg,stim/posf.jpg,stim/2.jpg,stim/6.jpg,stim/latef.jpg,EF,1,2,,,,,,,,,,,,,0,3,3,49,,,,,,2,1,0.616474304425,,,,,,PLC_L_D1S1,P25,60.013421557,01,B,2015_Jul_22_1627,X,
stim/negf.jpg,stim/posf.jpg,stim/5.jpg,stim/3.jpg,stim/latef.jpg,CD,1,2,,,,,,,,,,,,,0,4,4,28,,,,,,2,1,0.849637542433,,,,,,PLC_L_D1S1,P25,60.013421557,01,B,2015_Jul_22_1627,X,
stim/negf.jpg,stim/posf.jpg,stim/6.jpg,stim/2.jpg,stim/latef.jpg,EF,2,4,,,,,,,,,,,,,0,5,5,58,,,,,,4,1,0.816415499073,,,,,,PLC_L_D1S1,P25,60.013421557,01,B,2015_Jul_22_1627,X,
stim/posf.jpg,stim/negf.jpg,stim/6.jpg,stim/2.jpg,stim/latef.jpg,EF,2,4,,,,,,,,,,,,,0,6,6,53,,,,,,4,1,0.733031847009,,,,,,PLC_L_D1S1,P25,60.013421557,01,B,2015_Jul_22_1627,X,
stim/negf.jpg,stim/posf.jpg,stim/1.jpg,stim/4.jpg,stim/latef.jpg,AB,1,2,,,,,,,,,,,,,0,7,7,8,,,,,,2,1,1.01628182239,,,,,,PLC_L_D1S1,P25,60.013421557,01,B,2015_Jul_22_1627,X,
stim/posf.jpg,stim/negf.jpg,stim/4.jpg,stim/1.jpg,stim/latef.jpg,AB,2,4,,,,,,,,,,,,,0,8,8,15,,,,,,4,1,0.416526123389,,,,,,PLC_L_D1S1,P25,60.013421557,01,B,2015_Jul_22_1627,X,
stim/posf.jpg,stim/negf.jpg,stim/5.jpg,stim/3.jpg,stim/latef.jpg,CD,1,2,,,,,,,,,,,,,0,9,9,23,,,,,,2,1,0.299891772649,,,,,,PLC_L_D1S1,P25,60.013421557,01,B,2015_Jul_22_1627,X,
stim/posf.jpg,stim/negf.jpg,stim/6.jpg,stim/2.jpg,stim/latef.jpg,EF,2,4,,,,,,,,,,,,,0,10,10,51,,,,,,2,0,0.266578181449,,,,,,PLC_L_D1S1,P25,60.013421557,01,B,2015_Jul_22_1627,X,
stim/posf.jpg,stim/negf.jpg,stim/4.jpg,stim/1.jpg,stim/latef.jpg,AB,2,4,,,,,,,,,,,,,0,11,11,10,,,,,,4,1,0.666409879588,,,,,,PLC_L_D1S1,P25,60.013421557,01,B,2015_Jul_22_1627,X,
stim/negf.jpg,stim/posf.jpg,stim/6.jpg,stim/2.jpg,stim/latef.jpg,EF,2,4,,,,,,,,,,,,,0,12,12,57,,,,,,4,1,0.633105807077,,,,,,PLC_L_D1S1,P25,60.013421557,01,B,2015_Jul_22_1627,X,
stim/posf.jpg,stim/negf.jpg,stim/3.jpg,stim/5.jpg,stim/latef.jpg,CD,2,4,,,,,,,,,,,,,0,13,13,35,,,,,,4,1,0.833049521998,,,,,,PLC_L_D1S1,P25,60.013421557,01,B,2015_Jul_22_1627,X,
stim/negf.jpg,stim/posf.jpg,stim/6.jpg,stim/2.jpg,stim/latef.jpg,EF,2,4,,,,,,,,,,,,,0,14,14,56,,,,,,4,1,0.749801814265,,,,,,PLC_L_D1S1,P25,60.013421557,01,B,2015_Jul_22_1627,X,
stim/negf.jpg,stim/posf.jpg,stim/2.jpg,stim/6.jpg,stim/latef.jpg,EF,1,2,,,,,,,,,,,,,0,15,15,48,,,,,,2,1,0.983001142093,,,,,,PLC_L_D1S1,P25,60.013421557,01,B,2015_Jul_22_1627,X,
stim/negf.jpg,stim/posf.jpg,stim/6.jpg,stim/2.jpg,stim/latef.jpg,EF,2,4,,,,,,,,,,,,,0,16,16,59,,,,,,4,1,0.749752320086,,,,,,PLC_L_D1S1,P25,60.013421557,01,B,2015_Jul_22_1627,X,
stim/posf.jpg,stim/negf.jpg,stim/3.jpg,stim/5.jpg,stim/latef.jpg,CD,2,4,,,,,,,,,,,,,0,17,17,34,,,,,,4,1,0.716442178472,,,,,,PLC_L_D1S1,P25,60.013421557,01,B,2015_Jul_22_1627,X,
stim/posf.jpg,stim/negf.jpg,stim/1.jpg,stim/4.jpg,stim/latef.jpg,AB,1,2,,,,,,,,,,,,,0,18,18,5,,,,,,2,1,0.48312289711,,,,,,PLC_L_D1S1,P25,60.013421557,01,B,2015_Jul_22_1627,X,
stim/posf.jpg,stim/negf.jpg,stim/1.jpg,stim/4.jpg,stim/latef.jpg,AB,1,2,,,,,,,,,,,,,0,19,19,1,,,,,,2,1,0.816384753556,,,,,,PLC_L_D1S1,P25,60.013421557,01,B,2015_Jul_22_1627,X,
stim/posf.jpg,stim/negf.jpg,stim/5.jpg,stim/3.jpg,stim/latef.jpg,CD,1,2,,,,,,,,,,,,,0,20,20,24,,,,,,2,1,0.84973415187,,,,,,PLC_L_D1S1,P25,60.013421557,01,B,2015_Jul_22_1627,X,
stim/posf.jpg,stim/negf.jpg,stim/3.jpg,stim/5.jpg,stim/latef.jpg,CD,2,4,,,,,,,,,,,,,0,21,21,36,,,,,,4,1,0.683104903328,,,,,,PLC_L_D1S1,P25,60.013421557,01,B,2015_Jul_22_1627,X,
stim/posf.jpg,stim/negf.jpg,stim/1.jpg,stim/4.jpg,stim/latef.jpg,AB,1,2,,,,,,,,,,,,,0,22,22,2,,,,,,2,1,0.616456638459,,,,,,PLC_L_D1S1,P25,60.013421557,01,B,2015_Jul_22_1627,X,
stim/posf.jpg,stim/negf.jpg,stim/2.jpg,stim/6.jpg,stim/latef.jpg,EF,1,2,,,,,,,,,,,,,0,23,23,40,,,,,,2,1,0.533128913583,,,,,,PLC_L_D1S1,P25,60.013421557,01,B,2015_Jul_22_1627,X,
stim/posf.jpg,stim/negf.jpg,stim/4.jpg,stim/1.jpg,stim/latef.jpg,AB,2,4,,,,,,,,,,,,,0,24,24,16,,,,,,None,0,,,,,,,PLC_L_D1S1,P25,60.013421557,01,B,2015_Jul_22_1627,X,
stim/posf.jpg,stim/negf.jpg,stim/4.jpg,stim/1.jpg,stim/latef.jpg,AB,2,4,,,,,,,,,,,,,0,25,25,11,,,,,,4,1,0.216530478228,,,,,,PLC_L_D1S1,P25,60.013421557,01,B,2015_Jul_22_1627,X,
stim/posf.jpg,stim/negf.jpg,stim/2.jpg,stim/6.jpg,stim/latef.jpg,EF,1,2,,,,,,,,,,,,,0,26,26,41,,,,,,2,1,0.466474305929,,,,,,PLC_L_D1S1,P25,60.013421557,01,B,2015_Jul_22_1627,X,
stim/posf.jpg,stim/negf.jpg,stim/3.jpg,stim/5.jpg,stim/latef.jpg,CD,2,4,,,,,,,,,,,,,0,27,27,31,,,,,,2,0,0.416551840393,,,,,,PLC_L_D1S1,P25,60.013421557,01,B,2015_Jul_22_1627,X,
stim/posf.jpg,stim/negf.jpg,stim/1.jpg,stim/4.jpg,stim/latef.jpg,AB,1,2,,,,,,,,,,,,,0,28,28,4,,,,,,2,1,0.549794536152,,,,,,PLC_L_D1S1,P25,60.013421557,01,B,2015_Jul_22_1627,X,
stim/negf.jpg,stim/posf.jpg,stim/3.jpg,stim/5.jpg,stim/latef.jpg,CD,2,4,,,,,,,,,,,,,0,29,29,38,,,,,,4,1,0.749767068793,,,,,,PLC_L_D1S1,P25,60.013421557,01,B,2015_Jul_22_1627,X,
stim/negf.jpg,stim/posf.jpg,stim/3.jpg,stim/5.jpg,stim/latef.jpg,CD,2,4,,,,,,,,,,,,,0,30,30,37,,,,,,4,1,0.733148537422,,,,,,PLC_L_D1S1,P25,60.013421557,01,B,2015_Jul_22_1627,X,
stim/posf.jpg,stim/negf.jpg,stim/1.jpg,stim/4.jpg,stim/latef.jpg,AB,1,2,,,,,,,,,,,,,0,31,31,7,,,,,,2,1,0.583127411345,,,,,,PLC_L_D1S1,P25,60.013421557,01,B,2015_Jul_22_1627,X,
stim/posf.jpg,stim/negf.jpg,stim/5.jpg,stim/3.jpg,stim/latef.jpg,CD,1,2,,,,,,,,,,,,,0,32,32,26,,,,,,2,1,0.883007629237,,,,,,PLC_L_D1S1,P25,60.013421557,01,B,2015_Jul_22_1627,X,
stim/posf.jpg,stim/negf.jpg,stim/1.jpg,stim/4.jpg,stim/latef.jpg,AB,1,2,,,,,,,,,,,,,0,33,33,3,,,,,,2,1,0.633055185092,,,,,,PLC_L_D1S1,P25,60.013421557,01,B,2015_Jul_22_1627,X,
stim/negf.jpg,stim/posf.jpg,stim/2.jpg,stim/6.jpg,stim/latef.jpg,EF,1,2,,,,,,,,,,,,,0,34,34,47,,,,,,2,1,0.699777031086,,,,,,PLC_L_D1S1,P25,60.013421557,01,B,2015_Jul_22_1627,X,
stim/posf.jpg,stim/negf.jpg,stim/2.jpg,stim/6.jpg,stim/latef.jpg,EF,1,2,,,,,,,,,,,,,0,35,35,44,,,,,,2,1,0.599793042936,,,,,,PLC_L_D1S1,P25,60.013421557,01,B,2015_Jul_22_1627,X,
stim/posf.jpg,stim/negf.jpg,stim/3.jpg,stim/5.jpg,stim/latef.jpg,CD,2,4,,,,,,,,,,,,,0,36,36,32,,,,,,4,1,0.899688322312,,,,,,PLC_L_D1S1,P25,60.013421557,01,B,2015_Jul_22_1627,X,
stim/posf.jpg,stim/negf.jpg,stim/5.jpg,stim/3.jpg,stim/latef.jpg,CD,1,2,,,,,,,,,,,,,0,37,37,21,,,,,,2,1,1.11629332,,,,,,PLC_L_D1S1,P25,60.013421557,01,B,2015_Jul_22_1627,X,
stim/posf.jpg,stim/negf.jpg,stim/2.jpg,stim/6.jpg,stim/latef.jpg,EF,1,2,,,,,,,,,,,,,0,38,38,42,,,,,,2,1,0.749757974158,,,,,,PLC_L_D1S1,P25,60.013421557,01,B,2015_Jul_22_1627,X,
stim/posf.jpg,stim/negf.jpg,stim/4.jpg,stim/1.jpg,stim/latef.jpg,AB,2,4,,,,,,,,,,,,,0,39,39,14,,,,,,4,1,0.84970336124,,,,,,PLC_L_D1S1,P25,60.013421557,01,B,2015_Jul_22_1627,X,
stim/negf.jpg,stim/posf.jpg,stim/3.jpg,stim/5.jpg,stim/latef.jpg,CD,2,4,,,,,,,,,,,,,0,40,40,39,,,,,,4,1,0.83303760935,,,,,,PLC_L_D1S1,P25,60.013421557,01,B,2015_Jul_22_1627,X,
stim/negf.jpg,stim/posf.jpg,stim/4.jpg,stim/1.jpg,stim/latef.jpg,AB,2,4,,,,,,,,,,,,,0,41,41,18,,,,,,4,1,0.783077351759,,,,,,PLC_L_D1S1,P25,60.013421557,01,B,2015_Jul_22_1627,X,
stim/negf.jpg,stim/posf.jpg,stim/5.jpg,stim/3.jpg,stim/latef.jpg,CD,1,2,,,,,,,,,,,,,0,42,42,27,,,,,,2,1,0.799744875058,,,,,,PLC_L_D1S1,P25,60.013421557,01,B,2015_Jul_22_1627,X,
stim/posf.jpg,stim/negf.jpg,stim/5.jpg,stim/3.jpg,stim/latef.jpg,CD,1,2,,,,,,,,,,,,,0,43,43,20,,,,,,2,1,0.966414135179,,,,,,PLC_L_D1S1,P25,60.013421557,01,B,2015_Jul_22_1627,X,
stim/posf.jpg,stim/negf.jpg,stim/3.jpg,stim/5.jpg,stim/latef.jpg,CD,2,4,,,,,,,,,,,,,0,44,44,33,,,,,,4,1,1.14962311854,,,,,,PLC_L_D1S1,P25,60.013421557,01,B,2015_Jul_22_1627,X,
stim/posf.jpg,stim/negf.jpg,stim/2.jpg,stim/6.jpg,stim/latef.jpg,EF,1,2,,,,,,,,,,,,,0,45,45,45,,,,,,2,1,0.766316614474,,,,,,PLC_L_D1S1,P25,60.013421557,01,B,2015_Jul_22_1627,X,
stim/posf.jpg,stim/negf.jpg,stim/6.jpg,stim/2.jpg,stim/latef.jpg,EF,2,4,,,,,,,,,,,,,0,46,46,50,,,,,,2,0,0.616452370838,,,,,,PLC_L_D1S1,P25,60.013421557,01,B,2015_Jul_22_1627,X,
stim/posf.jpg,stim/negf.jpg,stim/2.jpg,stim/6.jpg,stim/latef.jpg,EF,1,2,,,,,,,,,,,,,0,47,47,43,,,,,,2,1,0.599778122803,,,,,,PLC_L_D1S1,P25,60.013421557,01,B,2015_Jul_22_1627,X,
stim/posf.jpg,stim/negf.jpg,stim/5.jpg,stim/3.jpg,stim/latef.jpg,CD,1,2,,,,,,,,,,,,,0,48,48,25,,,,,,2,1,0.916361923738,,,,,,PLC_L_D1S1,P25,60.013421557,01,B,2015_Jul_22_1627,X,
stim/posf.jpg,stim/negf.jpg,stim/5.jpg,stim/3.jpg,stim/latef.jpg,CD,1,2,,,,,,,,,,,,,0,49,49,22,,,,,,2,1,0.8496638068,,,,,,PLC_L_D1S1,P25,60.013421557,01,B,2015_Jul_22_1627,X,
stim/negf.jpg,stim/posf.jpg,stim/2.jpg,stim/6.jpg,stim/latef.jpg,EF,1,2,,,,,,,,,,,,,0,50,50,46,,,,,,2,1,0.716476178088,,,,,,PLC_L_D1S1,P25,60.013421557,01,B,2015_Jul_22_1627,X,
stim/posf.jpg,stim/negf.jpg,stim/6.jpg,stim/2.jpg,stim/latef.jpg,EF,2,4,,,,,,,,,,,,,0,51,51,55,,,,,,4,1,0.766401437578,,,,,,PLC_L_D1S1,P25,60.013421557,01,B,2015_Jul_22_1627,X,
stim/posf.jpg,stim/negf.jpg,stim/3.jpg,stim/5.jpg,stim/latef.jpg,CD,2,4,,,,,,,,,,,,,0,52,52,30,,,,,,4,1,0.783086377221,,,,,,PLC_L_D1S1,P25,60.013421557,01,B,2015_Jul_22_1627,X,
stim/negf.jpg,stim/posf.jpg,stim/5.jpg,stim/3.jpg,stim/latef.jpg,CD,1,2,,,,,,,,,,,,,0,53,53,29,,,,,,2,1,0.999644770924,,,,,,PLC_L_D1S1,P25,60.013421557,01,B,2015_Jul_22_1627,X,
stim/posf.jpg,stim/negf.jpg,stim/6.jpg,stim/2.jpg,stim/latef.jpg,EF,2,4,,,,,,,,,,,,,0,54,54,54,,,,,,4,1,0.96634327282,,,,,,PLC_L_D1S1,P25,60.013421557,01,B,2015_Jul_22_1627,X,
stim/posf.jpg,stim/negf.jpg,stim/1.jpg,stim/4.jpg,stim/latef.jpg,AB,1,2,,,,,,,,,,,,,0,55,55,0,,,,,,2,1,0.749744223937,,,,,,PLC_L_D1S1,P25,60.013421557,01,B,2015_Jul_22_1627,X,
stim/negf.jpg,stim/posf.jpg,stim/1.jpg,stim/4.jpg,stim/latef.jpg,AB,1,2,,,,,,,,,,,,,0,56,56,9,,,,,,2,1,0.816380636309,,,,,,PLC_L_D1S1,P25,60.013421557,01,B,2015_Jul_22_1627,X,
stim/posf.jpg,stim/negf.jpg,stim/4.jpg,stim/1.jpg,stim/latef.jpg,AB,2,4,,,,,,,,,,,,,0,57,57,17,,,,,,4,1,0.849702335688,,,,,,PLC_L_D1S1,P25,60.013421557,01,B,2015_Jul_22_1627,X,
stim/posf.jpg,stim/negf.jpg,stim/4.jpg,stim/1.jpg,stim/latef.jpg,AB,2,4,,,,,,,,,,,,,0,58,58,13,,,,,,4,1,0.849710901005,,,,,,PLC_L_D1S1,P25,60.013421557,01,B,2015_Jul_22_1627,X,
stim/negf.jpg,stim/posf.jpg,stim/4.jpg,stim/1.jpg,stim/latef.jpg,AB,2,4,,,,,,,,,,,,,0,59,59,19,,,,,,4,1,0.499813941948,,,,,,PLC_L_D1S1,P25,60.013421557,01,B,2015_Jul_22_1627,X,
