fb_corr,fb_incorr,symbol2,symbol1,fb_late,pair,position,correct,block_01.thisRepN,block_01.thisTrialN,block_01.thisN,block_01.thisIndex,block_02.thisRepN,block_02.thisTrialN,block_02.thisN,block_02.thisIndex,block_03.thisRepN,block_03.thisTrialN,block_03.thisN,block_03.thisIndex,block_04.thisRepN,block_04.thisTrialN,block_04.thisN,block_04.thisIndex,mouse.x,mouse.y,mouse.leftButton,mouse.midButton,mouse.rightButton,buttonBox_2.keys,buttonBox_2.corr,buttonBox_2.rt,mouse_2.x,mouse_2.y,mouse_2.leftButton,mouse_2.midButton,mouse_2.rightButton,expName,Participant,frameRate,SessionNumber,Version,date,Group,
,,,,,,,,,,,,,,,,,,,,,,,,0.9796875,0.943359375,1,0,0,,,,,,,,,PLC_L_D1S1,P27,60.0194681835,01,B,2015_Jul_30_1515,X,
stim/negf.jpg,stim/posf.jpg,stim/6.jpg,stim/1.jpg,stim/latef.jpg,CD,2,4,0,0,0,37,,,,,,,,,,,,,,,,,,2,0,1.08300533079,,,,,,PLC_L_D1S1,P27,60.0194681835,01,B,2015_Jul_30_1515,X,
stim/negf.jpg,stim/posf.jpg,stim/5.jpg,stim/3.jpg,stim/latef.jpg,EF,1,2,0,1,1,49,,,,,,,,,,,,,,,,,,4,0,1.64947223555,,,,,,PLC_L_D1S1,P27,60.0194681835,01,B,2015_Jul_30_1515,X,
stim/posf.jpg,stim/negf.jpg,stim/1.jpg,stim/6.jpg,stim/latef.jpg,CD,1,2,0,2,2,24,,,,,,,,,,,,,,,,,,None,0,,,,,,,PLC_L_D1S1,P27,60.0194681835,01,B,2015_Jul_30_1515,X,
stim/posf.jpg,stim/negf.jpg,stim/1.jpg,stim/6.jpg,stim/latef.jpg,CD,1,2,0,3,3,22,,,,,,,,,,,,,,,,,,2,1,0.816407765355,,,,,,PLC_L_D1S1,P27,60.0194681835,01,B,2015_Jul_30_1515,X,
stim/posf.jpg,stim/negf.jpg,stim/5.jpg,stim/3.jpg,stim/latef.jpg,EF,1,2,0,4,4,44,,,,,,,,,,,,,,,,,,2,1,1.23292250434,,,,,,PLC_L_D1S1,P27,60.0194681835,01,B,2015_Jul_30_1515,X,
stim/negf.jpg,stim/posf.jpg,stim/5.jpg,stim/3.jpg,stim/latef.jpg,EF,1,2,0,5,5,47,,,,,,,,,,,,,,,,,,2,1,1.58276506492,,,,,,PLC_L_D1S1,P27,60.0194681835,01,B,2015_Jul_30_1515,X,
stim/posf.jpg,stim/negf.jpg,stim/4.jpg,stim/2.jpg,stim/latef.jpg,AB,2,4,0,6,6,14,,,,,,,,,,,,,,,,,,None,0,,,,,,,PLC_L_D1S1,P27,60.0194681835,01,B,2015_Jul_30_1515,X,
stim/posf.jpg,stim/negf.jpg,stim/3.jpg,stim/5.jpg,stim/latef.jpg,EF,2,4,0,7,7,53,,,,,,,,,,,,,,,,,,2,0,1.0829650544,,,,,,PLC_L_D1S1,P27,60.0194681835,01,B,2015_Jul_30_1515,X,
stim/negf.jpg,stim/posf.jpg,stim/3.jpg,stim/5.jpg,stim/latef.jpg,EF,2,4,0,8,8,59,,,,,,,,,,,,,,,,,,2,0,1.63280965707,,,,,,PLC_L_D1S1,P27,60.0194681835,01,B,2015_Jul_30_1515,X,
stim/negf.jpg,stim/posf.jpg,stim/3.jpg,stim/5.jpg,stim/latef.jpg,EF,2,4,0,9,9,57,,,,,,,,,,,,,,,,,,2,0,1.08298484673,,,,,,PLC_L_D1S1,P27,60.0194681835,01,B,2015_Jul_30_1515,X,
stim/posf.jpg,stim/negf.jpg,stim/4.jpg,stim/2.jpg,stim/latef.jpg,AB,2,4,0,10,10,13,,,,,,,,,,,,,,,,,,None,0,,,,,,,PLC_L_D1S1,P27,60.0194681835,01,B,2015_Jul_30_1515,X,
stim/negf.jpg,stim/posf.jpg,stim/1.jpg,stim/6.jpg,stim/latef.jpg,CD,1,2,0,11,11,29,,,,,,,,,,,,,,,,,,2,1,0.982977391147,,,,,,PLC_L_D1S1,P27,60.0194681835,01,B,2015_Jul_30_1515,X,
stim/posf.jpg,stim/negf.jpg,stim/3.jpg,stim/5.jpg,stim/latef.jpg,EF,2,4,0,12,12,52,,,,,,,,,,,,,,,,,,2,0,1.26623302983,,,,,,PLC_L_D1S1,P27,60.0194681835,01,B,2015_Jul_30_1515,X,
stim/posf.jpg,stim/negf.jpg,stim/2.jpg,stim/4.jpg,stim/latef.jpg,AB,1,2,0,13,13,3,,,,,,,,,,,,,,,,,,2,1,1.31624096962,,,,,,PLC_L_D1S1,P27,60.0194681835,01,B,2015_Jul_30_1515,X,
stim/posf.jpg,stim/negf.jpg,stim/4.jpg,stim/2.jpg,stim/latef.jpg,AB,2,4,0,14,14,12,,,,,,,,,,,,,,,,,,4,1,1.1163019045,,,,,,PLC_L_D1S1,P27,60.0194681835,01,B,2015_Jul_30_1515,X,
stim/posf.jpg,stim/negf.jpg,stim/2.jpg,stim/4.jpg,stim/latef.jpg,AB,1,2,0,15,15,2,,,,,,,,,,,,,,,,,,2,1,1.21626897843,,,,,,PLC_L_D1S1,P27,60.0194681835,01,B,2015_Jul_30_1515,X,
stim/posf.jpg,stim/negf.jpg,stim/5.jpg,stim/3.jpg,stim/latef.jpg,EF,1,2,0,16,16,45,,,,,,,,,,,,,,,,,,2,1,1.09964615604,,,,,,PLC_L_D1S1,P27,60.0194681835,01,B,2015_Jul_30_1515,X,
stim/posf.jpg,stim/negf.jpg,stim/1.jpg,stim/6.jpg,stim/latef.jpg,CD,1,2,0,17,17,26,,,,,,,,,,,,,,,,,,2,1,1.2994889452,,,,,,PLC_L_D1S1,P27,60.0194681835,01,B,2015_Jul_30_1515,X,
stim/posf.jpg,stim/negf.jpg,stim/2.jpg,stim/4.jpg,stim/latef.jpg,AB,1,2,0,18,18,1,,,,,,,,,,,,,,,,,,2,1,1.11629054819,,,,,,PLC_L_D1S1,P27,60.0194681835,01,B,2015_Jul_30_1515,X,
stim/posf.jpg,stim/negf.jpg,stim/4.jpg,stim/2.jpg,stim/latef.jpg,AB,2,4,0,19,19,16,,,,,,,,,,,,,,,,,,2,0,0.799717202126,,,,,,PLC_L_D1S1,P27,60.0194681835,01,B,2015_Jul_30_1515,X,
stim/posf.jpg,stim/negf.jpg,stim/3.jpg,stim/5.jpg,stim/latef.jpg,EF,2,4,0,20,20,51,,,,,,,,,,,,,,,,,,2,0,0.883008004451,,,,,,PLC_L_D1S1,P27,60.0194681835,01,B,2015_Jul_30_1515,X,
stim/posf.jpg,stim/negf.jpg,stim/4.jpg,stim/2.jpg,stim/latef.jpg,AB,2,4,0,21,21,17,,,,,,,,,,,,,,,,,,4,1,1.16627923098,,,,,,PLC_L_D1S1,P27,60.0194681835,01,B,2015_Jul_30_1515,X,
stim/posf.jpg,stim/negf.jpg,stim/4.jpg,stim/2.jpg,stim/latef.jpg,AB,2,4,0,22,22,15,,,,,,,,,,,,,,,,,,4,1,0.849717202126,,,,,,PLC_L_D1S1,P27,60.0194681835,01,B,2015_Jul_30_1515,X,
stim/posf.jpg,stim/negf.jpg,stim/1.jpg,stim/6.jpg,stim/latef.jpg,CD,1,2,0,23,23,25,,,,,,,,,,,,,,,,,,2,1,1.04964494102,,,,,,PLC_L_D1S1,P27,60.0194681835,01,B,2015_Jul_30_1515,X,
stim/negf.jpg,stim/posf.jpg,stim/1.jpg,stim/6.jpg,stim/latef.jpg,CD,1,2,0,24,24,27,,,,,,,,,,,,,,,,,,2,1,0.883059231134,,,,,,PLC_L_D1S1,P27,60.0194681835,01,B,2015_Jul_30_1515,X,
stim/negf.jpg,stim/posf.jpg,stim/1.jpg,stim/6.jpg,stim/latef.jpg,CD,1,2,0,25,25,28,,,,,,,,,,,,,,,,,,2,1,0.766406502207,,,,,,PLC_L_D1S1,P27,60.0194681835,01,B,2015_Jul_30_1515,X,
stim/posf.jpg,stim/negf.jpg,stim/1.jpg,stim/6.jpg,stim/latef.jpg,CD,1,2,0,26,26,23,,,,,,,,,,,,,,,,,,4,0,1.0163220066,,,,,,PLC_L_D1S1,P27,60.0194681835,01,B,2015_Jul_30_1515,X,
stim/negf.jpg,stim/posf.jpg,stim/2.jpg,stim/4.jpg,stim/latef.jpg,AB,1,2,0,27,27,9,,,,,,,,,,,,,,,,,,2,1,1.0330055353,,,,,,PLC_L_D1S1,P27,60.0194681835,01,B,2015_Jul_30_1515,X,
stim/negf.jpg,stim/posf.jpg,stim/4.jpg,stim/2.jpg,stim/latef.jpg,AB,2,4,0,28,28,19,,,,,,,,,,,,,,,,,,4,1,1.09960963,,,,,,PLC_L_D1S1,P27,60.0194681835,01,B,2015_Jul_30_1515,X,
stim/posf.jpg,stim/negf.jpg,stim/4.jpg,stim/2.jpg,stim/latef.jpg,AB,2,4,0,29,29,11,,,,,,,,,,,,,,,,,,2,0,1.2329766904,,,,,,PLC_L_D1S1,P27,60.0194681835,01,B,2015_Jul_30_1515,X,
stim/negf.jpg,stim/posf.jpg,stim/6.jpg,stim/1.jpg,stim/latef.jpg,CD,2,4,0,30,30,38,,,,,,,,,,,,,,,,,,4,1,1.38287988511,,,,,,PLC_L_D1S1,P27,60.0194681835,01,B,2015_Jul_30_1515,X,
stim/posf.jpg,stim/negf.jpg,stim/2.jpg,stim/4.jpg,stim/latef.jpg,AB,1,2,0,31,31,6,,,,,,,,,,,,,,,,,,4,0,1.36622475921,,,,,,PLC_L_D1S1,P27,60.0194681835,01,B,2015_Jul_30_1515,X,
stim/posf.jpg,stim/negf.jpg,stim/1.jpg,stim/6.jpg,stim/latef.jpg,CD,1,2,0,32,32,20,,,,,,,,,,,,,,,,,,2,1,0.899672510733,,,,,,PLC_L_D1S1,P27,60.0194681835,01,B,2015_Jul_30_1515,X,
stim/posf.jpg,stim/negf.jpg,stim/3.jpg,stim/5.jpg,stim/latef.jpg,EF,2,4,0,33,33,55,,,,,,,,,,,,,,,,,,4,1,1.16637255359,,,,,,PLC_L_D1S1,P27,60.0194681835,01,B,2015_Jul_30_1515,X,
stim/posf.jpg,stim/negf.jpg,stim/6.jpg,stim/1.jpg,stim/latef.jpg,CD,2,4,0,34,34,36,,,,,,,,,,,,,,,,,,4,1,1.08301884347,,,,,,PLC_L_D1S1,P27,60.0194681835,01,B,2015_Jul_30_1515,X,
stim/posf.jpg,stim/negf.jpg,stim/6.jpg,stim/1.jpg,stim/latef.jpg,CD,2,4,0,35,35,31,,,,,,,,,,,,,,,,,,4,1,0.883086912128,,,,,,PLC_L_D1S1,P27,60.0194681835,01,B,2015_Jul_30_1515,X,
stim/posf.jpg,stim/negf.jpg,stim/6.jpg,stim/1.jpg,stim/latef.jpg,CD,2,4,0,36,36,35,,,,,,,,,,,,,,,,,,4,1,0.849726702807,,,,,,PLC_L_D1S1,P27,60.0194681835,01,B,2015_Jul_30_1515,X,
stim/negf.jpg,stim/posf.jpg,stim/2.jpg,stim/4.jpg,stim/latef.jpg,AB,1,2,0,37,37,8,,,,,,,,,,,,,,,,,,2,1,1.01635099285,,,,,,PLC_L_D1S1,P27,60.0194681835,01,B,2015_Jul_30_1515,X,
stim/posf.jpg,stim/negf.jpg,stim/6.jpg,stim/1.jpg,stim/latef.jpg,CD,2,4,0,38,38,33,,,,,,,,,,,,,,,,,,4,1,1.01635685747,,,,,,PLC_L_D1S1,P27,60.0194681835,01,B,2015_Jul_30_1515,X,
stim/posf.jpg,stim/negf.jpg,stim/5.jpg,stim/3.jpg,stim/latef.jpg,EF,1,2,0,39,39,40,,,,,,,,,,,,,,,,,,2,1,1.2495650168,,,,,,PLC_L_D1S1,P27,60.0194681835,01,B,2015_Jul_30_1515,X,
stim/posf.jpg,stim/negf.jpg,stim/2.jpg,stim/4.jpg,stim/latef.jpg,AB,1,2,0,40,40,4,,,,,,,,,,,,,,,,,,2,1,0.966331465177,,,,,,PLC_L_D1S1,P27,60.0194681835,01,B,2015_Jul_30_1515,X,
stim/posf.jpg,stim/negf.jpg,stim/6.jpg,stim/1.jpg,stim/latef.jpg,CD,2,4,0,41,41,34,,,,,,,,,,,,,,,,,,4,1,0.916358689032,,,,,,PLC_L_D1S1,P27,60.0194681835,01,B,2015_Jul_30_1515,X,
stim/posf.jpg,stim/negf.jpg,stim/5.jpg,stim/3.jpg,stim/latef.jpg,EF,1,2,0,42,42,43,,,,,,,,,,,,,,,,,,2,1,1.2995517748,,,,,,PLC_L_D1S1,P27,60.0194681835,01,B,2015_Jul_30_1515,X,
stim/posf.jpg,stim/negf.jpg,stim/6.jpg,stim/1.jpg,stim/latef.jpg,CD,2,4,0,43,43,30,,,,,,,,,,,,,,,,,,4,1,0.999677364832,,,,,,PLC_L_D1S1,P27,60.0194681835,01,B,2015_Jul_30_1515,X,
stim/posf.jpg,stim/negf.jpg,stim/2.jpg,stim/4.jpg,stim/latef.jpg,AB,1,2,0,44,44,0,,,,,,,,,,,,,,,,,,2,1,1.01634757333,,,,,,PLC_L_D1S1,P27,60.0194681835,01,B,2015_Jul_30_1515,X,
stim/posf.jpg,stim/negf.jpg,stim/3.jpg,stim/5.jpg,stim/latef.jpg,EF,2,4,0,45,45,54,,,,,,,,,,,,,,,,,,4,1,0.966346917692,,,,,,PLC_L_D1S1,P27,60.0194681835,01,B,2015_Jul_30_1515,X,
stim/negf.jpg,stim/posf.jpg,stim/4.jpg,stim/2.jpg,stim/latef.jpg,AB,2,4,0,46,46,18,,,,,,,,,,,,,,,,,,4,1,1.04965494996,,,,,,PLC_L_D1S1,P27,60.0194681835,01,B,2015_Jul_30_1515,X,
stim/posf.jpg,stim/negf.jpg,stim/2.jpg,stim/4.jpg,stim/latef.jpg,AB,1,2,0,47,47,7,,,,,,,,,,,,,,,,,,2,1,1.06636182585,,,,,,PLC_L_D1S1,P27,60.0194681835,01,B,2015_Jul_30_1515,X,
stim/negf.jpg,stim/posf.jpg,stim/5.jpg,stim/3.jpg,stim/latef.jpg,EF,1,2,0,48,48,46,,,,,,,,,,,,,,,,,,4,0,1.3162430899,,,,,,PLC_L_D1S1,P27,60.0194681835,01,B,2015_Jul_30_1515,X,
stim/posf.jpg,stim/negf.jpg,stim/2.jpg,stim/4.jpg,stim/latef.jpg,AB,1,2,0,49,49,5,,,,,,,,,,,,,,,,,,2,1,0.983014834475,,,,,,PLC_L_D1S1,P27,60.0194681835,01,B,2015_Jul_30_1515,X,
stim/posf.jpg,stim/negf.jpg,stim/6.jpg,stim/1.jpg,stim/latef.jpg,CD,2,4,0,50,50,32,,,,,,,,,,,,,,,,,,4,1,0.899750919166,,,,,,PLC_L_D1S1,P27,60.0194681835,01,B,2015_Jul_30_1515,X,
stim/posf.jpg,stim/negf.jpg,stim/3.jpg,stim/5.jpg,stim/latef.jpg,EF,2,4,0,51,51,50,,,,,,,,,,,,,,,,,,4,1,1.51616769197,,,,,,PLC_L_D1S1,P27,60.0194681835,01,B,2015_Jul_30_1515,X,
stim/negf.jpg,stim/posf.jpg,stim/3.jpg,stim/5.jpg,stim/latef.jpg,EF,2,4,0,52,52,56,,,,,,,,,,,,,,,,,,4,1,0.749752407877,,,,,,PLC_L_D1S1,P27,60.0194681835,01,B,2015_Jul_30_1515,X,
stim/negf.jpg,stim/posf.jpg,stim/5.jpg,stim/3.jpg,stim/latef.jpg,EF,1,2,0,53,53,48,,,,,,,,,,,,,,,,,,2,1,1.19963016218,,,,,,PLC_L_D1S1,P27,60.0194681835,01,B,2015_Jul_30_1515,X,
stim/posf.jpg,stim/negf.jpg,stim/4.jpg,stim/2.jpg,stim/latef.jpg,AB,2,4,0,54,54,10,,,,,,,,,,,,,,,,,,4,1,0.933030100525,,,,,,PLC_L_D1S1,P27,60.0194681835,01,B,2015_Jul_30_1515,X,
stim/posf.jpg,stim/negf.jpg,stim/5.jpg,stim/3.jpg,stim/latef.jpg,EF,1,2,0,55,55,42,,,,,,,,,,,,,,,,,,4,0,1.18294450418,,,,,,PLC_L_D1S1,P27,60.0194681835,01,B,2015_Jul_30_1515,X,
stim/posf.jpg,stim/negf.jpg,stim/5.jpg,stim/3.jpg,stim/latef.jpg,EF,1,2,0,56,56,41,,,,,,,,,,,,,,,,,,2,1,0.699759051436,,,,,,PLC_L_D1S1,P27,60.0194681835,01,B,2015_Jul_30_1515,X,
stim/negf.jpg,stim/posf.jpg,stim/3.jpg,stim/5.jpg,stim/latef.jpg,EF,2,4,0,57,57,58,,,,,,,,,,,,,,,,,,4,1,0.883025914091,,,,,,PLC_L_D1S1,P27,60.0194681835,01,B,2015_Jul_30_1515,X,
stim/negf.jpg,stim/posf.jpg,stim/6.jpg,stim/1.jpg,stim/latef.jpg,CD,2,4,0,58,58,39,,,,,,,,,,,,,,,,,,4,1,1.03299066924,,,,,,PLC_L_D1S1,P27,60.0194681835,01,B,2015_Jul_30_1515,X,
stim/posf.jpg,stim/negf.jpg,stim/1.jpg,stim/6.jpg,stim/latef.jpg,CD,1,2,0,59,59,21,,,,,,,,,,,,,,,,,,2,1,0.933078109187,,,,,,PLC_L_D1S1,P27,60.0194681835,01,B,2015_Jul_30_1515,X,
,,,,,,,,,,,,,,,,,,,,,,,,,,,,,,,,0.9890625,0.8671875,1,0,0,PLC_L_D1S1,P27,60.0194681835,01,B,2015_Jul_30_1515,X,
stim/negf.jpg,stim/posf.jpg,stim/3.jpg,stim/5.jpg,stim/latef.jpg,EF,2,4,,,,,0,0,0,59,,,,,,,,,,,,,,4,1,0.999632426824,,,,,,PLC_L_D1S1,P27,60.0194681835,01,B,2015_Jul_30_1515,X,
stim/posf.jpg,stim/negf.jpg,stim/2.jpg,stim/4.jpg,stim/latef.jpg,AB,1,2,,,,,0,1,1,5,,,,,,,,,,,,,,2,1,0.983010320223,,,,,,PLC_L_D1S1,P27,60.0194681835,01,B,2015_Jul_30_1515,X,
stim/posf.jpg,stim/negf.jpg,stim/3.jpg,stim/5.jpg,stim/latef.jpg,EF,2,4,,,,,0,2,2,54,,,,,,,,,,,,,,2,0,0.7330855768,,,,,,PLC_L_D1S1,P27,60.0194681835,01,B,2015_Jul_30_1515,X,
stim/negf.jpg,stim/posf.jpg,stim/6.jpg,stim/1.jpg,stim/latef.jpg,CD,2,4,,,,,0,3,3,38,,,,,,,,,,,,,,4,1,1.03298492493,,,,,,PLC_L_D1S1,P27,60.0194681835,01,B,2015_Jul_30_1515,X,
stim/negf.jpg,stim/posf.jpg,stim/1.jpg,stim/6.jpg,stim/latef.jpg,CD,1,2,,,,,0,4,4,28,,,,,,,,,,,,,,4,0,0.649768831813,,,,,,PLC_L_D1S1,P27,60.0194681835,01,B,2015_Jul_30_1515,X,
stim/posf.jpg,stim/negf.jpg,stim/2.jpg,stim/4.jpg,stim/latef.jpg,AB,1,2,,,,,0,5,5,3,,,,,,,,,,,,,,2,1,0.983000723303,,,,,,PLC_L_D1S1,P27,60.0194681835,01,B,2015_Jul_30_1515,X,
stim/posf.jpg,stim/negf.jpg,stim/6.jpg,stim/1.jpg,stim/latef.jpg,CD,2,4,,,,,0,6,6,32,,,,,,,,,,,,,,4,1,1.16626599499,,,,,,PLC_L_D1S1,P27,60.0194681835,01,B,2015_Jul_30_1515,X,
stim/negf.jpg,stim/posf.jpg,stim/3.jpg,stim/5.jpg,stim/latef.jpg,EF,2,4,,,,,0,7,7,57,,,,,,,,,,,,,,2,0,0.966349188352,,,,,,PLC_L_D1S1,P27,60.0194681835,01,B,2015_Jul_30_1515,X,
stim/posf.jpg,stim/negf.jpg,stim/3.jpg,stim/5.jpg,stim/latef.jpg,EF,2,4,,,,,0,8,8,55,,,,,,,,,,,,,,2,0,0.849688206855,,,,,,PLC_L_D1S1,P27,60.0194681835,01,B,2015_Jul_30_1515,X,
stim/posf.jpg,stim/negf.jpg,stim/4.jpg,stim/2.jpg,stim/latef.jpg,AB,2,4,,,,,0,9,9,11,,,,,,,,,,,,,,2,0,1.48283708544,,,,,,PLC_L_D1S1,P27,60.0194681835,01,B,2015_Jul_30_1515,X,
stim/posf.jpg,stim/negf.jpg,stim/1.jpg,stim/6.jpg,stim/latef.jpg,CD,1,2,,,,,0,10,10,24,,,,,,,,,,,,,,2,1,1.04965430034,,,,,,PLC_L_D1S1,P27,60.0194681835,01,B,2015_Jul_30_1515,X,
stim/posf.jpg,stim/negf.jpg,stim/4.jpg,stim/2.jpg,stim/latef.jpg,AB,2,4,,,,,0,11,11,17,,,,,,,,,,,,,,4,1,1.06629760378,,,,,,PLC_L_D1S1,P27,60.0194681835,01,B,2015_Jul_30_1515,X,
stim/posf.jpg,stim/negf.jpg,stim/1.jpg,stim/6.jpg,stim/latef.jpg,CD,1,2,,,,,0,12,12,20,,,,,,,,,,,,,,2,1,0.999657761972,,,,,,PLC_L_D1S1,P27,60.0194681835,01,B,2015_Jul_30_1515,X,
stim/negf.jpg,stim/posf.jpg,stim/4.jpg,stim/2.jpg,stim/latef.jpg,AB,2,4,,,,,0,13,13,18,,,,,,,,,,,,,,4,1,0.883051435703,,,,,,PLC_L_D1S1,P27,60.0194681835,01,B,2015_Jul_30_1515,X,
stim/negf.jpg,stim/posf.jpg,stim/1.jpg,stim/6.jpg,stim/latef.jpg,CD,1,2,,,,,0,14,14,29,,,,,,,,,,,,,,2,1,1.06630640973,,,,,,PLC_L_D1S1,P27,60.0194681835,01,B,2015_Jul_30_1515,X,
stim/posf.jpg,stim/negf.jpg,stim/6.jpg,stim/1.jpg,stim/latef.jpg,CD,2,4,,,,,0,15,15,30,,,,,,,,,,,,,,4,1,0.849615620935,,,,,,PLC_L_D1S1,P27,60.0194681835,01,B,2015_Jul_30_1515,X,
stim/posf.jpg,stim/negf.jpg,stim/6.jpg,stim/1.jpg,stim/latef.jpg,CD,2,4,,,,,0,16,16,34,,,,,,,,,,,,,,4,1,0.832937108744,,,,,,PLC_L_D1S1,P27,60.0194681835,01,B,2015_Jul_30_1515,X,
stim/posf.jpg,stim/negf.jpg,stim/2.jpg,stim/4.jpg,stim/latef.jpg,AB,1,2,,,,,0,17,17,4,,,,,,,,,,,,,,2,1,0.983018687078,,,,,,PLC_L_D1S1,P27,60.0194681835,01,B,2015_Jul_30_1515,X,
stim/negf.jpg,stim/posf.jpg,stim/5.jpg,stim/3.jpg,stim/latef.jpg,EF,1,2,,,,,0,18,18,47,,,,,,,,,,,,,,4,0,1.29956663484,,,,,,PLC_L_D1S1,P27,60.0194681835,01,B,2015_Jul_30_1515,X,
stim/negf.jpg,stim/posf.jpg,stim/5.jpg,stim/3.jpg,stim/latef.jpg,EF,1,2,,,,,0,19,19,46,,,,,,,,,,,,,,4,0,0.916375272366,,,,,,PLC_L_D1S1,P27,60.0194681835,01,B,2015_Jul_30_1515,X,
stim/posf.jpg,stim/negf.jpg,stim/6.jpg,stim/1.jpg,stim/latef.jpg,CD,2,4,,,,,0,20,20,33,,,,,,,,,,,,,,2,0,0.883059817595,,,,,,PLC_L_D1S1,P27,60.0194681835,01,B,2015_Jul_30_1515,X,
stim/posf.jpg,stim/negf.jpg,stim/1.jpg,stim/6.jpg,stim/latef.jpg,CD,1,2,,,,,0,21,21,22,,,,,,,,,,,,,,2,1,0.849726341907,,,,,,PLC_L_D1S1,P27,60.0194681835,01,B,2015_Jul_30_1515,X,
stim/posf.jpg,stim/negf.jpg,stim/1.jpg,stim/6.jpg,stim/latef.jpg,CD,1,2,,,,,0,22,22,26,,,,,,,,,,,,,,2,1,0.733080611424,,,,,,PLC_L_D1S1,P27,60.0194681835,01,B,2015_Jul_30_1515,X,
stim/posf.jpg,stim/negf.jpg,stim/2.jpg,stim/4.jpg,stim/latef.jpg,AB,1,2,,,,,0,23,23,7,,,,,,,,,,,,,,2,1,1.18288398433,,,,,,PLC_L_D1S1,P27,60.0194681835,01,B,2015_Jul_30_1515,X,
stim/posf.jpg,stim/negf.jpg,stim/3.jpg,stim/5.jpg,stim/latef.jpg,EF,2,4,,,,,0,24,24,50,,,,,,,,,,,,,,4,1,0.899624056962,,,,,,PLC_L_D1S1,P27,60.0194681835,01,B,2015_Jul_30_1515,X,
stim/negf.jpg,stim/posf.jpg,stim/1.jpg,stim/6.jpg,stim/latef.jpg,CD,1,2,,,,,0,25,25,27,,,,,,,,,,,,,,2,1,0.999676026496,,,,,,PLC_L_D1S1,P27,60.0194681835,01,B,2015_Jul_30_1515,X,
stim/posf.jpg,stim/negf.jpg,stim/2.jpg,stim/4.jpg,stim/latef.jpg,AB,1,2,,,,,0,26,26,2,,,,,,,,,,,,,,2,1,1.28291661266,,,,,,PLC_L_D1S1,P27,60.0194681835,01,B,2015_Jul_30_1515,X,
stim/posf.jpg,stim/negf.jpg,stim/5.jpg,stim/3.jpg,stim/latef.jpg,EF,1,2,,,,,0,27,27,45,,,,,,,,,,,,,,2,1,1.3828842941,,,,,,PLC_L_D1S1,P27,60.0194681835,01,B,2015_Jul_30_1515,X,
stim/posf.jpg,stim/negf.jpg,stim/2.jpg,stim/4.jpg,stim/latef.jpg,AB,1,2,,,,,0,28,28,1,,,,,,,,,,,,,,2,1,1.08295233269,,,,,,PLC_L_D1S1,P27,60.0194681835,01,B,2015_Jul_30_1515,X,
stim/posf.jpg,stim/negf.jpg,stim/4.jpg,stim/2.jpg,stim/latef.jpg,AB,2,4,,,,,0,29,29,14,,,,,,,,,,,,,,4,1,1.46619100308,,,,,,PLC_L_D1S1,P27,60.0194681835,01,B,2015_Jul_30_1515,X,
stim/posf.jpg,stim/negf.jpg,stim/6.jpg,stim/1.jpg,stim/latef.jpg,CD,2,4,,,,,0,30,30,31,,,,,,,,,,,,,,4,1,1.03296529199,,,,,,PLC_L_D1S1,P27,60.0194681835,01,B,2015_Jul_30_1515,X,
stim/posf.jpg,stim/negf.jpg,stim/6.jpg,stim/1.jpg,stim/latef.jpg,CD,2,4,,,,,0,31,31,35,,,,,,,,,,,,,,4,1,0.966363522079,,,,,,PLC_L_D1S1,P27,60.0194681835,01,B,2015_Jul_30_1515,X,
stim/posf.jpg,stim/negf.jpg,stim/5.jpg,stim/3.jpg,stim/latef.jpg,EF,1,2,,,,,0,32,32,40,,,,,,,,,,,,,,4,0,1.29957249645,,,,,,PLC_L_D1S1,P27,60.0194681835,01,B,2015_Jul_30_1515,X,
stim/posf.jpg,stim/negf.jpg,stim/4.jpg,stim/2.jpg,stim/latef.jpg,AB,2,4,,,,,0,33,33,10,,,,,,,,,,,,,,4,1,1.14964546733,,,,,,PLC_L_D1S1,P27,60.0194681835,01,B,2015_Jul_30_1515,X,
stim/negf.jpg,stim/posf.jpg,stim/2.jpg,stim/4.jpg,stim/latef.jpg,AB,1,2,,,,,0,34,34,8,,,,,,,,,,,,,,2,1,1.01638041518,,,,,,PLC_L_D1S1,P27,60.0194681835,01,B,2015_Jul_30_1515,X,
stim/posf.jpg,stim/negf.jpg,stim/4.jpg,stim/2.jpg,stim/latef.jpg,AB,2,4,,,,,0,35,35,12,,,,,,,,,,,,,,4,1,0.866379930978,,,,,,PLC_L_D1S1,P27,60.0194681835,01,B,2015_Jul_30_1515,X,
stim/negf.jpg,stim/posf.jpg,stim/3.jpg,stim/5.jpg,stim/latef.jpg,EF,2,4,,,,,0,36,36,58,,,,,,,,,,,,,,4,1,1.13293579748,,,,,,PLC_L_D1S1,P27,60.0194681835,01,B,2015_Jul_30_1515,X,
stim/negf.jpg,stim/posf.jpg,stim/4.jpg,stim/2.jpg,stim/latef.jpg,AB,2,4,,,,,0,37,37,19,,,,,,,,,,,,,,4,1,0.966337672649,,,,,,PLC_L_D1S1,P27,60.0194681835,01,B,2015_Jul_30_1515,X,
stim/negf.jpg,stim/posf.jpg,stim/6.jpg,stim/1.jpg,stim/latef.jpg,CD,2,4,,,,,0,38,38,37,,,,,,,,,,,,,,4,1,0.933041273374,,,,,,PLC_L_D1S1,P27,60.0194681835,01,B,2015_Jul_30_1515,X,
stim/posf.jpg,stim/negf.jpg,stim/4.jpg,stim/2.jpg,stim/latef.jpg,AB,2,4,,,,,0,39,39,13,,,,,,,,,,,,,,4,1,1.18296457921,,,,,,PLC_L_D1S1,P27,60.0194681835,01,B,2015_Jul_30_1515,X,
stim/negf.jpg,stim/posf.jpg,stim/2.jpg,stim/4.jpg,stim/latef.jpg,AB,1,2,,,,,0,40,40,9,,,,,,,,,,,,,,2,1,0.916359898046,,,,,,PLC_L_D1S1,P27,60.0194681835,01,B,2015_Jul_30_1515,X,
stim/posf.jpg,stim/negf.jpg,stim/3.jpg,stim/5.jpg,stim/latef.jpg,EF,2,4,,,,,0,41,41,53,,,,,,,,,,,,,,4,1,0.966367528064,,,,,,PLC_L_D1S1,P27,60.0194681835,01,B,2015_Jul_30_1515,X,
stim/posf.jpg,stim/negf.jpg,stim/2.jpg,stim/4.jpg,stim/latef.jpg,AB,1,2,,,,,0,42,42,6,,,,,,,,,,,,,,2,1,0.766409344291,,,,,,PLC_L_D1S1,P27,60.0194681835,01,B,2015_Jul_30_1515,X,
stim/posf.jpg,stim/negf.jpg,stim/3.jpg,stim/5.jpg,stim/latef.jpg,EF,2,4,,,,,0,43,43,51,,,,,,,,,,,,,,4,1,0.94967512124,,,,,,PLC_L_D1S1,P27,60.0194681835,01,B,2015_Jul_30_1515,X,
stim/posf.jpg,stim/negf.jpg,stim/5.jpg,stim/3.jpg,stim/latef.jpg,EF,1,2,,,,,0,44,44,42,,,,,,,,,,,,,,2,1,0.93293603206,,,,,,PLC_L_D1S1,P27,60.0194681835,01,B,2015_Jul_30_1515,X,
stim/posf.jpg,stim/negf.jpg,stim/6.jpg,stim/1.jpg,stim/latef.jpg,CD,2,4,,,,,0,45,45,36,,,,,,,,,,,,,,4,1,0.966396806039,,,,,,PLC_L_D1S1,P27,60.0194681835,01,B,2015_Jul_30_1515,X,
stim/posf.jpg,stim/negf.jpg,stim/1.jpg,stim/6.jpg,stim/latef.jpg,CD,1,2,,,,,0,46,46,23,,,,,,,,,,,,,,4,0,0.566463226592,,,,,,PLC_L_D1S1,P27,60.0194681835,01,B,2015_Jul_30_1515,X,
stim/negf.jpg,stim/posf.jpg,stim/5.jpg,stim/3.jpg,stim/latef.jpg,EF,1,2,,,,,0,47,47,48,,,,,,,,,,,,,,2,1,1.33288380388,,,,,,PLC_L_D1S1,P27,60.0194681835,01,B,2015_Jul_30_1515,X,
stim/posf.jpg,stim/negf.jpg,stim/2.jpg,stim/4.jpg,stim/latef.jpg,AB,1,2,,,,,0,48,48,0,,,,,,,,,,,,,,2,1,1.21622896971,,,,,,PLC_L_D1S1,P27,60.0194681835,01,B,2015_Jul_30_1515,X,
stim/negf.jpg,stim/posf.jpg,stim/5.jpg,stim/3.jpg,stim/latef.jpg,EF,1,2,,,,,0,49,49,49,,,,,,,,,,,,,,2,1,0.849722191562,,,,,,PLC_L_D1S1,P27,60.0194681835,01,B,2015_Jul_30_1515,X,
stim/negf.jpg,stim/posf.jpg,stim/6.jpg,stim/1.jpg,stim/latef.jpg,CD,2,4,,,,,0,50,50,39,,,,,,,,,,,,,,4,1,0.999674477636,,,,,,PLC_L_D1S1,P27,60.0194681835,01,B,2015_Jul_30_1515,X,
stim/posf.jpg,stim/negf.jpg,stim/5.jpg,stim/3.jpg,stim/latef.jpg,EF,1,2,,,,,0,51,51,41,,,,,,,,,,,,,,2,1,1.13291571342,,,,,,PLC_L_D1S1,P27,60.0194681835,01,B,2015_Jul_30_1515,X,
stim/posf.jpg,stim/negf.jpg,stim/5.jpg,stim/3.jpg,stim/latef.jpg,EF,1,2,,,,,0,52,52,43,,,,,,,,,,,,,,2,1,1.08296521079,,,,,,PLC_L_D1S1,P27,60.0194681835,01,B,2015_Jul_30_1515,X,
stim/posf.jpg,stim/negf.jpg,stim/4.jpg,stim/2.jpg,stim/latef.jpg,AB,2,4,,,,,0,53,53,16,,,,,,,,,,,,,,2,0,0.583140183908,,,,,,PLC_L_D1S1,P27,60.0194681835,01,B,2015_Jul_30_1515,X,
stim/posf.jpg,stim/negf.jpg,stim/3.jpg,stim/5.jpg,stim/latef.jpg,EF,2,4,,,,,0,54,54,52,,,,,,,,,,,,,,4,1,1.04966753032,,,,,,PLC_L_D1S1,P27,60.0194681835,01,B,2015_Jul_30_1515,X,
stim/posf.jpg,stim/negf.jpg,stim/1.jpg,stim/6.jpg,stim/latef.jpg,CD,1,2,,,,,0,55,55,21,,,,,,,,,,,,,,2,1,1.23293512981,,,,,,PLC_L_D1S1,P27,60.0194681835,01,B,2015_Jul_30_1515,X,
stim/negf.jpg,stim/posf.jpg,stim/3.jpg,stim/5.jpg,stim/latef.jpg,EF,2,4,,,,,0,56,56,56,,,,,,,,,,,,,,4,1,1.14957568439,,,,,,PLC_L_D1S1,P27,60.0194681835,01,B,2015_Jul_30_1515,X,
stim/posf.jpg,stim/negf.jpg,stim/5.jpg,stim/3.jpg,stim/latef.jpg,EF,1,2,,,,,0,57,57,44,,,,,,,,,,,,,,2,1,1.11629939925,,,,,,PLC_L_D1S1,P27,60.0194681835,01,B,2015_Jul_30_1515,X,
stim/posf.jpg,stim/negf.jpg,stim/1.jpg,stim/6.jpg,stim/latef.jpg,CD,1,2,,,,,0,58,58,25,,,,,,,,,,,,,,2,1,0.866396634612,,,,,,PLC_L_D1S1,P27,60.0194681835,01,B,2015_Jul_30_1515,X,
stim/posf.jpg,stim/negf.jpg,stim/4.jpg,stim/2.jpg,stim/latef.jpg,AB,2,4,,,,,0,59,59,15,,,,,,,,,,,,,,4,1,0.999648832716,,,,,,PLC_L_D1S1,P27,60.0194681835,01,B,2015_Jul_30_1515,X,
,,,,,,,,,,,,,,,,,,,,,,,,,,,,,,,,0.9796875,0.923828125,1,0,0,PLC_L_D1S1,P27,60.0194681835,01,B,2015_Jul_30_1515,X,
stim/posf.jpg,stim/negf.jpg,stim/2.jpg,stim/4.jpg,stim/latef.jpg,AB,1,2,,,,,,,,,0,0,0,4,,,,,,,,,,2,1,1.1162843738,,,,,,PLC_L_D1S1,P27,60.0194681835,01,B,2015_Jul_30_1515,X,
stim/posf.jpg,stim/negf.jpg,stim/6.jpg,stim/1.jpg,stim/latef.jpg,CD,2,4,,,,,,,,,0,1,1,34,,,,,,,,,,4,1,0.783045989128,,,,,,PLC_L_D1S1,P27,60.0194681835,01,B,2015_Jul_30_1515,X,
stim/posf.jpg,stim/negf.jpg,stim/2.jpg,stim/4.jpg,stim/latef.jpg,AB,1,2,,,,,,,,,0,2,2,2,,,,,,,,,,2,1,1.23293915685,,,,,,PLC_L_D1S1,P27,60.0194681835,01,B,2015_Jul_30_1515,X,
stim/posf.jpg,stim/negf.jpg,stim/3.jpg,stim/5.jpg,stim/latef.jpg,EF,2,4,,,,,,,,,0,3,3,52,,,,,,,,,,4,1,0.666445253795,,,,,,PLC_L_D1S1,P27,60.0194681835,01,B,2015_Jul_30_1515,X,
stim/posf.jpg,stim/negf.jpg,stim/6.jpg,stim/1.jpg,stim/latef.jpg,CD,2,4,,,,,,,,,0,4,4,32,,,,,,,,,,4,1,0.916367546109,,,,,,PLC_L_D1S1,P27,60.0194681835,01,B,2015_Jul_30_1515,X,
stim/posf.jpg,stim/negf.jpg,stim/5.jpg,stim/3.jpg,stim/latef.jpg,EF,1,2,,,,,,,,,0,5,5,40,,,,,,,,,,2,1,0.93302692461,,,,,,PLC_L_D1S1,P27,60.0194681835,01,B,2015_Jul_30_1515,X,
stim/negf.jpg,stim/posf.jpg,stim/1.jpg,stim/6.jpg,stim/latef.jpg,CD,1,2,,,,,,,,,0,6,6,29,,,,,,,,,,2,1,0.849695575221,,,,,,PLC_L_D1S1,P27,60.0194681835,01,B,2015_Jul_30_1515,X,
stim/posf.jpg,stim/negf.jpg,stim/2.jpg,stim/4.jpg,stim/latef.jpg,AB,1,2,,,,,,,,,0,7,7,5,,,,,,,,,,2,1,0.799707638288,,,,,,PLC_L_D1S1,P27,60.0194681835,01,B,2015_Jul_30_1515,X,
stim/posf.jpg,stim/negf.jpg,stim/5.jpg,stim/3.jpg,stim/latef.jpg,EF,1,2,,,,,,,,,0,8,8,45,,,,,,,,,,2,1,0.766416733709,,,,,,PLC_L_D1S1,P27,60.0194681835,01,B,2015_Jul_30_1515,X,
stim/posf.jpg,stim/negf.jpg,stim/2.jpg,stim/4.jpg,stim/latef.jpg,AB,1,2,,,,,,,,,0,9,9,3,,,,,,,,,,2,1,0.816376887392,,,,,,PLC_L_D1S1,P27,60.0194681835,01,B,2015_Jul_30_1515,X,
stim/posf.jpg,stim/negf.jpg,stim/1.jpg,stim/6.jpg,stim/latef.jpg,CD,1,2,,,,,,,,,0,10,10,23,,,,,,,,,,2,1,0.966352631935,,,,,,PLC_L_D1S1,P27,60.0194681835,01,B,2015_Jul_30_1515,X,
stim/negf.jpg,stim/posf.jpg,stim/5.jpg,stim/3.jpg,stim/latef.jpg,EF,1,2,,,,,,,,,0,11,11,49,,,,,,,,,,2,1,0.816444207186,,,,,,PLC_L_D1S1,P27,60.0194681835,01,B,2015_Jul_30_1515,X,
stim/posf.jpg,stim/negf.jpg,stim/2.jpg,stim/4.jpg,stim/latef.jpg,AB,1,2,,,,,,,,,0,12,12,6,,,,,,,,,,2,1,1.3995296276,,,,,,PLC_L_D1S1,P27,60.0194681835,01,B,2015_Jul_30_1515,X,
stim/posf.jpg,stim/negf.jpg,stim/2.jpg,stim/4.jpg,stim/latef.jpg,AB,1,2,,,,,,,,,0,13,13,1,,,,,,,,,,2,1,0.733091766227,,,,,,PLC_L_D1S1,P27,60.0194681835,01,B,2015_Jul_30_1515,X,
stim/posf.jpg,stim/negf.jpg,stim/4.jpg,stim/2.jpg,stim/latef.jpg,AB,2,4,,,,,,,,,0,14,14,12,,,,,,,,,,4,1,0.999608592417,,,,,,PLC_L_D1S1,P27,60.0194681835,01,B,2015_Jul_30_1515,X,
stim/posf.jpg,stim/negf.jpg,stim/6.jpg,stim/1.jpg,stim/latef.jpg,CD,2,4,,,,,,,,,0,15,15,33,,,,,,,,,,4,1,0.89967913324,,,,,,PLC_L_D1S1,P27,60.0194681835,01,B,2015_Jul_30_1515,X,
stim/posf.jpg,stim/negf.jpg,stim/6.jpg,stim/1.jpg,stim/latef.jpg,CD,2,4,,,,,,,,,0,16,16,31,,,,,,,,,,4,1,1.28290996609,,,,,,PLC_L_D1S1,P27,60.0194681835,01,B,2015_Jul_30_1515,X,
stim/negf.jpg,stim/posf.jpg,stim/2.jpg,stim/4.jpg,stim/latef.jpg,AB,1,2,,,,,,,,,0,17,17,9,,,,,,,,,,2,1,0.89969819475,,,,,,PLC_L_D1S1,P27,60.0194681835,01,B,2015_Jul_30_1515,X,
stim/posf.jpg,stim/negf.jpg,stim/4.jpg,stim/2.jpg,stim/latef.jpg,AB,2,4,,,,,,,,,0,18,18,13,,,,,,,,,,4,1,0.733092773738,,,,,,PLC_L_D1S1,P27,60.0194681835,01,B,2015_Jul_30_1515,X,
stim/negf.jpg,stim/posf.jpg,stim/6.jpg,stim/1.jpg,stim/latef.jpg,CD,2,4,,,,,,,,,0,19,19,37,,,,,,,,,,4,1,1.016350653,,,,,,PLC_L_D1S1,P27,60.0194681835,01,B,2015_Jul_30_1515,X,
stim/negf.jpg,stim/posf.jpg,stim/6.jpg,stim/1.jpg,stim/latef.jpg,CD,2,4,,,,,,,,,0,20,20,39,,,,,,,,,,4,1,0.583152249983,,,,,,PLC_L_D1S1,P27,60.0194681835,01,B,2015_Jul_30_1515,X,
stim/negf.jpg,stim/posf.jpg,stim/2.jpg,stim/4.jpg,stim/latef.jpg,AB,1,2,,,,,,,,,0,21,21,8,,,,,,,,,,2,1,0.899693761701,,,,,,PLC_L_D1S1,P27,60.0194681835,01,B,2015_Jul_30_1515,X,
stim/posf.jpg,stim/negf.jpg,stim/5.jpg,stim/3.jpg,stim/latef.jpg,EF,1,2,,,,,,,,,0,22,22,41,,,,,,,,,,2,1,1.23288151217,,,,,,PLC_L_D1S1,P27,60.0194681835,01,B,2015_Jul_30_1515,X,
stim/posf.jpg,stim/negf.jpg,stim/1.jpg,stim/6.jpg,stim/latef.jpg,CD,1,2,,,,,,,,,0,23,23,21,,,,,,,,,,2,1,0.816399184969,,,,,,PLC_L_D1S1,P27,60.0194681835,01,B,2015_Jul_30_1515,X,
stim/negf.jpg,stim/posf.jpg,stim/4.jpg,stim/2.jpg,stim/latef.jpg,AB,2,4,,,,,,,,,0,24,24,19,,,,,,,,,,4,1,1.4328392779,,,,,,PLC_L_D1S1,P27,60.0194681835,01,B,2015_Jul_30_1515,X,
stim/posf.jpg,stim/negf.jpg,stim/6.jpg,stim/1.jpg,stim/latef.jpg,CD,2,4,,,,,,,,,0,25,25,35,,,,,,,,,,4,1,1.1329528169,,,,,,PLC_L_D1S1,P27,60.0194681835,01,B,2015_Jul_30_1515,X,
stim/negf.jpg,stim/posf.jpg,stim/3.jpg,stim/5.jpg,stim/latef.jpg,EF,2,4,,,,,,,,,0,26,26,58,,,,,,,,,,4,1,0.816415726198,,,,,,PLC_L_D1S1,P27,60.0194681835,01,B,2015_Jul_30_1515,X,
stim/posf.jpg,stim/negf.jpg,stim/3.jpg,stim/5.jpg,stim/latef.jpg,EF,2,4,,,,,,,,,0,27,27,55,,,,,,,,,,4,1,0.716425987775,,,,,,PLC_L_D1S1,P27,60.0194681835,01,B,2015_Jul_30_1515,X,
stim/posf.jpg,stim/negf.jpg,stim/4.jpg,stim/2.jpg,stim/latef.jpg,AB,2,4,,,,,,,,,0,28,28,16,,,,,,,,,,4,1,0.766424703574,,,,,,PLC_L_D1S1,P27,60.0194681835,01,B,2015_Jul_30_1515,X,
stim/negf.jpg,stim/posf.jpg,stim/3.jpg,stim/5.jpg,stim/latef.jpg,EF,2,4,,,,,,,,,0,29,29,57,,,,,,,,,,4,1,0.749747896632,,,,,,PLC_L_D1S1,P27,60.0194681835,01,B,2015_Jul_30_1515,X,
stim/posf.jpg,stim/negf.jpg,stim/5.jpg,stim/3.jpg,stim/latef.jpg,EF,1,2,,,,,,,,,0,30,30,43,,,,,,,,,,2,1,0.933012214946,,,,,,PLC_L_D1S1,P27,60.0194681835,01,B,2015_Jul_30_1515,X,
stim/negf.jpg,stim/posf.jpg,stim/5.jpg,stim/3.jpg,stim/latef.jpg,EF,1,2,,,,,,,,,0,31,31,48,,,,,,,,,,2,1,0.633132565921,,,,,,PLC_L_D1S1,P27,60.0194681835,01,B,2015_Jul_30_1515,X,
stim/negf.jpg,stim/posf.jpg,stim/5.jpg,stim/3.jpg,stim/latef.jpg,EF,1,2,,,,,,,,,0,32,32,47,,,,,,,,,,2,1,0.449848879332,,,,,,PLC_L_D1S1,P27,60.0194681835,01,B,2015_Jul_30_1515,X,
stim/posf.jpg,stim/negf.jpg,stim/4.jpg,stim/2.jpg,stim/latef.jpg,AB,2,4,,,,,,,,,0,33,33,15,,,,,,,,,,2,0,0.799820744205,,,,,,PLC_L_D1S1,P27,60.0194681835,01,B,2015_Jul_30_1515,X,
stim/posf.jpg,stim/negf.jpg,stim/3.jpg,stim/5.jpg,stim/latef.jpg,EF,2,4,,,,,,,,,0,34,34,51,,,,,,,,,,4,1,0.999667737836,,,,,,PLC_L_D1S1,P27,60.0194681835,01,B,2015_Jul_30_1515,X,
stim/negf.jpg,stim/posf.jpg,stim/3.jpg,stim/5.jpg,stim/latef.jpg,EF,2,4,,,,,,,,,0,35,35,59,,,,,,,,,,4,1,0.78306984158,,,,,,PLC_L_D1S1,P27,60.0194681835,01,B,2015_Jul_30_1515,X,
stim/posf.jpg,stim/negf.jpg,stim/1.jpg,stim/6.jpg,stim/latef.jpg,CD,1,2,,,,,,,,,0,36,36,25,,,,,,,,,,2,1,0.899635202743,,,,,,PLC_L_D1S1,P27,60.0194681835,01,B,2015_Jul_30_1515,X,
stim/negf.jpg,stim/posf.jpg,stim/3.jpg,stim/5.jpg,stim/latef.jpg,EF,2,4,,,,,,,,,0,37,37,56,,,,,,,,,,4,1,0.749806371381,,,,,,PLC_L_D1S1,P27,60.0194681835,01,B,2015_Jul_30_1515,X,
stim/posf.jpg,stim/negf.jpg,stim/3.jpg,stim/5.jpg,stim/latef.jpg,EF,2,4,,,,,,,,,0,38,38,53,,,,,,,,,,4,1,1.11628738731,,,,,,PLC_L_D1S1,P27,60.0194681835,01,B,2015_Jul_30_1515,X,
stim/posf.jpg,stim/negf.jpg,stim/1.jpg,stim/6.jpg,stim/latef.jpg,CD,1,2,,,,,,,,,0,39,39,22,,,,,,,,,,2,1,0.716501569161,,,,,,PLC_L_D1S1,P27,60.0194681835,01,B,2015_Jul_30_1515,X,
stim/negf.jpg,stim/posf.jpg,stim/4.jpg,stim/2.jpg,stim/latef.jpg,AB,2,4,,,,,,,,,0,40,40,18,,,,,,,,,,4,1,0.449857219119,,,,,,PLC_L_D1S1,P27,60.0194681835,01,B,2015_Jul_30_1515,X,
stim/posf.jpg,stim/negf.jpg,stim/1.jpg,stim/6.jpg,stim/latef.jpg,CD,1,2,,,,,,,,,0,41,41,20,,,,,,,,,,2,1,0.933030073458,,,,,,PLC_L_D1S1,P27,60.0194681835,01,B,2015_Jul_30_1515,X,
stim/posf.jpg,stim/negf.jpg,stim/1.jpg,stim/6.jpg,stim/latef.jpg,CD,1,2,,,,,,,,,0,42,42,24,,,,,,,,,,2,1,0.799738314749,,,,,,PLC_L_D1S1,P27,60.0194681835,01,B,2015_Jul_30_1515,X,
stim/posf.jpg,stim/negf.jpg,stim/4.jpg,stim/2.jpg,stim/latef.jpg,AB,2,4,,,,,,,,,0,43,43,11,,,,,,,,,,4,1,0.982951313148,,,,,,PLC_L_D1S1,P27,60.0194681835,01,B,2015_Jul_30_1515,X,
stim/negf.jpg,stim/posf.jpg,stim/1.jpg,stim/6.jpg,stim/latef.jpg,CD,1,2,,,,,,,,,0,44,44,27,,,,,,,,,,2,1,0.749771914497,,,,,,PLC_L_D1S1,P27,60.0194681835,01,B,2015_Jul_30_1515,X,
stim/posf.jpg,stim/negf.jpg,stim/6.jpg,stim/1.jpg,stim/latef.jpg,CD,2,4,,,,,,,,,0,45,45,36,,,,,,,,,,4,1,0.833112376599,,,,,,PLC_L_D1S1,P27,60.0194681835,01,B,2015_Jul_30_1515,X,
stim/posf.jpg,stim/negf.jpg,stim/2.jpg,stim/4.jpg,stim/latef.jpg,AB,1,2,,,,,,,,,0,46,46,7,,,,,,,,,,2,1,0.616482360283,,,,,,PLC_L_D1S1,P27,60.0194681835,01,B,2015_Jul_30_1515,X,
stim/posf.jpg,stim/negf.jpg,stim/3.jpg,stim/5.jpg,stim/latef.jpg,EF,2,4,,,,,,,,,0,47,47,54,,,,,,,,,,4,1,0.783052560507,,,,,,PLC_L_D1S1,P27,60.0194681835,01,B,2015_Jul_30_1515,X,
stim/negf.jpg,stim/posf.jpg,stim/6.jpg,stim/1.jpg,stim/latef.jpg,CD,2,4,,,,,,,,,0,48,48,38,,,,,,,,,,4,1,0.733090069999,,,,,,PLC_L_D1S1,P27,60.0194681835,01,B,2015_Jul_30_1515,X,
stim/negf.jpg,stim/posf.jpg,stim/5.jpg,stim/3.jpg,stim/latef.jpg,EF,1,2,,,,,,,,,0,49,49,46,,,,,,,,,,2,1,0.833052121412,,,,,,PLC_L_D1S1,P27,60.0194681835,01,B,2015_Jul_30_1515,X,
stim/posf.jpg,stim/negf.jpg,stim/4.jpg,stim/2.jpg,stim/latef.jpg,AB,2,4,,,,,,,,,0,50,50,14,,,,,,,,,,4,1,0.416459755942,,,,,,PLC_L_D1S1,P27,60.0194681835,01,B,2015_Jul_30_1515,X,
stim/posf.jpg,stim/negf.jpg,stim/3.jpg,stim/5.jpg,stim/latef.jpg,EF,2,4,,,,,,,,,0,51,51,50,,,,,,,,,,4,1,1.11629091511,,,,,,PLC_L_D1S1,P27,60.0194681835,01,B,2015_Jul_30_1515,X,
stim/posf.jpg,stim/negf.jpg,stim/6.jpg,stim/1.jpg,stim/latef.jpg,CD,2,4,,,,,,,,,0,52,52,30,,,,,,,,,,4,1,0.74975337629,,,,,,PLC_L_D1S1,P27,60.0194681835,01,B,2015_Jul_30_1515,X,
stim/posf.jpg,stim/negf.jpg,stim/4.jpg,stim/2.jpg,stim/latef.jpg,AB,2,4,,,,,,,,,0,53,53,10,,,,,,,,,,4,1,0.666458853693,,,,,,PLC_L_D1S1,P27,60.0194681835,01,B,2015_Jul_30_1515,X,
stim/posf.jpg,stim/negf.jpg,stim/5.jpg,stim/3.jpg,stim/latef.jpg,EF,1,2,,,,,,,,,0,54,54,42,,,,,,,,,,2,1,0.78308528808,,,,,,PLC_L_D1S1,P27,60.0194681835,01,B,2015_Jul_30_1515,X,
stim/posf.jpg,stim/negf.jpg,stim/2.jpg,stim/4.jpg,stim/latef.jpg,AB,1,2,,,,,,,,,0,55,55,0,,,,,,,,,,2,1,0.866376643785,,,,,,PLC_L_D1S1,P27,60.0194681835,01,B,2015_Jul_30_1515,X,
stim/posf.jpg,stim/negf.jpg,stim/5.jpg,stim/3.jpg,stim/latef.jpg,EF,1,2,,,,,,,,,0,56,56,44,,,,,,,,,,2,1,1.11626697544,,,,,,PLC_L_D1S1,P27,60.0194681835,01,B,2015_Jul_30_1515,X,
stim/negf.jpg,stim/posf.jpg,stim/1.jpg,stim/6.jpg,stim/latef.jpg,CD,1,2,,,,,,,,,0,57,57,28,,,,,,,,,,2,1,0.799728383997,,,,,,PLC_L_D1S1,P27,60.0194681835,01,B,2015_Jul_30_1515,X,
stim/posf.jpg,stim/negf.jpg,stim/4.jpg,stim/2.jpg,stim/latef.jpg,AB,2,4,,,,,,,,,0,58,58,17,,,,,,,,,,4,1,0.799790582026,,,,,,PLC_L_D1S1,P27,60.0194681835,01,B,2015_Jul_30_1515,X,
stim/posf.jpg,stim/negf.jpg,stim/1.jpg,stim/6.jpg,stim/latef.jpg,CD,1,2,,,,,,,,,0,59,59,26,,,,,,,,,,2,1,0.799727484756,,,,,,PLC_L_D1S1,P27,60.0194681835,01,B,2015_Jul_30_1515,X,
,,,,,,,,,,,,,,,,,,,,,,,,,,,,,,,,0.9796875,0.923828125,1,0,0,PLC_L_D1S1,P27,60.0194681835,01,B,2015_Jul_30_1515,X,
stim/negf.jpg,stim/posf.jpg,stim/3.jpg,stim/5.jpg,stim/latef.jpg,EF,2,4,,,,,,,,,,,,,0,0,0,57,,,,,,4,1,0.899663912302,,,,,,PLC_L_D1S1,P27,60.0194681835,01,B,2015_Jul_30_1515,X,
stim/posf.jpg,stim/negf.jpg,stim/3.jpg,stim/5.jpg,stim/latef.jpg,EF,2,4,,,,,,,,,,,,,0,1,1,52,,,,,,4,1,0.766406111232,,,,,,PLC_L_D1S1,P27,60.0194681835,01,B,2015_Jul_30_1515,X,
stim/posf.jpg,stim/negf.jpg,stim/1.jpg,stim/6.jpg,stim/latef.jpg,CD,1,2,,,,,,,,,,,,,0,2,2,20,,,,,,2,1,0.716436285441,,,,,,PLC_L_D1S1,P27,60.0194681835,01,B,2015_Jul_30_1515,X,
stim/posf.jpg,stim/negf.jpg,stim/2.jpg,stim/4.jpg,stim/latef.jpg,AB,1,2,,,,,,,,,,,,,0,3,3,1,,,,,,2,1,1.14960695935,,,,,,PLC_L_D1S1,P27,60.0194681835,01,B,2015_Jul_30_1515,X,
stim/posf.jpg,stim/negf.jpg,stim/4.jpg,stim/2.jpg,stim/latef.jpg,AB,2,4,,,,,,,,,,,,,0,4,4,11,,,,,,4,1,1.04964988835,,,,,,PLC_L_D1S1,P27,60.0194681835,01,B,2015_Jul_30_1515,X,
stim/negf.jpg,stim/posf.jpg,stim/5.jpg,stim/3.jpg,stim/latef.jpg,EF,1,2,,,,,,,,,,,,,0,5,5,48,,,,,,2,1,1.18293836888,,,,,,PLC_L_D1S1,P27,60.0194681835,01,B,2015_Jul_30_1515,X,
stim/posf.jpg,stim/negf.jpg,stim/6.jpg,stim/1.jpg,stim/latef.jpg,CD,2,4,,,,,,,,,,,,,0,6,6,35,,,,,,4,1,1.06629399478,,,,,,PLC_L_D1S1,P27,60.0194681835,01,B,2015_Jul_30_1515,X,
stim/posf.jpg,stim/negf.jpg,stim/2.jpg,stim/4.jpg,stim/latef.jpg,AB,1,2,,,,,,,,,,,,,0,7,7,3,,,,,,2,1,0.76640785558,,,,,,PLC_L_D1S1,P27,60.0194681835,01,B,2015_Jul_30_1515,X,
stim/posf.jpg,stim/negf.jpg,stim/3.jpg,stim/5.jpg,stim/latef.jpg,EF,2,4,,,,,,,,,,,,,0,8,8,54,,,,,,2,0,1.09960164209,,,,,,PLC_L_D1S1,P27,60.0194681835,01,B,2015_Jul_30_1515,X,
stim/posf.jpg,stim/negf.jpg,stim/4.jpg,stim/2.jpg,stim/latef.jpg,AB,2,4,,,,,,,,,,,,,0,9,9,17,,,,,,4,1,0.849715087857,,,,,,PLC_L_D1S1,P27,60.0194681835,01,B,2015_Jul_30_1515,X,
stim/posf.jpg,stim/negf.jpg,stim/2.jpg,stim/4.jpg,stim/latef.jpg,AB,1,2,,,,,,,,,,,,,0,10,10,4,,,,,,2,1,0.766406562357,,,,,,PLC_L_D1S1,P27,60.0194681835,01,B,2015_Jul_30_1515,X,
stim/posf.jpg,stim/negf.jpg,stim/3.jpg,stim/5.jpg,stim/latef.jpg,EF,2,4,,,,,,,,,,,,,0,11,11,53,,,,,,4,1,0.733083185841,,,,,,PLC_L_D1S1,P27,60.0194681835,01,B,2015_Jul_30_1515,X,
stim/negf.jpg,stim/posf.jpg,stim/4.jpg,stim/2.jpg,stim/latef.jpg,AB,2,4,,,,,,,,,,,,,0,12,12,19,,,,,,2,0,1.16628484598,,,,,,PLC_L_D1S1,P27,60.0194681835,01,B,2015_Jul_30_1515,X,
stim/posf.jpg,stim/negf.jpg,stim/4.jpg,stim/2.jpg,stim/latef.jpg,AB,2,4,,,,,,,,,,,,,0,13,13,15,,,,,,4,1,0.599750657514,,,,,,PLC_L_D1S1,P27,60.0194681835,01,B,2015_Jul_30_1515,X,
stim/posf.jpg,stim/negf.jpg,stim/5.jpg,stim/3.jpg,stim/latef.jpg,EF,1,2,,,,,,,,,,,,,0,14,14,43,,,,,,2,1,0.883014993872,,,,,,PLC_L_D1S1,P27,60.0194681835,01,B,2015_Jul_30_1515,X,
stim/posf.jpg,stim/negf.jpg,stim/1.jpg,stim/6.jpg,stim/latef.jpg,CD,1,2,,,,,,,,,,,,,0,15,15,24,,,,,,2,1,0.933026446418,,,,,,PLC_L_D1S1,P27,60.0194681835,01,B,2015_Jul_30_1515,X,
stim/negf.jpg,stim/posf.jpg,stim/6.jpg,stim/1.jpg,stim/latef.jpg,CD,2,4,,,,,,,,,,,,,0,16,16,38,,,,,,4,1,1.09960720897,,,,,,PLC_L_D1S1,P27,60.0194681835,01,B,2015_Jul_30_1515,X,
stim/negf.jpg,stim/posf.jpg,stim/5.jpg,stim/3.jpg,stim/latef.jpg,EF,1,2,,,,,,,,,,,,,0,17,17,49,,,,,,2,1,1.0330465816,,,,,,PLC_L_D1S1,P27,60.0194681835,01,B,2015_Jul_30_1515,X,
stim/posf.jpg,stim/negf.jpg,stim/6.jpg,stim/1.jpg,stim/latef.jpg,CD,2,4,,,,,,,,,,,,,0,18,18,36,,,,,,4,1,0.666436664386,,,,,,PLC_L_D1S1,P27,60.0194681835,01,B,2015_Jul_30_1515,X,
stim/posf.jpg,stim/negf.jpg,stim/1.jpg,stim/6.jpg,stim/latef.jpg,CD,1,2,,,,,,,,,,,,,0,19,19,25,,,,,,2,1,0.833061420591,,,,,,PLC_L_D1S1,P27,60.0194681835,01,B,2015_Jul_30_1515,X,
stim/posf.jpg,stim/negf.jpg,stim/6.jpg,stim/1.jpg,stim/latef.jpg,CD,2,4,,,,,,,,,,,,,0,20,20,32,,,,,,4,1,0.816363795761,,,,,,PLC_L_D1S1,P27,60.0194681835,01,B,2015_Jul_30_1515,X,
stim/posf.jpg,stim/negf.jpg,stim/5.jpg,stim/3.jpg,stim/latef.jpg,EF,1,2,,,,,,,,,,,,,0,21,21,40,,,,,,2,1,0.716424348689,,,,,,PLC_L_D1S1,P27,60.0194681835,01,B,2015_Jul_30_1515,X,
stim/posf.jpg,stim/negf.jpg,stim/3.jpg,stim/5.jpg,stim/latef.jpg,EF,2,4,,,,,,,,,,,,,0,22,22,55,,,,,,4,1,0.833053989068,,,,,,PLC_L_D1S1,P27,60.0194681835,01,B,2015_Jul_30_1515,X,
stim/negf.jpg,stim/posf.jpg,stim/1.jpg,stim/6.jpg,stim/latef.jpg,CD,1,2,,,,,,,,,,,,,0,23,23,29,,,,,,2,1,0.799735201991,,,,,,PLC_L_D1S1,P27,60.0194681835,01,B,2015_Jul_30_1515,X,
stim/posf.jpg,stim/negf.jpg,stim/6.jpg,stim/1.jpg,stim/latef.jpg,CD,2,4,,,,,,,,,,,,,0,24,24,31,,,,,,4,1,1.13299689777,,,,,,PLC_L_D1S1,P27,60.0194681835,01,B,2015_Jul_30_1515,X,
stim/posf.jpg,stim/negf.jpg,stim/3.jpg,stim/5.jpg,stim/latef.jpg,EF,2,4,,,,,,,,,,,,,0,25,25,50,,,,,,4,1,0.966349305644,,,,,,PLC_L_D1S1,P27,60.0194681835,01,B,2015_Jul_30_1515,X,
stim/posf.jpg,stim/negf.jpg,stim/2.jpg,stim/4.jpg,stim/latef.jpg,AB,1,2,,,,,,,,,,,,,0,26,26,0,,,,,,2,1,0.733077784378,,,,,,PLC_L_D1S1,P27,60.0194681835,01,B,2015_Jul_30_1515,X,
stim/negf.jpg,stim/posf.jpg,stim/6.jpg,stim/1.jpg,stim/latef.jpg,CD,2,4,,,,,,,,,,,,,0,27,27,39,,,,,,4,1,0.699714522447,,,,,,PLC_L_D1S1,P27,60.0194681835,01,B,2015_Jul_30_1515,X,
stim/posf.jpg,stim/negf.jpg,stim/1.jpg,stim/6.jpg,stim/latef.jpg,CD,1,2,,,,,,,,,,,,,0,28,28,21,,,,,,4,0,0.599792557951,,,,,,PLC_L_D1S1,P27,60.0194681835,01,B,2015_Jul_30_1515,X,
stim/posf.jpg,stim/negf.jpg,stim/1.jpg,stim/6.jpg,stim/latef.jpg,CD,1,2,,,,,,,,,,,,,0,29,29,23,,,,,,2,1,0.699747207916,,,,,,PLC_L_D1S1,P27,60.0194681835,01,B,2015_Jul_30_1515,X,
stim/posf.jpg,stim/negf.jpg,stim/5.jpg,stim/3.jpg,stim/latef.jpg,EF,1,2,,,,,,,,,,,,,0,30,30,42,,,,,,2,1,1.09963455613,,,,,,PLC_L_D1S1,P27,60.0194681835,01,B,2015_Jul_30_1515,X,
stim/posf.jpg,stim/negf.jpg,stim/5.jpg,stim/3.jpg,stim/latef.jpg,EF,1,2,,,,,,,,,,,,,0,31,31,41,,,,,,2,1,0.783069634063,,,,,,PLC_L_D1S1,P27,60.0194681835,01,B,2015_Jul_30_1515,X,
stim/posf.jpg,stim/negf.jpg,stim/5.jpg,stim/3.jpg,stim/latef.jpg,EF,1,2,,,,,,,,,,,,,0,32,32,44,,,,,,2,1,0.533103468395,,,,,,PLC_L_D1S1,P27,60.0194681835,01,B,2015_Jul_30_1515,X,
stim/negf.jpg,stim/posf.jpg,stim/5.jpg,stim/3.jpg,stim/latef.jpg,EF,1,2,,,,,,,,,,,,,0,33,33,47,,,,,,2,1,0.649789751957,,,,,,PLC_L_D1S1,P27,60.0194681835,01,B,2015_Jul_30_1515,X,
stim/posf.jpg,stim/negf.jpg,stim/6.jpg,stim/1.jpg,stim/latef.jpg,CD,2,4,,,,,,,,,,,,,0,34,34,30,,,,,,4,1,0.98303994406,,,,,,PLC_L_D1S1,P27,60.0194681835,01,B,2015_Jul_30_1515,X,
stim/posf.jpg,stim/negf.jpg,stim/4.jpg,stim/2.jpg,stim/latef.jpg,AB,2,4,,,,,,,,,,,,,0,35,35,14,,,,,,4,1,1.1496275607,,,,,,PLC_L_D1S1,P27,60.0194681835,01,B,2015_Jul_30_1515,X,
stim/posf.jpg,stim/negf.jpg,stim/4.jpg,stim/2.jpg,stim/latef.jpg,AB,2,4,,,,,,,,,,,,,0,36,36,12,,,,,,4,1,0.366565000263,,,,,,PLC_L_D1S1,P27,60.0194681835,01,B,2015_Jul_30_1515,X,
stim/negf.jpg,stim/posf.jpg,stim/1.jpg,stim/6.jpg,stim/latef.jpg,CD,1,2,,,,,,,,,,,,,0,37,37,28,,,,,,2,1,0.849691009842,,,,,,PLC_L_D1S1,P27,60.0194681835,01,B,2015_Jul_30_1515,X,
stim/negf.jpg,stim/posf.jpg,stim/6.jpg,stim/1.jpg,stim/latef.jpg,CD,2,4,,,,,,,,,,,,,0,38,38,37,,,,,,4,1,1.04964662521,,,,,,PLC_L_D1S1,P27,60.0194681835,01,B,2015_Jul_30_1515,X,
stim/posf.jpg,stim/negf.jpg,stim/2.jpg,stim/4.jpg,stim/latef.jpg,AB,1,2,,,,,,,,,,,,,0,39,39,6,,,,,,2,1,0.949679719701,,,,,,PLC_L_D1S1,P27,60.0194681835,01,B,2015_Jul_30_1515,X,
stim/posf.jpg,stim/negf.jpg,stim/6.jpg,stim/1.jpg,stim/latef.jpg,CD,2,4,,,,,,,,,,,,,0,40,40,34,,,,,,4,1,0.766415623943,,,,,,PLC_L_D1S1,P27,60.0194681835,01,B,2015_Jul_30_1515,X,
stim/negf.jpg,stim/posf.jpg,stim/3.jpg,stim/5.jpg,stim/latef.jpg,EF,2,4,,,,,,,,,,,,,0,41,41,56,,,,,,4,1,0.833006446568,,,,,,PLC_L_D1S1,P27,60.0194681835,01,B,2015_Jul_30_1515,X,
stim/posf.jpg,stim/negf.jpg,stim/4.jpg,stim/2.jpg,stim/latef.jpg,AB,2,4,,,,,,,,,,,,,0,42,42,16,,,,,,4,1,0.916367600244,,,,,,PLC_L_D1S1,P27,60.0194681835,01,B,2015_Jul_30_1515,X,
stim/posf.jpg,stim/negf.jpg,stim/3.jpg,stim/5.jpg,stim/latef.jpg,EF,2,4,,,,,,,,,,,,,0,43,43,51,,,,,,4,1,1.04964215607,,,,,,PLC_L_D1S1,P27,60.0194681835,01,B,2015_Jul_30_1515,X,
stim/negf.jpg,stim/posf.jpg,stim/2.jpg,stim/4.jpg,stim/latef.jpg,AB,1,2,,,,,,,,,,,,,0,44,44,8,,,,,,2,1,0.966356409351,,,,,,PLC_L_D1S1,P27,60.0194681835,01,B,2015_Jul_30_1515,X,
stim/posf.jpg,stim/negf.jpg,stim/4.jpg,stim/2.jpg,stim/latef.jpg,AB,2,4,,,,,,,,,,,,,0,45,45,10,,,,,,4,1,0.899693190277,,,,,,PLC_L_D1S1,P27,60.0194681835,01,B,2015_Jul_30_1515,X,
stim/negf.jpg,stim/posf.jpg,stim/3.jpg,stim/5.jpg,stim/latef.jpg,EF,2,4,,,,,,,,,,,,,0,46,46,59,,,,,,4,1,0.933035035827,,,,,,PLC_L_D1S1,P27,60.0194681835,01,B,2015_Jul_30_1515,X,
stim/negf.jpg,stim/posf.jpg,stim/4.jpg,stim/2.jpg,stim/latef.jpg,AB,2,4,,,,,,,,,,,,,0,47,47,18,,,,,,4,1,0.71643954256,,,,,,PLC_L_D1S1,P27,60.0194681835,01,B,2015_Jul_30_1515,X,
stim/posf.jpg,stim/negf.jpg,stim/2.jpg,stim/4.jpg,stim/latef.jpg,AB,1,2,,,,,,,,,,,,,0,48,48,5,,,,,,2,1,1.44954242149,,,,,,PLC_L_D1S1,P27,60.0194681835,01,B,2015_Jul_30_1515,X,
stim/negf.jpg,stim/posf.jpg,stim/1.jpg,stim/6.jpg,stim/latef.jpg,CD,1,2,,,,,,,,,,,,,0,49,49,27,,,,,,2,1,0.916383627191,,,,,,PLC_L_D1S1,P27,60.0194681835,01,B,2015_Jul_30_1515,X,
stim/posf.jpg,stim/negf.jpg,stim/6.jpg,stim/1.jpg,stim/latef.jpg,CD,2,4,,,,,,,,,,,,,0,50,50,33,,,,,,4,1,1.0996904324,,,,,,PLC_L_D1S1,P27,60.0194681835,01,B,2015_Jul_30_1515,X,
stim/negf.jpg,stim/posf.jpg,stim/5.jpg,stim/3.jpg,stim/latef.jpg,EF,1,2,,,,,,,,,,,,,0,51,51,46,,,,,,None,0,,,,,,,PLC_L_D1S1,P27,60.0194681835,01,B,2015_Jul_30_1515,X,
stim/posf.jpg,stim/negf.jpg,stim/2.jpg,stim/4.jpg,stim/latef.jpg,AB,1,2,,,,,,,,,,,,,0,52,52,2,,,,,,2,1,0.883031923068,,,,,,PLC_L_D1S1,P27,60.0194681835,01,B,2015_Jul_30_1515,X,
stim/posf.jpg,stim/negf.jpg,stim/5.jpg,stim/3.jpg,stim/latef.jpg,EF,1,2,,,,,,,,,,,,,0,53,53,45,,,,,,2,1,0.932980173081,,,,,,PLC_L_D1S1,P27,60.0194681835,01,B,2015_Jul_30_1515,X,
stim/posf.jpg,stim/negf.jpg,stim/1.jpg,stim/6.jpg,stim/latef.jpg,CD,1,2,,,,,,,,,,,,,0,54,54,26,,,,,,2,1,1.03298744521,,,,,,PLC_L_D1S1,P27,60.0194681835,01,B,2015_Jul_30_1515,X,
stim/negf.jpg,stim/posf.jpg,stim/2.jpg,stim/4.jpg,stim/latef.jpg,AB,1,2,,,,,,,,,,,,,0,55,55,9,,,,,,2,1,0.766464787483,,,,,,PLC_L_D1S1,P27,60.0194681835,01,B,2015_Jul_30_1515,X,
stim/posf.jpg,stim/negf.jpg,stim/2.jpg,stim/4.jpg,stim/latef.jpg,AB,1,2,,,,,,,,,,,,,0,56,56,7,,,,,,2,1,0.616451569537,,,,,,PLC_L_D1S1,P27,60.0194681835,01,B,2015_Jul_30_1515,X,
stim/posf.jpg,stim/negf.jpg,stim/4.jpg,stim/2.jpg,stim/latef.jpg,AB,2,4,,,,,,,,,,,,,0,57,57,13,,,,,,4,1,0.749741009466,,,,,,PLC_L_D1S1,P27,60.0194681835,01,B,2015_Jul_30_1515,X,
stim/negf.jpg,stim/posf.jpg,stim/3.jpg,stim/5.jpg,stim/latef.jpg,EF,2,4,,,,,,,,,,,,,0,58,58,58,,,,,,4,1,1.19960533229,,,,,,PLC_L_D1S1,P27,60.0194681835,01,B,2015_Jul_30_1515,X,
stim/posf.jpg,stim/negf.jpg,stim/1.jpg,stim/6.jpg,stim/latef.jpg,CD,1,2,,,,,,,,,,,,,0,59,59,22,,,,,,2,1,0.966378685874,,,,,,PLC_L_D1S1,P27,60.0194681835,01,B,2015_Jul_30_1515,X,
