fb_corr,fb_incorr,symbol2,symbol1,fb_late,pair,position,correct,block_01.thisRepN,block_01.thisTrialN,block_01.thisN,block_01.thisIndex,block_02.thisRepN,block_02.thisTrialN,block_02.thisN,block_02.thisIndex,block_03.thisRepN,block_03.thisTrialN,block_03.thisN,block_03.thisIndex,block_04.thisRepN,block_04.thisTrialN,block_04.thisN,block_04.thisIndex,mouse.x,mouse.y,mouse.leftButton,mouse.midButton,mouse.rightButton,buttonBox_2.keys,buttonBox_2.corr,buttonBox_2.rt,mouse_2.x,mouse_2.y,mouse_2.leftButton,mouse_2.midButton,mouse_2.rightButton,expName,Participant,frameRate,SessionNumber,Version,date,Group,
,,,,,,,,,,,,,,,,,,,,,,,,0.9984375,0.0390625,1,0,0,,,,,,,,,PLC_L_D1S1,P29,60.0229550463,01,C,2015_Aug_05_1622,X,
stim/posf.jpg,stim/negf.jpg,stim/6.jpg,stim/3.jpg,stim/latef.jpg,EF,2,4,0,0,0,54,,,,,,,,,,,,,,,,,,2,0,0.949720732473,,,,,,PLC_L_D1S1,P29,60.0229550463,01,C,2015_Aug_05_1622,X,
stim/posf.jpg,stim/negf.jpg,stim/2.jpg,stim/5.jpg,stim/latef.jpg,AB,2,4,0,1,1,17,,,,,,,,,,,,,,,,,,4,1,1.09962451251,,,,,,PLC_L_D1S1,P29,60.0229550463,01,C,2015_Aug_05_1622,X,
stim/posf.jpg,stim/negf.jpg,stim/1.jpg,stim/4.jpg,stim/latef.jpg,CD,2,4,0,2,2,32,,,,,,,,,,,,,,,,,,2,0,1.18294030368,,,,,,PLC_L_D1S1,P29,60.0229550463,01,C,2015_Aug_05_1622,X,
stim/posf.jpg,stim/negf.jpg,stim/4.jpg,stim/1.jpg,stim/latef.jpg,CD,1,2,0,3,3,20,,,,,,,,,,,,,,,,,,4,0,1.1329608854,,,,,,PLC_L_D1S1,P29,60.0229550463,01,C,2015_Aug_05_1622,X,
stim/posf.jpg,stim/negf.jpg,stim/4.jpg,stim/1.jpg,stim/latef.jpg,CD,1,2,0,4,4,23,,,,,,,,,,,,,,,,,,2,1,1.19960557437,,,,,,PLC_L_D1S1,P29,60.0229550463,01,C,2015_Aug_05_1622,X,
stim/negf.jpg,stim/posf.jpg,stim/5.jpg,stim/2.jpg,stim/latef.jpg,AB,1,2,0,5,5,9,,,,,,,,,,,,,,,,,,2,1,1.59950193945,,,,,,PLC_L_D1S1,P29,60.0229550463,01,C,2015_Aug_05_1622,X,
stim/posf.jpg,stim/negf.jpg,stim/2.jpg,stim/5.jpg,stim/latef.jpg,AB,2,4,0,6,6,15,,,,,,,,,,,,,,,,,,None,0,,,,,,,PLC_L_D1S1,P29,60.0229550463,01,C,2015_Aug_05_1622,X,
stim/posf.jpg,stim/negf.jpg,stim/3.jpg,stim/6.jpg,stim/latef.jpg,EF,1,2,0,7,7,44,,,,,,,,,,,,,,,,,,4,0,0.916350381011,,,,,,PLC_L_D1S1,P29,60.0229550463,01,C,2015_Aug_05_1622,X,
stim/posf.jpg,stim/negf.jpg,stim/6.jpg,stim/3.jpg,stim/latef.jpg,EF,2,4,0,8,8,52,,,,,,,,,,,,,,,,,,2,0,1.0662784525,,,,,,PLC_L_D1S1,P29,60.0229550463,01,C,2015_Aug_05_1622,X,
stim/negf.jpg,stim/posf.jpg,stim/4.jpg,stim/1.jpg,stim/latef.jpg,CD,1,2,0,9,9,29,,,,,,,,,,,,,,,,,,4,0,1.19953817964,,,,,,PLC_L_D1S1,P29,60.0229550463,01,C,2015_Aug_05_1622,X,
stim/posf.jpg,stim/negf.jpg,stim/3.jpg,stim/6.jpg,stim/latef.jpg,EF,1,2,0,10,10,45,,,,,,,,,,,,,,,,,,4,0,1.28289712823,,,,,,PLC_L_D1S1,P29,60.0229550463,01,C,2015_Aug_05_1622,X,
stim/negf.jpg,stim/posf.jpg,stim/6.jpg,stim/3.jpg,stim/latef.jpg,EF,2,4,0,11,11,57,,,,,,,,,,,,,,,,,,4,1,0.933026653083,,,,,,PLC_L_D1S1,P29,60.0229550463,01,C,2015_Aug_05_1622,X,
stim/negf.jpg,stim/posf.jpg,stim/6.jpg,stim/3.jpg,stim/latef.jpg,EF,2,4,0,12,12,58,,,,,,,,,,,,,,,,,,4,1,1.06631525208,,,,,,PLC_L_D1S1,P29,60.0229550463,01,C,2015_Aug_05_1622,X,
stim/posf.jpg,stim/negf.jpg,stim/4.jpg,stim/1.jpg,stim/latef.jpg,CD,1,2,0,13,13,25,,,,,,,,,,,,,,,,,,2,1,1.28291046943,,,,,,PLC_L_D1S1,P29,60.0229550463,01,C,2015_Aug_05_1622,X,
stim/posf.jpg,stim/negf.jpg,stim/5.jpg,stim/2.jpg,stim/latef.jpg,AB,1,2,0,14,14,7,,,,,,,,,,,,,,,,,,4,0,1.33290594166,,,,,,PLC_L_D1S1,P29,60.0229550463,01,C,2015_Aug_05_1622,X,
stim/posf.jpg,stim/negf.jpg,stim/5.jpg,stim/2.jpg,stim/latef.jpg,AB,1,2,0,15,15,2,,,,,,,,,,,,,,,,,,2,1,1.19965612117,,,,,,PLC_L_D1S1,P29,60.0229550463,01,C,2015_Aug_05_1622,X,
stim/posf.jpg,stim/negf.jpg,stim/6.jpg,stim/3.jpg,stim/latef.jpg,EF,2,4,0,16,16,50,,,,,,,,,,,,,,,,,,2,0,1.46616478461,,,,,,PLC_L_D1S1,P29,60.0229550463,01,C,2015_Aug_05_1622,X,
stim/posf.jpg,stim/negf.jpg,stim/3.jpg,stim/6.jpg,stim/latef.jpg,EF,1,2,0,17,17,43,,,,,,,,,,,,,,,,,,4,0,1.6494013466,,,,,,PLC_L_D1S1,P29,60.0229550463,01,C,2015_Aug_05_1622,X,
stim/negf.jpg,stim/posf.jpg,stim/3.jpg,stim/6.jpg,stim/latef.jpg,EF,1,2,0,18,18,48,,,,,,,,,,,,,,,,,,2,1,1.56616276057,,,,,,PLC_L_D1S1,P29,60.0229550463,01,C,2015_Aug_05_1622,X,
stim/negf.jpg,stim/posf.jpg,stim/1.jpg,stim/4.jpg,stim/latef.jpg,CD,2,4,0,19,19,38,,,,,,,,,,,,,,,,,,4,1,1.38288500205,,,,,,PLC_L_D1S1,P29,60.0229550463,01,C,2015_Aug_05_1622,X,
stim/posf.jpg,stim/negf.jpg,stim/6.jpg,stim/3.jpg,stim/latef.jpg,EF,2,4,0,20,20,55,,,,,,,,,,,,,,,,,,2,0,1.39954418559,,,,,,PLC_L_D1S1,P29,60.0229550463,01,C,2015_Aug_05_1622,X,
stim/posf.jpg,stim/negf.jpg,stim/2.jpg,stim/5.jpg,stim/latef.jpg,AB,2,4,0,21,21,11,,,,,,,,,,,,,,,,,,2,0,1.46621871483,,,,,,PLC_L_D1S1,P29,60.0229550463,01,C,2015_Aug_05_1622,X,
stim/negf.jpg,stim/posf.jpg,stim/5.jpg,stim/2.jpg,stim/latef.jpg,AB,1,2,0,22,22,8,,,,,,,,,,,,,,,,,,2,1,1.14957185896,,,,,,PLC_L_D1S1,P29,60.0229550463,01,C,2015_Aug_05_1622,X,
stim/negf.jpg,stim/posf.jpg,stim/3.jpg,stim/6.jpg,stim/latef.jpg,EF,1,2,0,23,23,49,,,,,,,,,,,,,,,,,,2,1,1.28289319444,,,,,,PLC_L_D1S1,P29,60.0229550463,01,C,2015_Aug_05_1622,X,
stim/posf.jpg,stim/negf.jpg,stim/6.jpg,stim/3.jpg,stim/latef.jpg,EF,2,4,0,24,24,53,,,,,,,,,,,,,,,,,,2,0,1.58274954794,,,,,,PLC_L_D1S1,P29,60.0229550463,01,C,2015_Aug_05_1622,X,
stim/negf.jpg,stim/posf.jpg,stim/1.jpg,stim/4.jpg,stim/latef.jpg,CD,2,4,0,25,25,37,,,,,,,,,,,,,,,,,,2,0,1.64941294346,,,,,,PLC_L_D1S1,P29,60.0229550463,01,C,2015_Aug_05_1622,X,
stim/posf.jpg,stim/negf.jpg,stim/3.jpg,stim/6.jpg,stim/latef.jpg,EF,1,2,0,26,26,40,,,,,,,,,,,,,,,,,,None,0,,,,,,,PLC_L_D1S1,P29,60.0229550463,01,C,2015_Aug_05_1622,X,
stim/posf.jpg,stim/negf.jpg,stim/1.jpg,stim/4.jpg,stim/latef.jpg,CD,2,4,0,27,27,31,,,,,,,,,,,,,,,,,,2,0,1.16633722477,,,,,,PLC_L_D1S1,P29,60.0229550463,01,C,2015_Aug_05_1622,X,
stim/posf.jpg,stim/negf.jpg,stim/4.jpg,stim/1.jpg,stim/latef.jpg,CD,1,2,0,28,28,26,,,,,,,,,,,,,,,,,,2,1,1.36622383958,,,,,,PLC_L_D1S1,P29,60.0229550463,01,C,2015_Aug_05_1622,X,
stim/posf.jpg,stim/negf.jpg,stim/3.jpg,stim/6.jpg,stim/latef.jpg,EF,1,2,0,29,29,42,,,,,,,,,,,,,,,,,,4,0,1.03293935482,,,,,,PLC_L_D1S1,P29,60.0229550463,01,C,2015_Aug_05_1622,X,
stim/negf.jpg,stim/posf.jpg,stim/2.jpg,stim/5.jpg,stim/latef.jpg,AB,2,4,0,30,30,19,,,,,,,,,,,,,,,,,,2,0,1.09958109345,,,,,,PLC_L_D1S1,P29,60.0229550463,01,C,2015_Aug_05_1622,X,
stim/posf.jpg,stim/negf.jpg,stim/2.jpg,stim/5.jpg,stim/latef.jpg,AB,2,4,0,31,31,13,,,,,,,,,,,,,,,,,,2,0,1.26619780679,,,,,,PLC_L_D1S1,P29,60.0229550463,01,C,2015_Aug_05_1622,X,
stim/negf.jpg,stim/posf.jpg,stim/4.jpg,stim/1.jpg,stim/latef.jpg,CD,1,2,0,32,32,28,,,,,,,,,,,,,,,,,,2,1,1.0163235362,,,,,,PLC_L_D1S1,P29,60.0229550463,01,C,2015_Aug_05_1622,X,
stim/posf.jpg,stim/negf.jpg,stim/5.jpg,stim/2.jpg,stim/latef.jpg,AB,1,2,0,33,33,6,,,,,,,,,,,,,,,,,,4,0,1.11629887182,,,,,,PLC_L_D1S1,P29,60.0229550463,01,C,2015_Aug_05_1622,X,
stim/negf.jpg,stim/posf.jpg,stim/4.jpg,stim/1.jpg,stim/latef.jpg,CD,1,2,0,34,34,27,,,,,,,,,,,,,,,,,,2,1,0.766421226828,,,,,,PLC_L_D1S1,P29,60.0229550463,01,C,2015_Aug_05_1622,X,
stim/posf.jpg,stim/negf.jpg,stim/4.jpg,stim/1.jpg,stim/latef.jpg,CD,1,2,0,35,35,22,,,,,,,,,,,,,,,,,,2,1,1.03299041289,,,,,,PLC_L_D1S1,P29,60.0229550463,01,C,2015_Aug_05_1622,X,
stim/negf.jpg,stim/posf.jpg,stim/1.jpg,stim/4.jpg,stim/latef.jpg,CD,2,4,0,36,36,39,,,,,,,,,,,,,,,,,,4,1,0.916286625339,,,,,,PLC_L_D1S1,P29,60.0229550463,01,C,2015_Aug_05_1622,X,
stim/posf.jpg,stim/negf.jpg,stim/1.jpg,stim/4.jpg,stim/latef.jpg,CD,2,4,0,37,37,35,,,,,,,,,,,,,,,,,,4,1,0.816394994041,,,,,,PLC_L_D1S1,P29,60.0229550463,01,C,2015_Aug_05_1622,X,
stim/posf.jpg,stim/negf.jpg,stim/5.jpg,stim/2.jpg,stim/latef.jpg,AB,1,2,0,38,38,1,,,,,,,,,,,,,,,,,,2,1,0.966276575828,,,,,,PLC_L_D1S1,P29,60.0229550463,01,C,2015_Aug_05_1622,X,
stim/negf.jpg,stim/posf.jpg,stim/3.jpg,stim/6.jpg,stim/latef.jpg,EF,1,2,0,39,39,46,,,,,,,,,,,,,,,,,,2,1,1.16627979083,,,,,,PLC_L_D1S1,P29,60.0229550463,01,C,2015_Aug_05_1622,X,
stim/posf.jpg,stim/negf.jpg,stim/5.jpg,stim/2.jpg,stim/latef.jpg,AB,1,2,0,40,40,5,,,,,,,,,,,,,,,,,,4,0,1.0496445619,,,,,,PLC_L_D1S1,P29,60.0229550463,01,C,2015_Aug_05_1622,X,
stim/negf.jpg,stim/posf.jpg,stim/6.jpg,stim/3.jpg,stim/latef.jpg,EF,2,4,0,41,41,56,,,,,,,,,,,,,,,,,,2,0,1.2995754905,,,,,,PLC_L_D1S1,P29,60.0229550463,01,C,2015_Aug_05_1622,X,
stim/posf.jpg,stim/negf.jpg,stim/2.jpg,stim/5.jpg,stim/latef.jpg,AB,2,4,0,42,42,10,,,,,,,,,,,,,,,,,,2,0,1.26624032962,,,,,,PLC_L_D1S1,P29,60.0229550463,01,C,2015_Aug_05_1622,X,
stim/posf.jpg,stim/negf.jpg,stim/1.jpg,stim/4.jpg,stim/latef.jpg,CD,2,4,0,43,43,30,,,,,,,,,,,,,,,,,,2,0,1.04962783728,,,,,,PLC_L_D1S1,P29,60.0229550463,01,C,2015_Aug_05_1622,X,
stim/posf.jpg,stim/negf.jpg,stim/4.jpg,stim/1.jpg,stim/latef.jpg,CD,1,2,0,44,44,24,,,,,,,,,,,,,,,,,,2,1,1.44951282504,,,,,,PLC_L_D1S1,P29,60.0229550463,01,C,2015_Aug_05_1622,X,
stim/posf.jpg,stim/negf.jpg,stim/4.jpg,stim/1.jpg,stim/latef.jpg,CD,1,2,0,45,45,21,,,,,,,,,,,,,,,,,,2,1,0.749762304936,,,,,,PLC_L_D1S1,P29,60.0229550463,01,C,2015_Aug_05_1622,X,
stim/posf.jpg,stim/negf.jpg,stim/5.jpg,stim/2.jpg,stim/latef.jpg,AB,1,2,0,46,46,0,,,,,,,,,,,,,,,,,,2,1,1.03296137262,,,,,,PLC_L_D1S1,P29,60.0229550463,01,C,2015_Aug_05_1622,X,
stim/posf.jpg,stim/negf.jpg,stim/1.jpg,stim/4.jpg,stim/latef.jpg,CD,2,4,0,47,47,33,,,,,,,,,,,,,,,,,,2,0,0.999672999177,,,,,,PLC_L_D1S1,P29,60.0229550463,01,C,2015_Aug_05_1622,X,
stim/posf.jpg,stim/negf.jpg,stim/2.jpg,stim/5.jpg,stim/latef.jpg,AB,2,4,0,48,48,16,,,,,,,,,,,,,,,,,,4,1,1.26624518671,,,,,,PLC_L_D1S1,P29,60.0229550463,01,C,2015_Aug_05_1622,X,
stim/posf.jpg,stim/negf.jpg,stim/5.jpg,stim/2.jpg,stim/latef.jpg,AB,1,2,0,49,49,3,,,,,,,,,,,,,,,,,,2,1,1.18291804529,,,,,,PLC_L_D1S1,P29,60.0229550463,01,C,2015_Aug_05_1622,X,
stim/negf.jpg,stim/posf.jpg,stim/2.jpg,stim/5.jpg,stim/latef.jpg,AB,2,4,0,50,50,18,,,,,,,,,,,,,,,,,,4,1,1.09954244727,,,,,,PLC_L_D1S1,P29,60.0229550463,01,C,2015_Aug_05_1622,X,
stim/negf.jpg,stim/posf.jpg,stim/3.jpg,stim/6.jpg,stim/latef.jpg,EF,1,2,0,51,51,47,,,,,,,,,,,,,,,,,,4,0,1.39957361684,,,,,,PLC_L_D1S1,P29,60.0229550463,01,C,2015_Aug_05_1622,X,
stim/posf.jpg,stim/negf.jpg,stim/1.jpg,stim/4.jpg,stim/latef.jpg,CD,2,4,0,52,52,34,,,,,,,,,,,,,,,,,,4,1,1.13295736063,,,,,,PLC_L_D1S1,P29,60.0229550463,01,C,2015_Aug_05_1622,X,
stim/posf.jpg,stim/negf.jpg,stim/1.jpg,stim/4.jpg,stim/latef.jpg,CD,2,4,0,53,53,36,,,,,,,,,,,,,,,,,,4,1,0.883059920377,,,,,,PLC_L_D1S1,P29,60.0229550463,01,C,2015_Aug_05_1622,X,
stim/posf.jpg,stim/negf.jpg,stim/2.jpg,stim/5.jpg,stim/latef.jpg,AB,2,4,0,54,54,14,,,,,,,,,,,,,,,,,,None,0,,,,,,,PLC_L_D1S1,P29,60.0229550463,01,C,2015_Aug_05_1622,X,
stim/posf.jpg,stim/negf.jpg,stim/6.jpg,stim/3.jpg,stim/latef.jpg,EF,2,4,0,55,55,51,,,,,,,,,,,,,,,,,,4,1,1.06624129502,,,,,,PLC_L_D1S1,P29,60.0229550463,01,C,2015_Aug_05_1622,X,
stim/posf.jpg,stim/negf.jpg,stim/5.jpg,stim/2.jpg,stim/latef.jpg,AB,1,2,0,56,56,4,,,,,,,,,,,,,,,,,,2,1,1.1995908798,,,,,,PLC_L_D1S1,P29,60.0229550463,01,C,2015_Aug_05_1622,X,
stim/negf.jpg,stim/posf.jpg,stim/6.jpg,stim/3.jpg,stim/latef.jpg,EF,2,4,0,57,57,59,,,,,,,,,,,,,,,,,,4,1,1.38285659034,,,,,,PLC_L_D1S1,P29,60.0229550463,01,C,2015_Aug_05_1622,X,
stim/posf.jpg,stim/negf.jpg,stim/2.jpg,stim/5.jpg,stim/latef.jpg,AB,2,4,0,58,58,12,,,,,,,,,,,,,,,,,,4,1,0.933025239565,,,,,,PLC_L_D1S1,P29,60.0229550463,01,C,2015_Aug_05_1622,X,
stim/posf.jpg,stim/negf.jpg,stim/3.jpg,stim/6.jpg,stim/latef.jpg,EF,1,2,0,59,59,41,,,,,,,,,,,,,,,,,,2,1,1.2495793476,,,,,,PLC_L_D1S1,P29,60.0229550463,01,C,2015_Aug_05_1622,X,
,,,,,,,,,,,,,,,,,,,,,,,,,,,,,,,,0.9984375,0.0390625,1,0,0,PLC_L_D1S1,P29,60.0229550463,01,C,2015_Aug_05_1622,X,
stim/posf.jpg,stim/negf.jpg,stim/2.jpg,stim/5.jpg,stim/latef.jpg,AB,2,4,,,,,0,0,0,17,,,,,,,,,,,,,,2,0,0.999680857735,,,,,,PLC_L_D1S1,P29,60.0229550463,01,C,2015_Aug_05_1622,X,
stim/posf.jpg,stim/negf.jpg,stim/2.jpg,stim/5.jpg,stim/latef.jpg,AB,2,4,,,,,0,1,1,11,,,,,,,,,,,,,,4,1,0.932971793551,,,,,,PLC_L_D1S1,P29,60.0229550463,01,C,2015_Aug_05_1622,X,
stim/posf.jpg,stim/negf.jpg,stim/3.jpg,stim/6.jpg,stim/latef.jpg,EF,1,2,,,,,0,2,2,45,,,,,,,,,,,,,,4,0,0.999638777007,,,,,,PLC_L_D1S1,P29,60.0229550463,01,C,2015_Aug_05_1622,X,
stim/posf.jpg,stim/negf.jpg,stim/1.jpg,stim/4.jpg,stim/latef.jpg,CD,2,4,,,,,0,3,3,36,,,,,,,,,,,,,,4,1,0.983020296764,,,,,,PLC_L_D1S1,P29,60.0229550463,01,C,2015_Aug_05_1622,X,
stim/posf.jpg,stim/negf.jpg,stim/6.jpg,stim/3.jpg,stim/latef.jpg,EF,2,4,,,,,0,4,4,50,,,,,,,,,,,,,,4,1,1.11629918159,,,,,,PLC_L_D1S1,P29,60.0229550463,01,C,2015_Aug_05_1622,X,
stim/posf.jpg,stim/negf.jpg,stim/5.jpg,stim/2.jpg,stim/latef.jpg,AB,1,2,,,,,0,5,5,1,,,,,,,,,,,,,,2,1,1.03302745909,,,,,,PLC_L_D1S1,P29,60.0229550463,01,C,2015_Aug_05_1622,X,
stim/posf.jpg,stim/negf.jpg,stim/1.jpg,stim/4.jpg,stim/latef.jpg,CD,2,4,,,,,0,6,6,31,,,,,,,,,,,,,,4,1,0.916416440416,,,,,,PLC_L_D1S1,P29,60.0229550463,01,C,2015_Aug_05_1622,X,
stim/negf.jpg,stim/posf.jpg,stim/5.jpg,stim/2.jpg,stim/latef.jpg,AB,1,2,,,,,0,7,7,9,,,,,,,,,,,,,,2,1,0.799738207464,,,,,,PLC_L_D1S1,P29,60.0229550463,01,C,2015_Aug_05_1622,X,
stim/posf.jpg,stim/negf.jpg,stim/1.jpg,stim/4.jpg,stim/latef.jpg,CD,2,4,,,,,0,8,8,35,,,,,,,,,,,,,,4,1,0.833066036098,,,,,,PLC_L_D1S1,P29,60.0229550463,01,C,2015_Aug_05_1622,X,
stim/negf.jpg,stim/posf.jpg,stim/3.jpg,stim/6.jpg,stim/latef.jpg,EF,1,2,,,,,0,9,9,46,,,,,,,,,,,,,,4,0,1.26619657372,,,,,,PLC_L_D1S1,P29,60.0229550463,01,C,2015_Aug_05_1622,X,
stim/posf.jpg,stim/negf.jpg,stim/5.jpg,stim/2.jpg,stim/latef.jpg,AB,1,2,,,,,0,10,10,2,,,,,,,,,,,,,,2,1,1.16627437435,,,,,,PLC_L_D1S1,P29,60.0229550463,01,C,2015_Aug_05_1622,X,
stim/negf.jpg,stim/posf.jpg,stim/4.jpg,stim/1.jpg,stim/latef.jpg,CD,1,2,,,,,0,11,11,27,,,,,,,,,,,,,,2,1,0.799716273877,,,,,,PLC_L_D1S1,P29,60.0229550463,01,C,2015_Aug_05_1622,X,
stim/posf.jpg,stim/negf.jpg,stim/5.jpg,stim/2.jpg,stim/latef.jpg,AB,1,2,,,,,0,12,12,4,,,,,,,,,,,,,,2,1,1.06630181163,,,,,,PLC_L_D1S1,P29,60.0229550463,01,C,2015_Aug_05_1622,X,
stim/posf.jpg,stim/negf.jpg,stim/3.jpg,stim/6.jpg,stim/latef.jpg,EF,1,2,,,,,0,13,13,42,,,,,,,,,,,,,,4,0,1.16632908651,,,,,,PLC_L_D1S1,P29,60.0229550463,01,C,2015_Aug_05_1622,X,
stim/posf.jpg,stim/negf.jpg,stim/1.jpg,stim/4.jpg,stim/latef.jpg,CD,2,4,,,,,0,14,14,33,,,,,,,,,,,,,,None,0,,,,,,,PLC_L_D1S1,P29,60.0229550463,01,C,2015_Aug_05_1622,X,
stim/posf.jpg,stim/negf.jpg,stim/4.jpg,stim/1.jpg,stim/latef.jpg,CD,1,2,,,,,0,15,15,22,,,,,,,,,,,,,,2,1,0.833073290151,,,,,,PLC_L_D1S1,P29,60.0229550463,01,C,2015_Aug_05_1622,X,
stim/posf.jpg,stim/negf.jpg,stim/1.jpg,stim/4.jpg,stim/latef.jpg,CD,2,4,,,,,0,16,16,32,,,,,,,,,,,,,,4,1,1.16619097078,,,,,,PLC_L_D1S1,P29,60.0229550463,01,C,2015_Aug_05_1622,X,
stim/posf.jpg,stim/negf.jpg,stim/3.jpg,stim/6.jpg,stim/latef.jpg,EF,1,2,,,,,0,17,17,44,,,,,,,,,,,,,,2,1,1.49949018319,,,,,,PLC_L_D1S1,P29,60.0229550463,01,C,2015_Aug_05_1622,X,
stim/posf.jpg,stim/negf.jpg,stim/4.jpg,stim/1.jpg,stim/latef.jpg,CD,1,2,,,,,0,18,18,20,,,,,,,,,,,,,,2,1,1.06630266877,,,,,,PLC_L_D1S1,P29,60.0229550463,01,C,2015_Aug_05_1622,X,
stim/posf.jpg,stim/negf.jpg,stim/1.jpg,stim/4.jpg,stim/latef.jpg,CD,2,4,,,,,0,19,19,30,,,,,,,,,,,,,,4,1,0.899705877001,,,,,,PLC_L_D1S1,P29,60.0229550463,01,C,2015_Aug_05_1622,X,
stim/posf.jpg,stim/negf.jpg,stim/6.jpg,stim/3.jpg,stim/latef.jpg,EF,2,4,,,,,0,20,20,52,,,,,,,,,,,,,,2,0,1.0829378586,,,,,,PLC_L_D1S1,P29,60.0229550463,01,C,2015_Aug_05_1622,X,
stim/posf.jpg,stim/negf.jpg,stim/5.jpg,stim/2.jpg,stim/latef.jpg,AB,1,2,,,,,0,21,21,7,,,,,,,,,,,,,,2,1,0.783054964042,,,,,,PLC_L_D1S1,P29,60.0229550463,01,C,2015_Aug_05_1622,X,
stim/posf.jpg,stim/negf.jpg,stim/5.jpg,stim/2.jpg,stim/latef.jpg,AB,1,2,,,,,0,22,22,5,,,,,,,,,,,,,,2,1,1.03299137228,,,,,,PLC_L_D1S1,P29,60.0229550463,01,C,2015_Aug_05_1622,X,
stim/negf.jpg,stim/posf.jpg,stim/3.jpg,stim/6.jpg,stim/latef.jpg,EF,1,2,,,,,0,23,23,47,,,,,,,,,,,,,,4,0,1.13285471517,,,,,,PLC_L_D1S1,P29,60.0229550463,01,C,2015_Aug_05_1622,X,
stim/posf.jpg,stim/negf.jpg,stim/2.jpg,stim/5.jpg,stim/latef.jpg,AB,2,4,,,,,0,24,24,10,,,,,,,,,,,,,,4,1,1.33288601106,,,,,,PLC_L_D1S1,P29,60.0229550463,01,C,2015_Aug_05_1622,X,
stim/posf.jpg,stim/negf.jpg,stim/6.jpg,stim/3.jpg,stim/latef.jpg,EF,2,4,,,,,0,25,25,55,,,,,,,,,,,,,,2,0,1.26620051052,,,,,,PLC_L_D1S1,P29,60.0229550463,01,C,2015_Aug_05_1622,X,
stim/negf.jpg,stim/posf.jpg,stim/3.jpg,stim/6.jpg,stim/latef.jpg,EF,1,2,,,,,0,26,26,48,,,,,,,,,,,,,,4,0,1.16628949899,,,,,,PLC_L_D1S1,P29,60.0229550463,01,C,2015_Aug_05_1622,X,
stim/posf.jpg,stim/negf.jpg,stim/4.jpg,stim/1.jpg,stim/latef.jpg,CD,1,2,,,,,0,27,27,26,,,,,,,,,,,,,,2,1,0.716414882539,,,,,,PLC_L_D1S1,P29,60.0229550463,01,C,2015_Aug_05_1622,X,
stim/posf.jpg,stim/negf.jpg,stim/5.jpg,stim/2.jpg,stim/latef.jpg,AB,1,2,,,,,0,28,28,6,,,,,,,,,,,,,,2,1,1.41619950151,,,,,,PLC_L_D1S1,P29,60.0229550463,01,C,2015_Aug_05_1622,X,
stim/posf.jpg,stim/negf.jpg,stim/3.jpg,stim/6.jpg,stim/latef.jpg,EF,1,2,,,,,0,29,29,41,,,,,,,,,,,,,,4,0,1.21622275237,,,,,,PLC_L_D1S1,P29,60.0229550463,01,C,2015_Aug_05_1622,X,
stim/negf.jpg,stim/posf.jpg,stim/4.jpg,stim/1.jpg,stim/latef.jpg,CD,1,2,,,,,0,30,30,29,,,,,,,,,,,,,,2,1,0.699754935094,,,,,,PLC_L_D1S1,P29,60.0229550463,01,C,2015_Aug_05_1622,X,
stim/negf.jpg,stim/posf.jpg,stim/3.jpg,stim/6.jpg,stim/latef.jpg,EF,1,2,,,,,0,31,31,49,,,,,,,,,,,,,,2,1,1.04964516641,,,,,,PLC_L_D1S1,P29,60.0229550463,01,C,2015_Aug_05_1622,X,
stim/posf.jpg,stim/negf.jpg,stim/6.jpg,stim/3.jpg,stim/latef.jpg,EF,2,4,,,,,0,32,32,53,,,,,,,,,,,,,,2,0,1.21617250933,,,,,,PLC_L_D1S1,P29,60.0229550463,01,C,2015_Aug_05_1622,X,
stim/negf.jpg,stim/posf.jpg,stim/5.jpg,stim/2.jpg,stim/latef.jpg,AB,1,2,,,,,0,33,33,8,,,,,,,,,,,,,,2,1,1.03298417837,,,,,,PLC_L_D1S1,P29,60.0229550463,01,C,2015_Aug_05_1622,X,
stim/negf.jpg,stim/posf.jpg,stim/2.jpg,stim/5.jpg,stim/latef.jpg,AB,2,4,,,,,0,34,34,19,,,,,,,,,,,,,,4,1,0.966336620264,,,,,,PLC_L_D1S1,P29,60.0229550463,01,C,2015_Aug_05_1622,X,
stim/posf.jpg,stim/negf.jpg,stim/2.jpg,stim/5.jpg,stim/latef.jpg,AB,2,4,,,,,0,35,35,12,,,,,,,,,,,,,,4,1,1.09962827487,,,,,,PLC_L_D1S1,P29,60.0229550463,01,C,2015_Aug_05_1622,X,
stim/posf.jpg,stim/negf.jpg,stim/6.jpg,stim/3.jpg,stim/latef.jpg,EF,2,4,,,,,0,36,36,54,,,,,,,,,,,,,,4,1,0.999678659263,,,,,,PLC_L_D1S1,P29,60.0229550463,01,C,2015_Aug_05_1622,X,
stim/posf.jpg,stim/negf.jpg,stim/4.jpg,stim/1.jpg,stim/latef.jpg,CD,1,2,,,,,0,37,37,23,,,,,,,,,,,,,,2,1,0.699773106318,,,,,,PLC_L_D1S1,P29,60.0229550463,01,C,2015_Aug_05_1622,X,
stim/negf.jpg,stim/posf.jpg,stim/1.jpg,stim/4.jpg,stim/latef.jpg,CD,2,4,,,,,0,38,38,37,,,,,,,,,,,,,,4,1,0.799730342891,,,,,,PLC_L_D1S1,P29,60.0229550463,01,C,2015_Aug_05_1622,X,
stim/posf.jpg,stim/negf.jpg,stim/1.jpg,stim/4.jpg,stim/latef.jpg,CD,2,4,,,,,0,39,39,34,,,,,,,,,,,,,,4,1,0.79972053849,,,,,,PLC_L_D1S1,P29,60.0229550463,01,C,2015_Aug_05_1622,X,
stim/posf.jpg,stim/negf.jpg,stim/4.jpg,stim/1.jpg,stim/latef.jpg,CD,1,2,,,,,0,40,40,24,,,,,,,,,,,,,,2,1,0.699752108059,,,,,,PLC_L_D1S1,P29,60.0229550463,01,C,2015_Aug_05_1622,X,
stim/negf.jpg,stim/posf.jpg,stim/6.jpg,stim/3.jpg,stim/latef.jpg,EF,2,4,,,,,0,41,41,56,,,,,,,,,,,,,,4,1,0.649777173942,,,,,,PLC_L_D1S1,P29,60.0229550463,01,C,2015_Aug_05_1622,X,
stim/negf.jpg,stim/posf.jpg,stim/2.jpg,stim/5.jpg,stim/latef.jpg,AB,2,4,,,,,0,42,42,18,,,,,,,,,,,,,,4,1,0.783064127848,,,,,,PLC_L_D1S1,P29,60.0229550463,01,C,2015_Aug_05_1622,X,
stim/posf.jpg,stim/negf.jpg,stim/6.jpg,stim/3.jpg,stim/latef.jpg,EF,2,4,,,,,0,43,43,51,,,,,,,,,,,,,,2,0,1.08299844137,,,,,,PLC_L_D1S1,P29,60.0229550463,01,C,2015_Aug_05_1622,X,
stim/posf.jpg,stim/negf.jpg,stim/2.jpg,stim/5.jpg,stim/latef.jpg,AB,2,4,,,,,0,44,44,13,,,,,,,,,,,,,,4,1,0.966320942245,,,,,,PLC_L_D1S1,P29,60.0229550463,01,C,2015_Aug_05_1622,X,
stim/negf.jpg,stim/posf.jpg,stim/6.jpg,stim/3.jpg,stim/latef.jpg,EF,2,4,,,,,0,45,45,57,,,,,,,,,,,,,,2,0,1.21627007214,,,,,,PLC_L_D1S1,P29,60.0229550463,01,C,2015_Aug_05_1622,X,
stim/posf.jpg,stim/negf.jpg,stim/5.jpg,stim/2.jpg,stim/latef.jpg,AB,1,2,,,,,0,46,46,3,,,,,,,,,,,,,,2,1,0.849711535584,,,,,,PLC_L_D1S1,P29,60.0229550463,01,C,2015_Aug_05_1622,X,
stim/posf.jpg,stim/negf.jpg,stim/2.jpg,stim/5.jpg,stim/latef.jpg,AB,2,4,,,,,0,47,47,14,,,,,,,,,,,,,,4,1,0.833090697473,,,,,,PLC_L_D1S1,P29,60.0229550463,01,C,2015_Aug_05_1622,X,
stim/posf.jpg,stim/negf.jpg,stim/4.jpg,stim/1.jpg,stim/latef.jpg,CD,1,2,,,,,0,48,48,21,,,,,,,,,,,,,,2,1,1.21626871577,,,,,,PLC_L_D1S1,P29,60.0229550463,01,C,2015_Aug_05_1622,X,
stim/negf.jpg,stim/posf.jpg,stim/4.jpg,stim/1.jpg,stim/latef.jpg,CD,1,2,,,,,0,49,49,28,,,,,,,,,,,,,,2,1,0.716420683977,,,,,,PLC_L_D1S1,P29,60.0229550463,01,C,2015_Aug_05_1622,X,
stim/posf.jpg,stim/negf.jpg,stim/2.jpg,stim/5.jpg,stim/latef.jpg,AB,2,4,,,,,0,50,50,16,,,,,,,,,,,,,,4,1,0.999709443879,,,,,,PLC_L_D1S1,P29,60.0229550463,01,C,2015_Aug_05_1622,X,
stim/negf.jpg,stim/posf.jpg,stim/6.jpg,stim/3.jpg,stim/latef.jpg,EF,2,4,,,,,0,51,51,59,,,,,,,,,,,,,,2,0,0.749762211704,,,,,,PLC_L_D1S1,P29,60.0229550463,01,C,2015_Aug_05_1622,X,
stim/posf.jpg,stim/negf.jpg,stim/2.jpg,stim/5.jpg,stim/latef.jpg,AB,2,4,,,,,0,52,52,15,,,,,,,,,,,,,,4,1,1.06628926441,,,,,,PLC_L_D1S1,P29,60.0229550463,01,C,2015_Aug_05_1622,X,
stim/posf.jpg,stim/negf.jpg,stim/4.jpg,stim/1.jpg,stim/latef.jpg,CD,1,2,,,,,0,53,53,25,,,,,,,,,,,,,,2,1,0.649778343853,,,,,,PLC_L_D1S1,P29,60.0229550463,01,C,2015_Aug_05_1622,X,
stim/posf.jpg,stim/negf.jpg,stim/3.jpg,stim/6.jpg,stim/latef.jpg,EF,1,2,,,,,0,54,54,40,,,,,,,,,,,,,,4,0,0.516485970459,,,,,,PLC_L_D1S1,P29,60.0229550463,01,C,2015_Aug_05_1622,X,
stim/negf.jpg,stim/posf.jpg,stim/6.jpg,stim/3.jpg,stim/latef.jpg,EF,2,4,,,,,0,55,55,58,,,,,,,,,,,,,,2,0,0.849702928162,,,,,,PLC_L_D1S1,P29,60.0229550463,01,C,2015_Aug_05_1622,X,
stim/posf.jpg,stim/negf.jpg,stim/3.jpg,stim/6.jpg,stim/latef.jpg,EF,1,2,,,,,0,56,56,43,,,,,,,,,,,,,,4,0,1.01638760766,,,,,,PLC_L_D1S1,P29,60.0229550463,01,C,2015_Aug_05_1622,X,
stim/posf.jpg,stim/negf.jpg,stim/5.jpg,stim/2.jpg,stim/latef.jpg,AB,1,2,,,,,0,57,57,0,,,,,,,,,,,,,,2,1,0.783077435969,,,,,,PLC_L_D1S1,P29,60.0229550463,01,C,2015_Aug_05_1622,X,
stim/negf.jpg,stim/posf.jpg,stim/1.jpg,stim/4.jpg,stim/latef.jpg,CD,2,4,,,,,0,58,58,38,,,,,,,,,,,,,,4,1,0.883015217122,,,,,,PLC_L_D1S1,P29,60.0229550463,01,C,2015_Aug_05_1622,X,
stim/negf.jpg,stim/posf.jpg,stim/1.jpg,stim/4.jpg,stim/latef.jpg,CD,2,4,,,,,0,59,59,39,,,,,,,,,,,,,,4,1,0.516514734044,,,,,,PLC_L_D1S1,P29,60.0229550463,01,C,2015_Aug_05_1622,X,
,,,,,,,,,,,,,,,,,,,,,,,,,,,,,,,,0.9984375,0.0390625,1,0,0,PLC_L_D1S1,P29,60.0229550463,01,C,2015_Aug_05_1622,X,
stim/posf.jpg,stim/negf.jpg,stim/4.jpg,stim/1.jpg,stim/latef.jpg,CD,1,2,,,,,,,,,0,0,0,25,,,,,,,,,,2,1,0.583135315015,,,,,,PLC_L_D1S1,P29,60.0229550463,01,C,2015_Aug_05_1622,X,
stim/negf.jpg,stim/posf.jpg,stim/2.jpg,stim/5.jpg,stim/latef.jpg,AB,2,4,,,,,,,,,0,1,1,18,,,,,,,,,,4,1,0.799743353271,,,,,,PLC_L_D1S1,P29,60.0229550463,01,C,2015_Aug_05_1622,X,
stim/posf.jpg,stim/negf.jpg,stim/4.jpg,stim/1.jpg,stim/latef.jpg,CD,1,2,,,,,,,,,0,2,2,26,,,,,,,,,,2,1,0.599758868885,,,,,,PLC_L_D1S1,P29,60.0229550463,01,C,2015_Aug_05_1622,X,
stim/posf.jpg,stim/negf.jpg,stim/1.jpg,stim/4.jpg,stim/latef.jpg,CD,2,4,,,,,,,,,0,3,3,32,,,,,,,,,,4,1,0.783066275193,,,,,,PLC_L_D1S1,P29,60.0229550463,01,C,2015_Aug_05_1622,X,
stim/negf.jpg,stim/posf.jpg,stim/3.jpg,stim/6.jpg,stim/latef.jpg,EF,1,2,,,,,,,,,0,4,4,49,,,,,,,,,,4,0,0.966359735793,,,,,,PLC_L_D1S1,P29,60.0229550463,01,C,2015_Aug_05_1622,X,
stim/posf.jpg,stim/negf.jpg,stim/3.jpg,stim/6.jpg,stim/latef.jpg,EF,1,2,,,,,,,,,0,5,5,44,,,,,,,,,,4,0,0.583127212851,,,,,,PLC_L_D1S1,P29,60.0229550463,01,C,2015_Aug_05_1622,X,
stim/posf.jpg,stim/negf.jpg,stim/5.jpg,stim/2.jpg,stim/latef.jpg,AB,1,2,,,,,,,,,0,6,6,7,,,,,,,,,,2,1,1.21626264666,,,,,,PLC_L_D1S1,P29,60.0229550463,01,C,2015_Aug_05_1622,X,
stim/posf.jpg,stim/negf.jpg,stim/2.jpg,stim/5.jpg,stim/latef.jpg,AB,2,4,,,,,,,,,0,7,7,10,,,,,,,,,,4,1,1.03294264501,,,,,,PLC_L_D1S1,P29,60.0229550463,01,C,2015_Aug_05_1622,X,
stim/posf.jpg,stim/negf.jpg,stim/5.jpg,stim/2.jpg,stim/latef.jpg,AB,1,2,,,,,,,,,0,8,8,4,,,,,,,,,,2,1,0.666433632704,,,,,,PLC_L_D1S1,P29,60.0229550463,01,C,2015_Aug_05_1622,X,
stim/posf.jpg,stim/negf.jpg,stim/2.jpg,stim/5.jpg,stim/latef.jpg,AB,2,4,,,,,,,,,0,9,9,16,,,,,,,,,,4,1,0.866357411006,,,,,,PLC_L_D1S1,P29,60.0229550463,01,C,2015_Aug_05_1622,X,
stim/negf.jpg,stim/posf.jpg,stim/4.jpg,stim/1.jpg,stim/latef.jpg,CD,1,2,,,,,,,,,0,10,10,27,,,,,,,,,,2,1,0.699703846949,,,,,,PLC_L_D1S1,P29,60.0229550463,01,C,2015_Aug_05_1622,X,
stim/posf.jpg,stim/negf.jpg,stim/3.jpg,stim/6.jpg,stim/latef.jpg,EF,1,2,,,,,,,,,0,11,11,43,,,,,,,,,,4,0,0.799656262523,,,,,,PLC_L_D1S1,P29,60.0229550463,01,C,2015_Aug_05_1622,X,
stim/posf.jpg,stim/negf.jpg,stim/6.jpg,stim/3.jpg,stim/latef.jpg,EF,2,4,,,,,,,,,0,12,12,53,,,,,,,,,,2,0,1.1496439183,,,,,,PLC_L_D1S1,P29,60.0229550463,01,C,2015_Aug_05_1622,X,
stim/posf.jpg,stim/negf.jpg,stim/4.jpg,stim/1.jpg,stim/latef.jpg,CD,1,2,,,,,,,,,0,13,13,24,,,,,,,,,,2,1,0.849715631779,,,,,,PLC_L_D1S1,P29,60.0229550463,01,C,2015_Aug_05_1622,X,
stim/posf.jpg,stim/negf.jpg,stim/5.jpg,stim/2.jpg,stim/latef.jpg,AB,1,2,,,,,,,,,0,14,14,5,,,,,,,,,,2,1,0.666446904734,,,,,,PLC_L_D1S1,P29,60.0229550463,01,C,2015_Aug_05_1622,X,
stim/posf.jpg,stim/negf.jpg,stim/2.jpg,stim/5.jpg,stim/latef.jpg,AB,2,4,,,,,,,,,0,15,15,14,,,,,,,,,,4,1,0.816357156874,,,,,,PLC_L_D1S1,P29,60.0229550463,01,C,2015_Aug_05_1622,X,
stim/posf.jpg,stim/negf.jpg,stim/6.jpg,stim/3.jpg,stim/latef.jpg,EF,2,4,,,,,,,,,0,16,16,51,,,,,,,,,,2,0,0.599794312095,,,,,,PLC_L_D1S1,P29,60.0229550463,01,C,2015_Aug_05_1622,X,
stim/negf.jpg,stim/posf.jpg,stim/1.jpg,stim/4.jpg,stim/latef.jpg,CD,2,4,,,,,,,,,0,17,17,39,,,,,,,,,,4,1,0.766443094251,,,,,,PLC_L_D1S1,P29,60.0229550463,01,C,2015_Aug_05_1622,X,
stim/negf.jpg,stim/posf.jpg,stim/5.jpg,stim/2.jpg,stim/latef.jpg,AB,1,2,,,,,,,,,0,18,18,8,,,,,,,,,,2,1,0.93302129976,,,,,,PLC_L_D1S1,P29,60.0229550463,01,C,2015_Aug_05_1622,X,
stim/negf.jpg,stim/posf.jpg,stim/3.jpg,stim/6.jpg,stim/latef.jpg,EF,1,2,,,,,,,,,0,19,19,46,,,,,,,,,,4,0,1.18294161194,,,,,,PLC_L_D1S1,P29,60.0229550463,01,C,2015_Aug_05_1622,X,
stim/posf.jpg,stim/negf.jpg,stim/5.jpg,stim/2.jpg,stim/latef.jpg,AB,1,2,,,,,,,,,0,20,20,2,,,,,,,,,,2,1,1.04964512731,,,,,,PLC_L_D1S1,P29,60.0229550463,01,C,2015_Aug_05_1622,X,
stim/posf.jpg,stim/negf.jpg,stim/1.jpg,stim/4.jpg,stim/latef.jpg,CD,2,4,,,,,,,,,0,21,21,36,,,,,,,,,,4,1,1.04965494374,,,,,,PLC_L_D1S1,P29,60.0229550463,01,C,2015_Aug_05_1622,X,
stim/negf.jpg,stim/posf.jpg,stim/6.jpg,stim/3.jpg,stim/latef.jpg,EF,2,4,,,,,,,,,0,22,22,59,,,,,,,,,,2,0,0.983011283332,,,,,,PLC_L_D1S1,P29,60.0229550463,01,C,2015_Aug_05_1622,X,
stim/posf.jpg,stim/negf.jpg,stim/3.jpg,stim/6.jpg,stim/latef.jpg,EF,1,2,,,,,,,,,0,23,23,45,,,,,,,,,,4,0,0.949688441108,,,,,,PLC_L_D1S1,P29,60.0229550463,01,C,2015_Aug_05_1622,X,
stim/negf.jpg,stim/posf.jpg,stim/5.jpg,stim/2.jpg,stim/latef.jpg,AB,1,2,,,,,,,,,0,24,24,9,,,,,,,,,,2,1,0.716436740939,,,,,,PLC_L_D1S1,P29,60.0229550463,01,C,2015_Aug_05_1622,X,
stim/posf.jpg,stim/negf.jpg,stim/2.jpg,stim/5.jpg,stim/latef.jpg,AB,2,4,,,,,,,,,0,25,25,12,,,,,,,,,,4,1,1.08295313361,,,,,,PLC_L_D1S1,P29,60.0229550463,01,C,2015_Aug_05_1622,X,
stim/posf.jpg,stim/negf.jpg,stim/3.jpg,stim/6.jpg,stim/latef.jpg,EF,1,2,,,,,,,,,0,26,26,41,,,,,,,,,,4,0,0.933025044078,,,,,,PLC_L_D1S1,P29,60.0229550463,01,C,2015_Aug_05_1622,X,
stim/posf.jpg,stim/negf.jpg,stim/2.jpg,stim/5.jpg,stim/latef.jpg,AB,2,4,,,,,,,,,0,27,27,11,,,,,,,,,,4,1,0.899711768664,,,,,,PLC_L_D1S1,P29,60.0229550463,01,C,2015_Aug_05_1622,X,
stim/negf.jpg,stim/posf.jpg,stim/1.jpg,stim/4.jpg,stim/latef.jpg,CD,2,4,,,,,,,,,0,28,28,38,,,,,,,,,,4,1,0.966355447119,,,,,,PLC_L_D1S1,P29,60.0229550463,01,C,2015_Aug_05_1622,X,
stim/posf.jpg,stim/negf.jpg,stim/1.jpg,stim/4.jpg,stim/latef.jpg,CD,2,4,,,,,,,,,0,29,29,30,,,,,,,,,,4,1,0.96629105386,,,,,,PLC_L_D1S1,P29,60.0229550463,01,C,2015_Aug_05_1622,X,
stim/negf.jpg,stim/posf.jpg,stim/6.jpg,stim/3.jpg,stim/latef.jpg,EF,2,4,,,,,,,,,0,30,30,57,,,,,,,,,,2,0,0.949691680169,,,,,,PLC_L_D1S1,P29,60.0229550463,01,C,2015_Aug_05_1622,X,
stim/posf.jpg,stim/negf.jpg,stim/4.jpg,stim/1.jpg,stim/latef.jpg,CD,1,2,,,,,,,,,0,31,31,20,,,,,,,,,,2,1,0.666371392804,,,,,,PLC_L_D1S1,P29,60.0229550463,01,C,2015_Aug_05_1622,X,
stim/posf.jpg,stim/negf.jpg,stim/4.jpg,stim/1.jpg,stim/latef.jpg,CD,1,2,,,,,,,,,0,32,32,21,,,,,,,,,,2,1,0.583140277366,,,,,,PLC_L_D1S1,P29,60.0229550463,01,C,2015_Aug_05_1622,X,
stim/posf.jpg,stim/negf.jpg,stim/3.jpg,stim/6.jpg,stim/latef.jpg,EF,1,2,,,,,,,,,0,33,33,42,,,,,,,,,,4,0,0.983001469908,,,,,,PLC_L_D1S1,P29,60.0229550463,01,C,2015_Aug_05_1622,X,
stim/negf.jpg,stim/posf.jpg,stim/2.jpg,stim/5.jpg,stim/latef.jpg,AB,2,4,,,,,,,,,0,34,34,19,,,,,,,,,,4,1,0.866386006173,,,,,,PLC_L_D1S1,P29,60.0229550463,01,C,2015_Aug_05_1622,X,
stim/negf.jpg,stim/posf.jpg,stim/3.jpg,stim/6.jpg,stim/latef.jpg,EF,1,2,,,,,,,,,0,35,35,47,,,,,,,,,,4,0,0.933014993064,,,,,,PLC_L_D1S1,P29,60.0229550463,01,C,2015_Aug_05_1622,X,
stim/posf.jpg,stim/negf.jpg,stim/1.jpg,stim/4.jpg,stim/latef.jpg,CD,2,4,,,,,,,,,0,36,36,33,,,,,,,,,,4,1,0.799734378936,,,,,,PLC_L_D1S1,P29,60.0229550463,01,C,2015_Aug_05_1622,X,
stim/negf.jpg,stim/posf.jpg,stim/6.jpg,stim/3.jpg,stim/latef.jpg,EF,2,4,,,,,,,,,0,37,37,58,,,,,,,,,,2,0,0.849719210686,,,,,,PLC_L_D1S1,P29,60.0229550463,01,C,2015_Aug_05_1622,X,
stim/posf.jpg,stim/negf.jpg,stim/5.jpg,stim/2.jpg,stim/latef.jpg,AB,1,2,,,,,,,,,0,38,38,6,,,,,,,,,,2,1,0.849692582415,,,,,,PLC_L_D1S1,P29,60.0229550463,01,C,2015_Aug_05_1622,X,
stim/negf.jpg,stim/posf.jpg,stim/4.jpg,stim/1.jpg,stim/latef.jpg,CD,1,2,,,,,,,,,0,39,39,28,,,,,,,,,,2,1,0.683093733529,,,,,,PLC_L_D1S1,P29,60.0229550463,01,C,2015_Aug_05_1622,X,
stim/negf.jpg,stim/posf.jpg,stim/1.jpg,stim/4.jpg,stim/latef.jpg,CD,2,4,,,,,,,,,0,40,40,37,,,,,,,,,,4,1,0.783004772127,,,,,,PLC_L_D1S1,P29,60.0229550463,01,C,2015_Aug_05_1622,X,
stim/posf.jpg,stim/negf.jpg,stim/5.jpg,stim/2.jpg,stim/latef.jpg,AB,1,2,,,,,,,,,0,41,41,3,,,,,,,,,,2,1,0.899778778435,,,,,,PLC_L_D1S1,P29,60.0229550463,01,C,2015_Aug_05_1622,X,
stim/posf.jpg,stim/negf.jpg,stim/2.jpg,stim/5.jpg,stim/latef.jpg,AB,2,4,,,,,,,,,0,42,42,17,,,,,,,,,,4,1,0.816396049669,,,,,,PLC_L_D1S1,P29,60.0229550463,01,C,2015_Aug_05_1622,X,
stim/posf.jpg,stim/negf.jpg,stim/2.jpg,stim/5.jpg,stim/latef.jpg,AB,2,4,,,,,,,,,0,43,43,15,,,,,,,,,,4,1,0.683126833908,,,,,,PLC_L_D1S1,P29,60.0229550463,01,C,2015_Aug_05_1622,X,
stim/posf.jpg,stim/negf.jpg,stim/1.jpg,stim/4.jpg,stim/latef.jpg,CD,2,4,,,,,,,,,0,44,44,34,,,,,,,,,,4,1,0.749747992316,,,,,,PLC_L_D1S1,P29,60.0229550463,01,C,2015_Aug_05_1622,X,
stim/posf.jpg,stim/negf.jpg,stim/3.jpg,stim/6.jpg,stim/latef.jpg,EF,1,2,,,,,,,,,0,45,45,40,,,,,,,,,,4,0,0.799679447224,,,,,,PLC_L_D1S1,P29,60.0229550463,01,C,2015_Aug_05_1622,X,
stim/posf.jpg,stim/negf.jpg,stim/4.jpg,stim/1.jpg,stim/latef.jpg,CD,1,2,,,,,,,,,0,46,46,22,,,,,,,,,,2,1,0.949677827693,,,,,,PLC_L_D1S1,P29,60.0229550463,01,C,2015_Aug_05_1622,X,
stim/posf.jpg,stim/negf.jpg,stim/2.jpg,stim/5.jpg,stim/latef.jpg,AB,2,4,,,,,,,,,0,47,47,13,,,,,,,,,,4,1,0.633082754706,,,,,,PLC_L_D1S1,P29,60.0229550463,01,C,2015_Aug_05_1622,X,
stim/negf.jpg,stim/posf.jpg,stim/6.jpg,stim/3.jpg,stim/latef.jpg,EF,2,4,,,,,,,,,0,48,48,56,,,,,,,,,,2,0,0.616462794781,,,,,,PLC_L_D1S1,P29,60.0229550463,01,C,2015_Aug_05_1622,X,
stim/posf.jpg,stim/negf.jpg,stim/6.jpg,stim/3.jpg,stim/latef.jpg,EF,2,4,,,,,,,,,0,49,49,55,,,,,,,,,,2,0,0.699779446096,,,,,,PLC_L_D1S1,P29,60.0229550463,01,C,2015_Aug_05_1622,X,
stim/negf.jpg,stim/posf.jpg,stim/3.jpg,stim/6.jpg,stim/latef.jpg,EF,1,2,,,,,,,,,0,50,50,48,,,,,,,,,,4,0,1.08295108251,,,,,,PLC_L_D1S1,P29,60.0229550463,01,C,2015_Aug_05_1622,X,
stim/negf.jpg,stim/posf.jpg,stim/4.jpg,stim/1.jpg,stim/latef.jpg,CD,1,2,,,,,,,,,0,51,51,29,,,,,,,,,,2,1,0.699789485081,,,,,,PLC_L_D1S1,P29,60.0229550463,01,C,2015_Aug_05_1622,X,
stim/posf.jpg,stim/negf.jpg,stim/5.jpg,stim/2.jpg,stim/latef.jpg,AB,1,2,,,,,,,,,0,52,52,0,,,,,,,,,,2,1,1.04965748507,,,,,,PLC_L_D1S1,P29,60.0229550463,01,C,2015_Aug_05_1622,X,
stim/posf.jpg,stim/negf.jpg,stim/6.jpg,stim/3.jpg,stim/latef.jpg,EF,2,4,,,,,,,,,0,53,53,50,,,,,,,,,,2,0,0.766425253851,,,,,,PLC_L_D1S1,P29,60.0229550463,01,C,2015_Aug_05_1622,X,
stim/posf.jpg,stim/negf.jpg,stim/4.jpg,stim/1.jpg,stim/latef.jpg,CD,1,2,,,,,,,,,0,54,54,23,,,,,,,,,,2,1,1.48283981459,,,,,,PLC_L_D1S1,P29,60.0229550463,01,C,2015_Aug_05_1622,X,
stim/posf.jpg,stim/negf.jpg,stim/6.jpg,stim/3.jpg,stim/latef.jpg,EF,2,4,,,,,,,,,0,55,55,54,,,,,,,,,,2,0,0.766399172941,,,,,,PLC_L_D1S1,P29,60.0229550463,01,C,2015_Aug_05_1622,X,
stim/posf.jpg,stim/negf.jpg,stim/1.jpg,stim/4.jpg,stim/latef.jpg,CD,2,4,,,,,,,,,0,56,56,35,,,,,,,,,,4,1,1.09962813652,,,,,,PLC_L_D1S1,P29,60.0229550463,01,C,2015_Aug_05_1622,X,
stim/posf.jpg,stim/negf.jpg,stim/1.jpg,stim/4.jpg,stim/latef.jpg,CD,2,4,,,,,,,,,0,57,57,31,,,,,,,,,,4,1,0.999669648839,,,,,,PLC_L_D1S1,P29,60.0229550463,01,C,2015_Aug_05_1622,X,
stim/posf.jpg,stim/negf.jpg,stim/6.jpg,stim/3.jpg,stim/latef.jpg,EF,2,4,,,,,,,,,0,58,58,52,,,,,,,,,,2,0,0.683103456728,,,,,,PLC_L_D1S1,P29,60.0229550463,01,C,2015_Aug_05_1622,X,
stim/posf.jpg,stim/negf.jpg,stim/5.jpg,stim/2.jpg,stim/latef.jpg,AB,1,2,,,,,,,,,0,59,59,1,,,,,,,,,,2,1,0.749675638245,,,,,,PLC_L_D1S1,P29,60.0229550463,01,C,2015_Aug_05_1622,X,
,,,,,,,,,,,,,,,,,,,,,,,,,,,,,,,,0.9984375,0.0390625,1,0,0,PLC_L_D1S1,P29,60.0229550463,01,C,2015_Aug_05_1622,X,
stim/posf.jpg,stim/negf.jpg,stim/2.jpg,stim/5.jpg,stim/latef.jpg,AB,2,4,,,,,,,,,,,,,0,0,0,12,,,,,,4,1,0.716370759728,,,,,,PLC_L_D1S1,P29,60.0229550463,01,C,2015_Aug_05_1622,X,
stim/negf.jpg,stim/posf.jpg,stim/6.jpg,stim/3.jpg,stim/latef.jpg,EF,2,4,,,,,,,,,,,,,0,1,1,58,,,,,,2,0,0.566473487893,,,,,,PLC_L_D1S1,P29,60.0229550463,01,C,2015_Aug_05_1622,X,
stim/posf.jpg,stim/negf.jpg,stim/1.jpg,stim/4.jpg,stim/latef.jpg,CD,2,4,,,,,,,,,,,,,0,2,2,31,,,,,,4,1,0.949676618685,,,,,,PLC_L_D1S1,P29,60.0229550463,01,C,2015_Aug_05_1622,X,
stim/posf.jpg,stim/negf.jpg,stim/2.jpg,stim/5.jpg,stim/latef.jpg,AB,2,4,,,,,,,,,,,,,0,3,3,14,,,,,,4,1,0.749749899061,,,,,,PLC_L_D1S1,P29,60.0229550463,01,C,2015_Aug_05_1622,X,
stim/posf.jpg,stim/negf.jpg,stim/5.jpg,stim/2.jpg,stim/latef.jpg,AB,1,2,,,,,,,,,,,,,0,4,4,3,,,,,,2,1,0.749739216475,,,,,,PLC_L_D1S1,P29,60.0229550463,01,C,2015_Aug_05_1622,X,
stim/negf.jpg,stim/posf.jpg,stim/5.jpg,stim/2.jpg,stim/latef.jpg,AB,1,2,,,,,,,,,,,,,0,5,5,9,,,,,,2,1,0.599786985861,,,,,,PLC_L_D1S1,P29,60.0229550463,01,C,2015_Aug_05_1622,X,
stim/posf.jpg,stim/negf.jpg,stim/3.jpg,stim/6.jpg,stim/latef.jpg,EF,1,2,,,,,,,,,,,,,0,6,6,41,,,,,,4,0,1.06631401901,,,,,,PLC_L_D1S1,P29,60.0229550463,01,C,2015_Aug_05_1622,X,
stim/posf.jpg,stim/negf.jpg,stim/1.jpg,stim/4.jpg,stim/latef.jpg,CD,2,4,,,,,,,,,,,,,0,7,7,35,,,,,,4,1,1.11629470344,,,,,,PLC_L_D1S1,P29,60.0229550463,01,C,2015_Aug_05_1622,X,
stim/posf.jpg,stim/negf.jpg,stim/2.jpg,stim/5.jpg,stim/latef.jpg,AB,2,4,,,,,,,,,,,,,0,8,8,17,,,,,,4,1,1.09961735469,,,,,,PLC_L_D1S1,P29,60.0229550463,01,C,2015_Aug_05_1622,X,
stim/negf.jpg,stim/posf.jpg,stim/3.jpg,stim/6.jpg,stim/latef.jpg,EF,1,2,,,,,,,,,,,,,0,9,9,49,,,,,,4,0,0.699818032127,,,,,,PLC_L_D1S1,P29,60.0229550463,01,C,2015_Aug_05_1622,X,
stim/negf.jpg,stim/posf.jpg,stim/4.jpg,stim/1.jpg,stim/latef.jpg,CD,1,2,,,,,,,,,,,,,0,10,10,29,,,,,,2,1,0.616448431032,,,,,,PLC_L_D1S1,P29,60.0229550463,01,C,2015_Aug_05_1622,X,
stim/posf.jpg,stim/negf.jpg,stim/6.jpg,stim/3.jpg,stim/latef.jpg,EF,2,4,,,,,,,,,,,,,0,11,11,51,,,,,,2,0,0.932953038875,,,,,,PLC_L_D1S1,P29,60.0229550463,01,C,2015_Aug_05_1622,X,
stim/negf.jpg,stim/posf.jpg,stim/4.jpg,stim/1.jpg,stim/latef.jpg,CD,1,2,,,,,,,,,,,,,0,12,12,27,,,,,,2,1,0.849716073879,,,,,,PLC_L_D1S1,P29,60.0229550463,01,C,2015_Aug_05_1622,X,
stim/posf.jpg,stim/negf.jpg,stim/6.jpg,stim/3.jpg,stim/latef.jpg,EF,2,4,,,,,,,,,,,,,0,13,13,50,,,,,,2,0,1.19955733432,,,,,,PLC_L_D1S1,P29,60.0229550463,01,C,2015_Aug_05_1622,X,
stim/posf.jpg,stim/negf.jpg,stim/1.jpg,stim/4.jpg,stim/latef.jpg,CD,2,4,,,,,,,,,,,,,0,14,14,36,,,,,,4,1,0.899685856175,,,,,,PLC_L_D1S1,P29,60.0229550463,01,C,2015_Aug_05_1622,X,
stim/negf.jpg,stim/posf.jpg,stim/2.jpg,stim/5.jpg,stim/latef.jpg,AB,2,4,,,,,,,,,,,,,0,15,15,19,,,,,,4,1,0.849716353575,,,,,,PLC_L_D1S1,P29,60.0229550463,01,C,2015_Aug_05_1622,X,
stim/posf.jpg,stim/negf.jpg,stim/3.jpg,stim/6.jpg,stim/latef.jpg,EF,1,2,,,,,,,,,,,,,0,16,16,40,,,,,,4,0,1.08294480889,,,,,,PLC_L_D1S1,P29,60.0229550463,01,C,2015_Aug_05_1622,X,
stim/posf.jpg,stim/negf.jpg,stim/2.jpg,stim/5.jpg,stim/latef.jpg,AB,2,4,,,,,,,,,,,,,0,17,17,15,,,,,,4,1,1.11629975301,,,,,,PLC_L_D1S1,P29,60.0229550463,01,C,2015_Aug_05_1622,X,
stim/posf.jpg,stim/negf.jpg,stim/1.jpg,stim/4.jpg,stim/latef.jpg,CD,2,4,,,,,,,,,,,,,0,18,18,32,,,,,,4,1,0.766397729349,,,,,,PLC_L_D1S1,P29,60.0229550463,01,C,2015_Aug_05_1622,X,
stim/posf.jpg,stim/negf.jpg,stim/5.jpg,stim/2.jpg,stim/latef.jpg,AB,1,2,,,,,,,,,,,,,0,19,19,5,,,,,,2,1,0.783078347236,,,,,,PLC_L_D1S1,P29,60.0229550463,01,C,2015_Aug_05_1622,X,
stim/negf.jpg,stim/posf.jpg,stim/1.jpg,stim/4.jpg,stim/latef.jpg,CD,2,4,,,,,,,,,,,,,0,20,20,39,,,,,,4,1,0.749801254873,,,,,,PLC_L_D1S1,P29,60.0229550463,01,C,2015_Aug_05_1622,X,
stim/negf.jpg,stim/posf.jpg,stim/6.jpg,stim/3.jpg,stim/latef.jpg,EF,2,4,,,,,,,,,,,,,0,21,21,57,,,,,,2,0,0.699664632354,,,,,,PLC_L_D1S1,P29,60.0229550463,01,C,2015_Aug_05_1622,X,
stim/posf.jpg,stim/negf.jpg,stim/2.jpg,stim/5.jpg,stim/latef.jpg,AB,2,4,,,,,,,,,,,,,0,22,22,13,,,,,,4,1,0.716456331696,,,,,,PLC_L_D1S1,P29,60.0229550463,01,C,2015_Aug_05_1622,X,
stim/posf.jpg,stim/negf.jpg,stim/6.jpg,stim/3.jpg,stim/latef.jpg,EF,2,4,,,,,,,,,,,,,0,23,23,54,,,,,,2,0,0.78308164344,,,,,,PLC_L_D1S1,P29,60.0229550463,01,C,2015_Aug_05_1622,X,
stim/posf.jpg,stim/negf.jpg,stim/1.jpg,stim/4.jpg,stim/latef.jpg,CD,2,4,,,,,,,,,,,,,0,24,24,33,,,,,,4,1,0.799760926005,,,,,,PLC_L_D1S1,P29,60.0229550463,01,C,2015_Aug_05_1622,X,
stim/negf.jpg,stim/posf.jpg,stim/3.jpg,stim/6.jpg,stim/latef.jpg,EF,1,2,,,,,,,,,,,,,0,25,25,46,,,,,,4,0,0.83304222584,,,,,,PLC_L_D1S1,P29,60.0229550463,01,C,2015_Aug_05_1622,X,
stim/posf.jpg,stim/negf.jpg,stim/5.jpg,stim/2.jpg,stim/latef.jpg,AB,1,2,,,,,,,,,,,,,0,26,26,4,,,,,,2,1,0.799714132548,,,,,,PLC_L_D1S1,P29,60.0229550463,01,C,2015_Aug_05_1622,X,
stim/negf.jpg,stim/posf.jpg,stim/1.jpg,stim/4.jpg,stim/latef.jpg,CD,2,4,,,,,,,,,,,,,0,27,27,37,,,,,,4,1,0.766411903625,,,,,,PLC_L_D1S1,P29,60.0229550463,01,C,2015_Aug_05_1622,X,
stim/posf.jpg,stim/negf.jpg,stim/2.jpg,stim/5.jpg,stim/latef.jpg,AB,2,4,,,,,,,,,,,,,0,28,28,10,,,,,,4,1,0.799667053379,,,,,,PLC_L_D1S1,P29,60.0229550463,01,C,2015_Aug_05_1622,X,
stim/negf.jpg,stim/posf.jpg,stim/6.jpg,stim/3.jpg,stim/latef.jpg,EF,2,4,,,,,,,,,,,,,0,29,29,59,,,,,,2,0,0.999669378165,,,,,,PLC_L_D1S1,P29,60.0229550463,01,C,2015_Aug_05_1622,X,
stim/posf.jpg,stim/negf.jpg,stim/6.jpg,stim/3.jpg,stim/latef.jpg,EF,2,4,,,,,,,,,,,,,0,30,30,52,,,,,,2,0,0.733148756969,,,,,,PLC_L_D1S1,P29,60.0229550463,01,C,2015_Aug_05_1622,X,
stim/negf.jpg,stim/posf.jpg,stim/2.jpg,stim/5.jpg,stim/latef.jpg,AB,2,4,,,,,,,,,,,,,0,31,31,18,,,,,,4,1,0.683120599392,,,,,,PLC_L_D1S1,P29,60.0229550463,01,C,2015_Aug_05_1622,X,
stim/posf.jpg,stim/negf.jpg,stim/4.jpg,stim/1.jpg,stim/latef.jpg,CD,1,2,,,,,,,,,,,,,0,32,32,22,,,,,,2,1,0.633142164562,,,,,,PLC_L_D1S1,P29,60.0229550463,01,C,2015_Aug_05_1622,X,
stim/posf.jpg,stim/negf.jpg,stim/1.jpg,stim/4.jpg,stim/latef.jpg,CD,2,4,,,,,,,,,,,,,0,33,33,30,,,,,,4,1,0.86640886005,,,,,,PLC_L_D1S1,P29,60.0229550463,01,C,2015_Aug_05_1622,X,
stim/posf.jpg,stim/negf.jpg,stim/1.jpg,stim/4.jpg,stim/latef.jpg,CD,2,4,,,,,,,,,,,,,0,34,34,34,,,,,,4,1,0.716415246445,,,,,,PLC_L_D1S1,P29,60.0229550463,01,C,2015_Aug_05_1622,X,
stim/posf.jpg,stim/negf.jpg,stim/5.jpg,stim/2.jpg,stim/latef.jpg,AB,1,2,,,,,,,,,,,,,0,35,35,7,,,,,,2,1,0.799708310057,,,,,,PLC_L_D1S1,P29,60.0229550463,01,C,2015_Aug_05_1622,X,
stim/negf.jpg,stim/posf.jpg,stim/1.jpg,stim/4.jpg,stim/latef.jpg,CD,2,4,,,,,,,,,,,,,0,36,36,38,,,,,,4,1,0.649776515302,,,,,,PLC_L_D1S1,P29,60.0229550463,01,C,2015_Aug_05_1622,X,
stim/posf.jpg,stim/negf.jpg,stim/5.jpg,stim/2.jpg,stim/latef.jpg,AB,1,2,,,,,,,,,,,,,0,37,37,6,,,,,,2,1,0.666428631256,,,,,,PLC_L_D1S1,P29,60.0229550463,01,C,2015_Aug_05_1622,X,
stim/posf.jpg,stim/negf.jpg,stim/4.jpg,stim/1.jpg,stim/latef.jpg,CD,1,2,,,,,,,,,,,,,0,38,38,20,,,,,,2,1,0.833058114382,,,,,,PLC_L_D1S1,P29,60.0229550463,01,C,2015_Aug_05_1622,X,
stim/negf.jpg,stim/posf.jpg,stim/6.jpg,stim/3.jpg,stim/latef.jpg,EF,2,4,,,,,,,,,,,,,0,39,39,56,,,,,,2,0,0.766413840445,,,,,,PLC_L_D1S1,P29,60.0229550463,01,C,2015_Aug_05_1622,X,
stim/negf.jpg,stim/posf.jpg,stim/5.jpg,stim/2.jpg,stim/latef.jpg,AB,1,2,,,,,,,,,,,,,0,40,40,8,,,,,,2,1,0.666406339778,,,,,,PLC_L_D1S1,P29,60.0229550463,01,C,2015_Aug_05_1622,X,
stim/negf.jpg,stim/posf.jpg,stim/3.jpg,stim/6.jpg,stim/latef.jpg,EF,1,2,,,,,,,,,,,,,0,41,41,47,,,,,,4,0,1.14959366022,,,,,,PLC_L_D1S1,P29,60.0229550463,01,C,2015_Aug_05_1622,X,
stim/posf.jpg,stim/negf.jpg,stim/5.jpg,stim/2.jpg,stim/latef.jpg,AB,1,2,,,,,,,,,,,,,0,42,42,1,,,,,,2,1,0.61646025947,,,,,,PLC_L_D1S1,P29,60.0229550463,01,C,2015_Aug_05_1622,X,
stim/posf.jpg,stim/negf.jpg,stim/5.jpg,stim/2.jpg,stim/latef.jpg,AB,1,2,,,,,,,,,,,,,0,43,43,2,,,,,,2,1,0.666449259595,,,,,,PLC_L_D1S1,P29,60.0229550463,01,C,2015_Aug_05_1622,X,
stim/posf.jpg,stim/negf.jpg,stim/3.jpg,stim/6.jpg,stim/latef.jpg,EF,1,2,,,,,,,,,,,,,0,44,44,43,,,,,,4,0,1.08197439578,,,,,,PLC_L_D1S1,P29,60.0229550463,01,C,2015_Aug_05_1622,X,
stim/posf.jpg,stim/negf.jpg,stim/4.jpg,stim/1.jpg,stim/latef.jpg,CD,1,2,,,,,,,,,,,,,0,45,45,25,,,,,,2,1,0.599805752567,,,,,,PLC_L_D1S1,P29,60.0229550463,01,C,2015_Aug_05_1622,X,
stim/posf.jpg,stim/negf.jpg,stim/2.jpg,stim/5.jpg,stim/latef.jpg,AB,2,4,,,,,,,,,,,,,0,46,46,16,,,,,,4,1,1.01633459773,,,,,,PLC_L_D1S1,P29,60.0229550463,01,C,2015_Aug_05_1622,X,
stim/posf.jpg,stim/negf.jpg,stim/4.jpg,stim/1.jpg,stim/latef.jpg,CD,1,2,,,,,,,,,,,,,0,47,47,23,,,,,,2,1,0.799671266866,,,,,,PLC_L_D1S1,P29,60.0229550463,01,C,2015_Aug_05_1622,X,
stim/negf.jpg,stim/posf.jpg,stim/3.jpg,stim/6.jpg,stim/latef.jpg,EF,1,2,,,,,,,,,,,,,0,48,48,48,,,,,,4,0,0.783086473461,,,,,,PLC_L_D1S1,P29,60.0229550463,01,C,2015_Aug_05_1622,X,
stim/posf.jpg,stim/negf.jpg,stim/3.jpg,stim/6.jpg,stim/latef.jpg,EF,1,2,,,,,,,,,,,,,0,49,49,42,,,,,,4,0,0.949624817765,,,,,,PLC_L_D1S1,P29,60.0229550463,01,C,2015_Aug_05_1622,X,
stim/posf.jpg,stim/negf.jpg,stim/4.jpg,stim/1.jpg,stim/latef.jpg,CD,1,2,,,,,,,,,,,,,0,50,50,24,,,,,,2,1,0.633120035488,,,,,,PLC_L_D1S1,P29,60.0229550463,01,C,2015_Aug_05_1622,X,
stim/posf.jpg,stim/negf.jpg,stim/5.jpg,stim/2.jpg,stim/latef.jpg,AB,1,2,,,,,,,,,,,,,0,51,51,0,,,,,,2,1,0.666435867265,,,,,,PLC_L_D1S1,P29,60.0229550463,01,C,2015_Aug_05_1622,X,
stim/posf.jpg,stim/negf.jpg,stim/6.jpg,stim/3.jpg,stim/latef.jpg,EF,2,4,,,,,,,,,,,,,0,52,52,53,,,,,,2,0,1.04965521141,,,,,,PLC_L_D1S1,P29,60.0229550463,01,C,2015_Aug_05_1622,X,
stim/posf.jpg,stim/negf.jpg,stim/2.jpg,stim/5.jpg,stim/latef.jpg,AB,2,4,,,,,,,,,,,,,0,53,53,11,,,,,,2,0,0.816404852577,,,,,,PLC_L_D1S1,P29,60.0229550463,01,C,2015_Aug_05_1622,X,
stim/posf.jpg,stim/negf.jpg,stim/4.jpg,stim/1.jpg,stim/latef.jpg,CD,1,2,,,,,,,,,,,,,0,54,54,21,,,,,,2,1,1.0663028823,,,,,,PLC_L_D1S1,P29,60.0229550463,01,C,2015_Aug_05_1622,X,
stim/posf.jpg,stim/negf.jpg,stim/3.jpg,stim/6.jpg,stim/latef.jpg,EF,1,2,,,,,,,,,,,,,0,55,55,44,,,,,,4,0,0.683115203964,,,,,,PLC_L_D1S1,P29,60.0229550463,01,C,2015_Aug_05_1622,X,
stim/posf.jpg,stim/negf.jpg,stim/3.jpg,stim/6.jpg,stim/latef.jpg,EF,1,2,,,,,,,,,,,,,0,56,56,45,,,,,,4,0,0.883035213888,,,,,,PLC_L_D1S1,P29,60.0229550463,01,C,2015_Aug_05_1622,X,
stim/posf.jpg,stim/negf.jpg,stim/4.jpg,stim/1.jpg,stim/latef.jpg,CD,1,2,,,,,,,,,,,,,0,57,57,26,,,,,,2,1,1.0162132006,,,,,,PLC_L_D1S1,P29,60.0229550463,01,C,2015_Aug_05_1622,X,
stim/negf.jpg,stim/posf.jpg,stim/4.jpg,stim/1.jpg,stim/latef.jpg,CD,1,2,,,,,,,,,,,,,0,58,58,28,,,,,,2,1,0.749712588204,,,,,,PLC_L_D1S1,P29,60.0229550463,01,C,2015_Aug_05_1622,X,
stim/posf.jpg,stim/negf.jpg,stim/6.jpg,stim/3.jpg,stim/latef.jpg,EF,2,4,,,,,,,,,,,,,0,59,59,55,,,,,,2,0,0.899758929035,,,,,,PLC_L_D1S1,P29,60.0229550463,01,C,2015_Aug_05_1622,X,
