fb_corr,fb_incorr,symbol2,symbol1,fb_late,pair,position,correct,block_01.thisRepN,block_01.thisTrialN,block_01.thisN,block_01.thisIndex,block_02.thisRepN,block_02.thisTrialN,block_02.thisN,block_02.thisIndex,block_03.thisRepN,block_03.thisTrialN,block_03.thisN,block_03.thisIndex,block_04.thisRepN,block_04.thisTrialN,block_04.thisN,block_04.thisIndex,mouse.x,mouse.y,mouse.leftButton,mouse.midButton,mouse.rightButton,buttonBox_2.keys,buttonBox_2.corr,buttonBox_2.rt,mouse_2.x,mouse_2.y,mouse_2.leftButton,mouse_2.midButton,mouse_2.rightButton,expName,Participant,frameRate,SessionNumber,Version,date,Group,
,,,,,,,,,,,,,,,,,,,,,,,,0.9984375,1.0,1,0,0,,,,,,,,,PLC_L_D1S1,P31,60.0161989566,01,A,2015_Aug_19_1503,X,
stim/negf.jpg,stim/posf.jpg,stim/2.jpg,stim/3.jpg,stim/latef.jpg,EF,2,4,0,0,0,56,,,,,,,,,,,,,,,,,,4,1,0.93306657143,,,,,,PLC_L_D1S1,P31,60.0161989566,01,A,2015_Aug_19_1503,X,
stim/posf.jpg,stim/negf.jpg,stim/3.jpg,stim/2.jpg,stim/latef.jpg,EF,1,2,0,1,1,41,,,,,,,,,,,,,,,,,,4,0,1.56614610813,,,,,,PLC_L_D1S1,P31,60.0161989566,01,A,2015_Aug_19_1503,X,
stim/posf.jpg,stim/negf.jpg,stim/4.jpg,stim/6.jpg,stim/latef.jpg,AB,2,4,0,2,2,13,,,,,,,,,,,,,,,,,,2,0,1.33291178821,,,,,,PLC_L_D1S1,P31,60.0161989566,01,A,2015_Aug_19_1503,X,
stim/posf.jpg,stim/negf.jpg,stim/1.jpg,stim/5.jpg,stim/latef.jpg,CD,2,4,0,3,3,33,,,,,,,,,,,,,,,,,,4,1,0.883028973358,,,,,,PLC_L_D1S1,P31,60.0161989566,01,A,2015_Aug_19_1503,X,
stim/posf.jpg,stim/negf.jpg,stim/2.jpg,stim/3.jpg,stim/latef.jpg,EF,2,4,0,4,4,52,,,,,,,,,,,,,,,,,,2,0,1.26626743909,,,,,,PLC_L_D1S1,P31,60.0161989566,01,A,2015_Aug_19_1503,X,
stim/posf.jpg,stim/negf.jpg,stim/2.jpg,stim/3.jpg,stim/latef.jpg,EF,2,4,0,5,5,53,,,,,,,,,,,,,,,,,,4,1,1.24962017421,,,,,,PLC_L_D1S1,P31,60.0161989566,01,A,2015_Aug_19_1503,X,
stim/posf.jpg,stim/negf.jpg,stim/4.jpg,stim/6.jpg,stim/latef.jpg,AB,2,4,0,6,6,11,,,,,,,,,,,,,,,,,,2,0,1.1828793991,,,,,,PLC_L_D1S1,P31,60.0161989566,01,A,2015_Aug_19_1503,X,
stim/negf.jpg,stim/posf.jpg,stim/2.jpg,stim/3.jpg,stim/latef.jpg,EF,2,4,0,7,7,57,,,,,,,,,,,,,,,,,,4,1,1.4327771371,,,,,,PLC_L_D1S1,P31,60.0161989566,01,A,2015_Aug_19_1503,X,
stim/posf.jpg,stim/negf.jpg,stim/5.jpg,stim/1.jpg,stim/latef.jpg,CD,1,2,0,8,8,22,,,,,,,,,,,,,,,,,,2,1,1.11628517272,,,,,,PLC_L_D1S1,P31,60.0161989566,01,A,2015_Aug_19_1503,X,
stim/negf.jpg,stim/posf.jpg,stim/3.jpg,stim/2.jpg,stim/latef.jpg,EF,1,2,0,9,9,47,,,,,,,,,,,,,,,,,,2,1,1.33287953895,,,,,,PLC_L_D1S1,P31,60.0161989566,01,A,2015_Aug_19_1503,X,
stim/negf.jpg,stim/posf.jpg,stim/2.jpg,stim/3.jpg,stim/latef.jpg,EF,2,4,0,10,10,58,,,,,,,,,,,,,,,,,,2,0,1.38284428973,,,,,,PLC_L_D1S1,P31,60.0161989566,01,A,2015_Aug_19_1503,X,
stim/posf.jpg,stim/negf.jpg,stim/2.jpg,stim/3.jpg,stim/latef.jpg,EF,2,4,0,11,11,55,,,,,,,,,,,,,,,,,,2,0,1.28290208757,,,,,,PLC_L_D1S1,P31,60.0161989566,01,A,2015_Aug_19_1503,X,
stim/posf.jpg,stim/negf.jpg,stim/4.jpg,stim/6.jpg,stim/latef.jpg,AB,2,4,0,12,12,15,,,,,,,,,,,,,,,,,,4,1,1.26625358361,,,,,,PLC_L_D1S1,P31,60.0161989566,01,A,2015_Aug_19_1503,X,
stim/posf.jpg,stim/negf.jpg,stim/2.jpg,stim/3.jpg,stim/latef.jpg,EF,2,4,0,13,13,50,,,,,,,,,,,,,,,,,,2,0,1.13295015169,,,,,,PLC_L_D1S1,P31,60.0161989566,01,A,2015_Aug_19_1503,X,
stim/negf.jpg,stim/posf.jpg,stim/6.jpg,stim/4.jpg,stim/latef.jpg,AB,1,2,0,14,14,9,,,,,,,,,,,,,,,,,,4,0,1.56608398552,,,,,,PLC_L_D1S1,P31,60.0161989566,01,A,2015_Aug_19_1503,X,
stim/posf.jpg,stim/negf.jpg,stim/5.jpg,stim/1.jpg,stim/latef.jpg,CD,1,2,0,15,15,21,,,,,,,,,,,,,,,,,,2,1,1.13293315639,,,,,,PLC_L_D1S1,P31,60.0161989566,01,A,2015_Aug_19_1503,X,
stim/posf.jpg,stim/negf.jpg,stim/5.jpg,stim/1.jpg,stim/latef.jpg,CD,1,2,0,16,16,20,,,,,,,,,,,,,,,,,,2,1,0.916344627693,,,,,,PLC_L_D1S1,P31,60.0161989566,01,A,2015_Aug_19_1503,X,
stim/posf.jpg,stim/negf.jpg,stim/4.jpg,stim/6.jpg,stim/latef.jpg,AB,2,4,0,17,17,17,,,,,,,,,,,,,,,,,,2,0,1.26624259726,,,,,,PLC_L_D1S1,P31,60.0161989566,01,A,2015_Aug_19_1503,X,
stim/posf.jpg,stim/negf.jpg,stim/2.jpg,stim/3.jpg,stim/latef.jpg,EF,2,4,0,18,18,54,,,,,,,,,,,,,,,,,,2,0,1.28289096589,,,,,,PLC_L_D1S1,P31,60.0161989566,01,A,2015_Aug_19_1503,X,
stim/posf.jpg,stim/negf.jpg,stim/3.jpg,stim/2.jpg,stim/latef.jpg,EF,1,2,0,19,19,43,,,,,,,,,,,,,,,,,,2,1,1.29954449837,,,,,,PLC_L_D1S1,P31,60.0161989566,01,A,2015_Aug_19_1503,X,
stim/posf.jpg,stim/negf.jpg,stim/6.jpg,stim/4.jpg,stim/latef.jpg,AB,1,2,0,20,20,4,,,,,,,,,,,,,,,,,,2,1,1.39951161453,,,,,,PLC_L_D1S1,P31,60.0161989566,01,A,2015_Aug_19_1503,X,
stim/posf.jpg,stim/negf.jpg,stim/5.jpg,stim/1.jpg,stim/latef.jpg,CD,1,2,0,21,21,24,,,,,,,,,,,,,,,,,,2,1,0.849689989962,,,,,,PLC_L_D1S1,P31,60.0161989566,01,A,2015_Aug_19_1503,X,
stim/posf.jpg,stim/negf.jpg,stim/6.jpg,stim/4.jpg,stim/latef.jpg,AB,1,2,0,22,22,6,,,,,,,,,,,,,,,,,,4,0,1.66609092379,,,,,,PLC_L_D1S1,P31,60.0161989566,01,A,2015_Aug_19_1503,X,
stim/posf.jpg,stim/negf.jpg,stim/6.jpg,stim/4.jpg,stim/latef.jpg,AB,1,2,0,23,23,7,,,,,,,,,,,,,,,,,,2,1,1.09958213404,,,,,,PLC_L_D1S1,P31,60.0161989566,01,A,2015_Aug_19_1503,X,
stim/posf.jpg,stim/negf.jpg,stim/3.jpg,stim/2.jpg,stim/latef.jpg,EF,1,2,0,24,24,42,,,,,,,,,,,,,,,,,,2,1,1.28295048702,,,,,,PLC_L_D1S1,P31,60.0161989566,01,A,2015_Aug_19_1503,X,
stim/negf.jpg,stim/posf.jpg,stim/5.jpg,stim/1.jpg,stim/latef.jpg,CD,1,2,0,25,25,28,,,,,,,,,,,,,,,,,,2,1,0.849689165912,,,,,,PLC_L_D1S1,P31,60.0161989566,01,A,2015_Aug_19_1503,X,
stim/posf.jpg,stim/negf.jpg,stim/4.jpg,stim/6.jpg,stim/latef.jpg,AB,2,4,0,26,26,10,,,,,,,,,,,,,,,,,,4,1,1.19958743924,,,,,,PLC_L_D1S1,P31,60.0161989566,01,A,2015_Aug_19_1503,X,
stim/posf.jpg,stim/negf.jpg,stim/2.jpg,stim/3.jpg,stim/latef.jpg,EF,2,4,0,27,27,51,,,,,,,,,,,,,,,,,,2,0,0.916378666406,,,,,,PLC_L_D1S1,P31,60.0161989566,01,A,2015_Aug_19_1503,X,
stim/posf.jpg,stim/negf.jpg,stim/6.jpg,stim/4.jpg,stim/latef.jpg,AB,1,2,0,28,28,2,,,,,,,,,,,,,,,,,,None,0,,,,,,,PLC_L_D1S1,P31,60.0161989566,01,A,2015_Aug_19_1503,X,
stim/posf.jpg,stim/negf.jpg,stim/1.jpg,stim/5.jpg,stim/latef.jpg,CD,2,4,0,29,29,36,,,,,,,,,,,,,,,,,,4,1,0.616475441254,,,,,,PLC_L_D1S1,P31,60.0161989566,01,A,2015_Aug_19_1503,X,
stim/negf.jpg,stim/posf.jpg,stim/3.jpg,stim/2.jpg,stim/latef.jpg,EF,1,2,0,30,30,48,,,,,,,,,,,,,,,,,,2,1,0.816392503844,,,,,,PLC_L_D1S1,P31,60.0161989566,01,A,2015_Aug_19_1503,X,
stim/posf.jpg,stim/negf.jpg,stim/1.jpg,stim/5.jpg,stim/latef.jpg,CD,2,4,0,31,31,34,,,,,,,,,,,,,,,,,,4,1,0.699776191998,,,,,,PLC_L_D1S1,P31,60.0161989566,01,A,2015_Aug_19_1503,X,
stim/negf.jpg,stim/posf.jpg,stim/3.jpg,stim/2.jpg,stim/latef.jpg,EF,1,2,0,32,32,49,,,,,,,,,,,,,,,,,,4,0,0.749733240602,,,,,,PLC_L_D1S1,P31,60.0161989566,01,A,2015_Aug_19_1503,X,
stim/posf.jpg,stim/negf.jpg,stim/1.jpg,stim/5.jpg,stim/latef.jpg,CD,2,4,0,33,33,30,,,,,,,,,,,,,,,,,,4,1,0.949682408093,,,,,,PLC_L_D1S1,P31,60.0161989566,01,A,2015_Aug_19_1503,X,
stim/negf.jpg,stim/posf.jpg,stim/6.jpg,stim/4.jpg,stim/latef.jpg,AB,1,2,0,34,34,8,,,,,,,,,,,,,,,,,,2,1,0.733085900535,,,,,,PLC_L_D1S1,P31,60.0161989566,01,A,2015_Aug_19_1503,X,
stim/posf.jpg,stim/negf.jpg,stim/4.jpg,stim/6.jpg,stim/latef.jpg,AB,2,4,0,35,35,14,,,,,,,,,,,,,,,,,,2,0,0.949690368906,,,,,,PLC_L_D1S1,P31,60.0161989566,01,A,2015_Aug_19_1503,X,
stim/negf.jpg,stim/posf.jpg,stim/3.jpg,stim/2.jpg,stim/latef.jpg,EF,1,2,0,36,36,46,,,,,,,,,,,,,,,,,,4,0,1.11630042067,,,,,,PLC_L_D1S1,P31,60.0161989566,01,A,2015_Aug_19_1503,X,
stim/posf.jpg,stim/negf.jpg,stim/3.jpg,stim/2.jpg,stim/latef.jpg,EF,1,2,0,37,37,40,,,,,,,,,,,,,,,,,,4,0,0.61646241283,,,,,,PLC_L_D1S1,P31,60.0161989566,01,A,2015_Aug_19_1503,X,
stim/posf.jpg,stim/negf.jpg,stim/5.jpg,stim/1.jpg,stim/latef.jpg,CD,1,2,0,38,38,25,,,,,,,,,,,,,,,,,,2,1,0.866360021504,,,,,,PLC_L_D1S1,P31,60.0161989566,01,A,2015_Aug_19_1503,X,
stim/posf.jpg,stim/negf.jpg,stim/3.jpg,stim/2.jpg,stim/latef.jpg,EF,1,2,0,39,39,44,,,,,,,,,,,,,,,,,,4,0,0.883044907012,,,,,,PLC_L_D1S1,P31,60.0161989566,01,A,2015_Aug_19_1503,X,
stim/negf.jpg,stim/posf.jpg,stim/2.jpg,stim/3.jpg,stim/latef.jpg,EF,2,4,0,40,40,59,,,,,,,,,,,,,,,,,,2,0,0.98300521122,,,,,,PLC_L_D1S1,P31,60.0161989566,01,A,2015_Aug_19_1503,X,
stim/posf.jpg,stim/negf.jpg,stim/1.jpg,stim/5.jpg,stim/latef.jpg,CD,2,4,0,41,41,35,,,,,,,,,,,,,,,,,,4,1,0.749759285422,,,,,,PLC_L_D1S1,P31,60.0161989566,01,A,2015_Aug_19_1503,X,
stim/posf.jpg,stim/negf.jpg,stim/6.jpg,stim/4.jpg,stim/latef.jpg,AB,1,2,0,42,42,5,,,,,,,,,,,,,,,,,,4,0,1.23294697579,,,,,,PLC_L_D1S1,P31,60.0161989566,01,A,2015_Aug_19_1503,X,
stim/negf.jpg,stim/posf.jpg,stim/5.jpg,stim/1.jpg,stim/latef.jpg,CD,1,2,0,43,43,29,,,,,,,,,,,,,,,,,,2,1,0.783058115886,,,,,,PLC_L_D1S1,P31,60.0161989566,01,A,2015_Aug_19_1503,X,
stim/posf.jpg,stim/negf.jpg,stim/6.jpg,stim/4.jpg,stim/latef.jpg,AB,1,2,0,44,44,0,,,,,,,,,,,,,,,,,,4,0,0.866372427379,,,,,,PLC_L_D1S1,P31,60.0161989566,01,A,2015_Aug_19_1503,X,
stim/negf.jpg,stim/posf.jpg,stim/4.jpg,stim/6.jpg,stim/latef.jpg,AB,2,4,0,45,45,18,,,,,,,,,,,,,,,,,,4,1,1.31618837081,,,,,,PLC_L_D1S1,P31,60.0161989566,01,A,2015_Aug_19_1503,X,
stim/negf.jpg,stim/posf.jpg,stim/1.jpg,stim/5.jpg,stim/latef.jpg,CD,2,4,0,46,46,39,,,,,,,,,,,,,,,,,,4,1,0.966344256268,,,,,,PLC_L_D1S1,P31,60.0161989566,01,A,2015_Aug_19_1503,X,
stim/negf.jpg,stim/posf.jpg,stim/1.jpg,stim/5.jpg,stim/latef.jpg,CD,2,4,0,47,47,37,,,,,,,,,,,,,,,,,,4,1,0.949687580967,,,,,,PLC_L_D1S1,P31,60.0161989566,01,A,2015_Aug_19_1503,X,
stim/posf.jpg,stim/negf.jpg,stim/1.jpg,stim/5.jpg,stim/latef.jpg,CD,2,4,0,48,48,32,,,,,,,,,,,,,,,,,,4,1,0.649773598042,,,,,,PLC_L_D1S1,P31,60.0161989566,01,A,2015_Aug_19_1503,X,
stim/posf.jpg,stim/negf.jpg,stim/4.jpg,stim/6.jpg,stim/latef.jpg,AB,2,4,0,49,49,16,,,,,,,,,,,,,,,,,,2,0,1.04961755469,,,,,,PLC_L_D1S1,P31,60.0161989566,01,A,2015_Aug_19_1503,X,
stim/negf.jpg,stim/posf.jpg,stim/1.jpg,stim/5.jpg,stim/latef.jpg,CD,2,4,0,50,50,38,,,,,,,,,,,,,,,,,,4,1,0.733101777048,,,,,,PLC_L_D1S1,P31,60.0161989566,01,A,2015_Aug_19_1503,X,
stim/posf.jpg,stim/negf.jpg,stim/6.jpg,stim/4.jpg,stim/latef.jpg,AB,1,2,0,51,51,3,,,,,,,,,,,,,,,,,,4,0,1.3995307271,,,,,,PLC_L_D1S1,P31,60.0161989566,01,A,2015_Aug_19_1503,X,
stim/posf.jpg,stim/negf.jpg,stim/1.jpg,stim/5.jpg,stim/latef.jpg,CD,2,4,0,52,52,31,,,,,,,,,,,,,,,,,,4,1,0.699775395015,,,,,,PLC_L_D1S1,P31,60.0161989566,01,A,2015_Aug_19_1503,X,
stim/posf.jpg,stim/negf.jpg,stim/6.jpg,stim/4.jpg,stim/latef.jpg,AB,1,2,0,53,53,1,,,,,,,,,,,,,,,,,,4,0,1.23291204084,,,,,,PLC_L_D1S1,P31,60.0161989566,01,A,2015_Aug_19_1503,X,
stim/posf.jpg,stim/negf.jpg,stim/3.jpg,stim/2.jpg,stim/latef.jpg,EF,1,2,0,54,54,45,,,,,,,,,,,,,,,,,,4,0,1.18294393973,,,,,,PLC_L_D1S1,P31,60.0161989566,01,A,2015_Aug_19_1503,X,
stim/posf.jpg,stim/negf.jpg,stim/5.jpg,stim/1.jpg,stim/latef.jpg,CD,1,2,0,55,55,26,,,,,,,,,,,,,,,,,,2,1,0.749790524167,,,,,,PLC_L_D1S1,P31,60.0161989566,01,A,2015_Aug_19_1503,X,
stim/negf.jpg,stim/posf.jpg,stim/4.jpg,stim/6.jpg,stim/latef.jpg,AB,2,4,0,56,56,19,,,,,,,,,,,,,,,,,,2,0,1.08289939286,,,,,,PLC_L_D1S1,P31,60.0161989566,01,A,2015_Aug_19_1503,X,
stim/negf.jpg,stim/posf.jpg,stim/5.jpg,stim/1.jpg,stim/latef.jpg,CD,1,2,0,57,57,27,,,,,,,,,,,,,,,,,,2,1,0.716429125987,,,,,,PLC_L_D1S1,P31,60.0161989566,01,A,2015_Aug_19_1503,X,
stim/posf.jpg,stim/negf.jpg,stim/4.jpg,stim/6.jpg,stim/latef.jpg,AB,2,4,0,58,58,12,,,,,,,,,,,,,,,,,,2,0,0.949743616426,,,,,,PLC_L_D1S1,P31,60.0161989566,01,A,2015_Aug_19_1503,X,
stim/posf.jpg,stim/negf.jpg,stim/5.jpg,stim/1.jpg,stim/latef.jpg,CD,1,2,0,59,59,23,,,,,,,,,,,,,,,,,,2,1,0.749792451965,,,,,,PLC_L_D1S1,P31,60.0161989566,01,A,2015_Aug_19_1503,X,
,,,,,,,,,,,,,,,,,,,,,,,,,,,,,,,,0.9984375,1.0,1,0,0,PLC_L_D1S1,P31,60.0161989566,01,A,2015_Aug_19_1503,X,
stim/negf.jpg,stim/posf.jpg,stim/2.jpg,stim/3.jpg,stim/latef.jpg,EF,2,4,,,,,0,0,0,59,,,,,,,,,,,,,,4,1,0.99968779901,,,,,,PLC_L_D1S1,P31,60.0161989566,01,A,2015_Aug_19_1503,X,
stim/negf.jpg,stim/posf.jpg,stim/2.jpg,stim/3.jpg,stim/latef.jpg,EF,2,4,,,,,0,1,1,58,,,,,,,,,,,,,,2,0,0.666424652353,,,,,,PLC_L_D1S1,P31,60.0161989566,01,A,2015_Aug_19_1503,X,
stim/negf.jpg,stim/posf.jpg,stim/3.jpg,stim/2.jpg,stim/latef.jpg,EF,1,2,,,,,0,2,2,46,,,,,,,,,,,,,,4,0,1.21627820739,,,,,,PLC_L_D1S1,P31,60.0161989566,01,A,2015_Aug_19_1503,X,
stim/posf.jpg,stim/negf.jpg,stim/5.jpg,stim/1.jpg,stim/latef.jpg,CD,1,2,,,,,0,3,3,21,,,,,,,,,,,,,,2,1,0.749728136901,,,,,,PLC_L_D1S1,P31,60.0161989566,01,A,2015_Aug_19_1503,X,
stim/posf.jpg,stim/negf.jpg,stim/4.jpg,stim/6.jpg,stim/latef.jpg,AB,2,4,,,,,0,4,4,16,,,,,,,,,,,,,,4,1,1.31622200652,,,,,,PLC_L_D1S1,P31,60.0161989566,01,A,2015_Aug_19_1503,X,
stim/posf.jpg,stim/negf.jpg,stim/3.jpg,stim/2.jpg,stim/latef.jpg,EF,1,2,,,,,0,5,5,43,,,,,,,,,,,,,,4,0,0.749774295779,,,,,,PLC_L_D1S1,P31,60.0161989566,01,A,2015_Aug_19_1503,X,
stim/posf.jpg,stim/negf.jpg,stim/3.jpg,stim/2.jpg,stim/latef.jpg,EF,1,2,,,,,0,6,6,45,,,,,,,,,,,,,,4,0,0.583133065416,,,,,,PLC_L_D1S1,P31,60.0161989566,01,A,2015_Aug_19_1503,X,
stim/negf.jpg,stim/posf.jpg,stim/1.jpg,stim/5.jpg,stim/latef.jpg,CD,2,4,,,,,0,7,7,38,,,,,,,,,,,,,,4,1,0.633137764612,,,,,,PLC_L_D1S1,P31,60.0161989566,01,A,2015_Aug_19_1503,X,
stim/posf.jpg,stim/negf.jpg,stim/2.jpg,stim/3.jpg,stim/latef.jpg,EF,2,4,,,,,0,8,8,53,,,,,,,,,,,,,,2,0,0.866365513171,,,,,,PLC_L_D1S1,P31,60.0161989566,01,A,2015_Aug_19_1503,X,
stim/posf.jpg,stim/negf.jpg,stim/6.jpg,stim/4.jpg,stim/latef.jpg,AB,1,2,,,,,0,9,9,2,,,,,,,,,,,,,,2,1,1.06628598926,,,,,,PLC_L_D1S1,P31,60.0161989566,01,A,2015_Aug_19_1503,X,
stim/negf.jpg,stim/posf.jpg,stim/3.jpg,stim/2.jpg,stim/latef.jpg,EF,1,2,,,,,0,10,10,48,,,,,,,,,,,,,,4,0,0.633145818656,,,,,,PLC_L_D1S1,P31,60.0161989566,01,A,2015_Aug_19_1503,X,
stim/posf.jpg,stim/negf.jpg,stim/4.jpg,stim/6.jpg,stim/latef.jpg,AB,2,4,,,,,0,11,11,17,,,,,,,,,,,,,,4,1,0.949668104495,,,,,,PLC_L_D1S1,P31,60.0161989566,01,A,2015_Aug_19_1503,X,
stim/posf.jpg,stim/negf.jpg,stim/1.jpg,stim/5.jpg,stim/latef.jpg,CD,2,4,,,,,0,12,12,34,,,,,,,,,,,,,,4,1,0.666457957241,,,,,,PLC_L_D1S1,P31,60.0161989566,01,A,2015_Aug_19_1503,X,
stim/posf.jpg,stim/negf.jpg,stim/1.jpg,stim/5.jpg,stim/latef.jpg,CD,2,4,,,,,0,13,13,31,,,,,,,,,,,,,,4,1,0.516456003879,,,,,,PLC_L_D1S1,P31,60.0161989566,01,A,2015_Aug_19_1503,X,
stim/posf.jpg,stim/negf.jpg,stim/2.jpg,stim/3.jpg,stim/latef.jpg,EF,2,4,,,,,0,14,14,51,,,,,,,,,,,,,,2,0,0.783050750556,,,,,,PLC_L_D1S1,P31,60.0161989566,01,A,2015_Aug_19_1503,X,
stim/posf.jpg,stim/negf.jpg,stim/2.jpg,stim/3.jpg,stim/latef.jpg,EF,2,4,,,,,0,15,15,54,,,,,,,,,,,,,,2,0,0.699831283106,,,,,,PLC_L_D1S1,P31,60.0161989566,01,A,2015_Aug_19_1503,X,
stim/posf.jpg,stim/negf.jpg,stim/1.jpg,stim/5.jpg,stim/latef.jpg,CD,2,4,,,,,0,16,16,32,,,,,,,,,,,,,,4,1,0.466515147574,,,,,,PLC_L_D1S1,P31,60.0161989566,01,A,2015_Aug_19_1503,X,
stim/posf.jpg,stim/negf.jpg,stim/1.jpg,stim/5.jpg,stim/latef.jpg,CD,2,4,,,,,0,17,17,36,,,,,,,,,,,,,,4,1,0.56648199306,,,,,,PLC_L_D1S1,P31,60.0161989566,01,A,2015_Aug_19_1503,X,
stim/posf.jpg,stim/negf.jpg,stim/5.jpg,stim/1.jpg,stim/latef.jpg,CD,1,2,,,,,0,18,18,23,,,,,,,,,,,,,,2,1,0.549855762529,,,,,,PLC_L_D1S1,P31,60.0161989566,01,A,2015_Aug_19_1503,X,
stim/posf.jpg,stim/negf.jpg,stim/5.jpg,stim/1.jpg,stim/latef.jpg,CD,1,2,,,,,0,19,19,22,,,,,,,,,,,,,,2,1,0.566455578321,,,,,,PLC_L_D1S1,P31,60.0161989566,01,A,2015_Aug_19_1503,X,
stim/posf.jpg,stim/negf.jpg,stim/4.jpg,stim/6.jpg,stim/latef.jpg,AB,2,4,,,,,0,20,20,12,,,,,,,,,,,,,,4,1,0.799730619579,,,,,,PLC_L_D1S1,P31,60.0161989566,01,A,2015_Aug_19_1503,X,
stim/posf.jpg,stim/negf.jpg,stim/1.jpg,stim/5.jpg,stim/latef.jpg,CD,2,4,,,,,0,21,21,35,,,,,,,,,,,,,,4,1,0.599771548441,,,,,,PLC_L_D1S1,P31,60.0161989566,01,A,2015_Aug_19_1503,X,
stim/posf.jpg,stim/negf.jpg,stim/1.jpg,stim/5.jpg,stim/latef.jpg,CD,2,4,,,,,0,22,22,30,,,,,,,,,,,,,,4,1,1.14962898313,,,,,,PLC_L_D1S1,P31,60.0161989566,01,A,2015_Aug_19_1503,X,
stim/posf.jpg,stim/negf.jpg,stim/6.jpg,stim/4.jpg,stim/latef.jpg,AB,1,2,,,,,0,23,23,5,,,,,,,,,,,,,,2,1,0.849696480115,,,,,,PLC_L_D1S1,P31,60.0161989566,01,A,2015_Aug_19_1503,X,
stim/negf.jpg,stim/posf.jpg,stim/6.jpg,stim/4.jpg,stim/latef.jpg,AB,1,2,,,,,0,24,24,9,,,,,,,,,,,,,,2,1,0.916307674725,,,,,,PLC_L_D1S1,P31,60.0161989566,01,A,2015_Aug_19_1503,X,
stim/negf.jpg,stim/posf.jpg,stim/3.jpg,stim/2.jpg,stim/latef.jpg,EF,1,2,,,,,0,25,25,49,,,,,,,,,,,,,,4,0,0.533198900764,,,,,,PLC_L_D1S1,P31,60.0161989566,01,A,2015_Aug_19_1503,X,
stim/negf.jpg,stim/posf.jpg,stim/1.jpg,stim/5.jpg,stim/latef.jpg,CD,2,4,,,,,0,26,26,37,,,,,,,,,,,,,,4,1,0.51653640598,,,,,,PLC_L_D1S1,P31,60.0161989566,01,A,2015_Aug_19_1503,X,
stim/posf.jpg,stim/negf.jpg,stim/5.jpg,stim/1.jpg,stim/latef.jpg,CD,1,2,,,,,0,27,27,26,,,,,,,,,,,,,,2,1,0.533151147919,,,,,,PLC_L_D1S1,P31,60.0161989566,01,A,2015_Aug_19_1503,X,
stim/posf.jpg,stim/negf.jpg,stim/6.jpg,stim/4.jpg,stim/latef.jpg,AB,1,2,,,,,0,28,28,6,,,,,,,,,,,,,,2,1,0.799718060322,,,,,,PLC_L_D1S1,P31,60.0161989566,01,A,2015_Aug_19_1503,X,
stim/negf.jpg,stim/posf.jpg,stim/6.jpg,stim/4.jpg,stim/latef.jpg,AB,1,2,,,,,0,29,29,8,,,,,,,,,,,,,,2,1,0.483208144269,,,,,,PLC_L_D1S1,P31,60.0161989566,01,A,2015_Aug_19_1503,X,
stim/posf.jpg,stim/negf.jpg,stim/2.jpg,stim/3.jpg,stim/latef.jpg,EF,2,4,,,,,0,30,30,50,,,,,,,,,,,,,,2,0,0.666420159171,,,,,,PLC_L_D1S1,P31,60.0161989566,01,A,2015_Aug_19_1503,X,
stim/negf.jpg,stim/posf.jpg,stim/2.jpg,stim/3.jpg,stim/latef.jpg,EF,2,4,,,,,0,31,31,56,,,,,,,,,,,,,,2,0,0.48316510716,,,,,,PLC_L_D1S1,P31,60.0161989566,01,A,2015_Aug_19_1503,X,
stim/posf.jpg,stim/negf.jpg,stim/1.jpg,stim/5.jpg,stim/latef.jpg,CD,2,4,,,,,0,32,32,33,,,,,,,,,,,,,,4,1,0.466458059496,,,,,,PLC_L_D1S1,P31,60.0161989566,01,A,2015_Aug_19_1503,X,
stim/posf.jpg,stim/negf.jpg,stim/6.jpg,stim/4.jpg,stim/latef.jpg,AB,1,2,,,,,0,33,33,7,,,,,,,,,,,,,,2,1,0.549806695413,,,,,,PLC_L_D1S1,P31,60.0161989566,01,A,2015_Aug_19_1503,X,
stim/negf.jpg,stim/posf.jpg,stim/4.jpg,stim/6.jpg,stim/latef.jpg,AB,2,4,,,,,0,34,34,18,,,,,,,,,,,,,,4,1,0.49985538509,,,,,,PLC_L_D1S1,P31,60.0161989566,01,A,2015_Aug_19_1503,X,
stim/posf.jpg,stim/negf.jpg,stim/3.jpg,stim/2.jpg,stim/latef.jpg,EF,1,2,,,,,0,35,35,44,,,,,,,,,,,,,,4,0,0.483133417292,,,,,,PLC_L_D1S1,P31,60.0161989566,01,A,2015_Aug_19_1503,X,
stim/negf.jpg,stim/posf.jpg,stim/2.jpg,stim/3.jpg,stim/latef.jpg,EF,2,4,,,,,0,36,36,57,,,,,,,,,,,,,,2,0,0.616496256057,,,,,,PLC_L_D1S1,P31,60.0161989566,01,A,2015_Aug_19_1503,X,
stim/negf.jpg,stim/posf.jpg,stim/3.jpg,stim/2.jpg,stim/latef.jpg,EF,1,2,,,,,0,37,37,47,,,,,,,,,,,,,,4,0,0.499845893467,,,,,,PLC_L_D1S1,P31,60.0161989566,01,A,2015_Aug_19_1503,X,
stim/posf.jpg,stim/negf.jpg,stim/4.jpg,stim/6.jpg,stim/latef.jpg,AB,2,4,,,,,0,38,38,15,,,,,,,,,,,,,,4,1,1.09963523118,,,,,,PLC_L_D1S1,P31,60.0161989566,01,A,2015_Aug_19_1503,X,
stim/negf.jpg,stim/posf.jpg,stim/4.jpg,stim/6.jpg,stim/latef.jpg,AB,2,4,,,,,0,39,39,19,,,,,,,,,,,,,,4,1,0.499754192246,,,,,,PLC_L_D1S1,P31,60.0161989566,01,A,2015_Aug_19_1503,X,
stim/posf.jpg,stim/negf.jpg,stim/3.jpg,stim/2.jpg,stim/latef.jpg,EF,1,2,,,,,0,40,40,40,,,,,,,,,,,,,,4,0,0.549835431931,,,,,,PLC_L_D1S1,P31,60.0161989566,01,A,2015_Aug_19_1503,X,
stim/posf.jpg,stim/negf.jpg,stim/2.jpg,stim/3.jpg,stim/latef.jpg,EF,2,4,,,,,0,41,41,55,,,,,,,,,,,,,,2,0,0.54981642162,,,,,,PLC_L_D1S1,P31,60.0161989566,01,A,2015_Aug_19_1503,X,
stim/posf.jpg,stim/negf.jpg,stim/5.jpg,stim/1.jpg,stim/latef.jpg,CD,1,2,,,,,0,42,42,20,,,,,,,,,,,,,,2,1,0.616452557302,,,,,,PLC_L_D1S1,P31,60.0161989566,01,A,2015_Aug_19_1503,X,
stim/posf.jpg,stim/negf.jpg,stim/5.jpg,stim/1.jpg,stim/latef.jpg,CD,1,2,,,,,0,43,43,25,,,,,,,,,,,,,,2,1,0.483215602832,,,,,,PLC_L_D1S1,P31,60.0161989566,01,A,2015_Aug_19_1503,X,
stim/posf.jpg,stim/negf.jpg,stim/6.jpg,stim/4.jpg,stim/latef.jpg,AB,1,2,,,,,0,44,44,4,,,,,,,,,,,,,,2,1,0.466495391405,,,,,,PLC_L_D1S1,P31,60.0161989566,01,A,2015_Aug_19_1503,X,
stim/negf.jpg,stim/posf.jpg,stim/5.jpg,stim/1.jpg,stim/latef.jpg,CD,1,2,,,,,0,45,45,27,,,,,,,,,,,,,,2,1,0.633113843077,,,,,,PLC_L_D1S1,P31,60.0161989566,01,A,2015_Aug_19_1503,X,
stim/posf.jpg,stim/negf.jpg,stim/6.jpg,stim/4.jpg,stim/latef.jpg,AB,1,2,,,,,0,46,46,3,,,,,,,,,,,,,,2,1,0.499868810502,,,,,,PLC_L_D1S1,P31,60.0161989566,01,A,2015_Aug_19_1503,X,
stim/posf.jpg,stim/negf.jpg,stim/3.jpg,stim/2.jpg,stim/latef.jpg,EF,1,2,,,,,0,47,47,42,,,,,,,,,,,,,,4,0,0.599801430811,,,,,,PLC_L_D1S1,P31,60.0161989566,01,A,2015_Aug_19_1503,X,
stim/posf.jpg,stim/negf.jpg,stim/4.jpg,stim/6.jpg,stim/latef.jpg,AB,2,4,,,,,0,48,48,13,,,,,,,,,,,,,,4,1,0.749705343173,,,,,,PLC_L_D1S1,P31,60.0161989566,01,A,2015_Aug_19_1503,X,
stim/posf.jpg,stim/negf.jpg,stim/2.jpg,stim/3.jpg,stim/latef.jpg,EF,2,4,,,,,0,49,49,52,,,,,,,,,,,,,,2,0,0.549801191716,,,,,,PLC_L_D1S1,P31,60.0161989566,01,A,2015_Aug_19_1503,X,
stim/posf.jpg,stim/negf.jpg,stim/6.jpg,stim/4.jpg,stim/latef.jpg,AB,1,2,,,,,0,50,50,0,,,,,,,,,,,,,,2,1,0.533173186769,,,,,,PLC_L_D1S1,P31,60.0161989566,01,A,2015_Aug_19_1503,X,
stim/posf.jpg,stim/negf.jpg,stim/4.jpg,stim/6.jpg,stim/latef.jpg,AB,2,4,,,,,0,51,51,11,,,,,,,,,,,,,,4,1,0.549793582779,,,,,,PLC_L_D1S1,P31,60.0161989566,01,A,2015_Aug_19_1503,X,
stim/posf.jpg,stim/negf.jpg,stim/6.jpg,stim/4.jpg,stim/latef.jpg,AB,1,2,,,,,0,52,52,1,,,,,,,,,,,,,,2,1,0.433172570234,,,,,,PLC_L_D1S1,P31,60.0161989566,01,A,2015_Aug_19_1503,X,
stim/posf.jpg,stim/negf.jpg,stim/3.jpg,stim/2.jpg,stim/latef.jpg,EF,1,2,,,,,0,53,53,41,,,,,,,,,,,,,,4,0,0.466489851618,,,,,,PLC_L_D1S1,P31,60.0161989566,01,A,2015_Aug_19_1503,X,
stim/posf.jpg,stim/negf.jpg,stim/5.jpg,stim/1.jpg,stim/latef.jpg,CD,1,2,,,,,0,54,54,24,,,,,,,,,,,,,,2,1,0.616472520986,,,,,,PLC_L_D1S1,P31,60.0161989566,01,A,2015_Aug_19_1503,X,
stim/negf.jpg,stim/posf.jpg,stim/5.jpg,stim/1.jpg,stim/latef.jpg,CD,1,2,,,,,0,55,55,29,,,,,,,,,,,,,,2,1,0.49981747875,,,,,,PLC_L_D1S1,P31,60.0161989566,01,A,2015_Aug_19_1503,X,
stim/negf.jpg,stim/posf.jpg,stim/5.jpg,stim/1.jpg,stim/latef.jpg,CD,1,2,,,,,0,56,56,28,,,,,,,,,,,,,,2,1,0.499871845054,,,,,,PLC_L_D1S1,P31,60.0161989566,01,A,2015_Aug_19_1503,X,
stim/posf.jpg,stim/negf.jpg,stim/4.jpg,stim/6.jpg,stim/latef.jpg,AB,2,4,,,,,0,57,57,14,,,,,,,,,,,,,,4,1,0.816441982985,,,,,,PLC_L_D1S1,P31,60.0161989566,01,A,2015_Aug_19_1503,X,
stim/negf.jpg,stim/posf.jpg,stim/1.jpg,stim/5.jpg,stim/latef.jpg,CD,2,4,,,,,0,58,58,39,,,,,,,,,,,,,,4,1,0.566530615069,,,,,,PLC_L_D1S1,P31,60.0161989566,01,A,2015_Aug_19_1503,X,
stim/posf.jpg,stim/negf.jpg,stim/4.jpg,stim/6.jpg,stim/latef.jpg,AB,2,4,,,,,0,59,59,10,,,,,,,,,,,,,,4,1,0.849690534317,,,,,,PLC_L_D1S1,P31,60.0161989566,01,A,2015_Aug_19_1503,X,
,,,,,,,,,,,,,,,,,,,,,,,,,,,,,,,,0.9984375,1.0,1,0,0,PLC_L_D1S1,P31,60.0161989566,01,A,2015_Aug_19_1503,X,
stim/negf.jpg,stim/posf.jpg,stim/6.jpg,stim/4.jpg,stim/latef.jpg,AB,1,2,,,,,,,,,0,0,0,8,,,,,,,,,,2,1,0.649807558561,,,,,,PLC_L_D1S1,P31,60.0161989566,01,A,2015_Aug_19_1503,X,
stim/posf.jpg,stim/negf.jpg,stim/1.jpg,stim/5.jpg,stim/latef.jpg,CD,2,4,,,,,,,,,0,1,1,30,,,,,,,,,,4,1,0.516542198396,,,,,,PLC_L_D1S1,P31,60.0161989566,01,A,2015_Aug_19_1503,X,
stim/posf.jpg,stim/negf.jpg,stim/3.jpg,stim/2.jpg,stim/latef.jpg,EF,1,2,,,,,,,,,0,2,2,42,,,,,,,,,,4,0,0.716432247757,,,,,,PLC_L_D1S1,P31,60.0161989566,01,A,2015_Aug_19_1503,X,
stim/negf.jpg,stim/posf.jpg,stim/3.jpg,stim/2.jpg,stim/latef.jpg,EF,1,2,,,,,,,,,0,3,3,46,,,,,,,,,,4,0,0.499853201656,,,,,,PLC_L_D1S1,P31,60.0161989566,01,A,2015_Aug_19_1503,X,
stim/posf.jpg,stim/negf.jpg,stim/6.jpg,stim/4.jpg,stim/latef.jpg,AB,1,2,,,,,,,,,0,4,4,5,,,,,,,,,,2,1,0.549786704661,,,,,,PLC_L_D1S1,P31,60.0161989566,01,A,2015_Aug_19_1503,X,
stim/negf.jpg,stim/posf.jpg,stim/1.jpg,stim/5.jpg,stim/latef.jpg,CD,2,4,,,,,,,,,0,5,5,39,,,,,,,,,,4,1,0.499814540437,,,,,,PLC_L_D1S1,P31,60.0161989566,01,A,2015_Aug_19_1503,X,
stim/posf.jpg,stim/negf.jpg,stim/5.jpg,stim/1.jpg,stim/latef.jpg,CD,1,2,,,,,,,,,0,6,6,23,,,,,,,,,,2,1,0.666492272644,,,,,,PLC_L_D1S1,P31,60.0161989566,01,A,2015_Aug_19_1503,X,
stim/negf.jpg,stim/posf.jpg,stim/2.jpg,stim/3.jpg,stim/latef.jpg,EF,2,4,,,,,,,,,0,7,7,57,,,,,,,,,,2,0,0.916341379608,,,,,,PLC_L_D1S1,P31,60.0161989566,01,A,2015_Aug_19_1503,X,
stim/posf.jpg,stim/negf.jpg,stim/6.jpg,stim/4.jpg,stim/latef.jpg,AB,1,2,,,,,,,,,0,8,8,7,,,,,,,,,,2,1,0.616457775288,,,,,,PLC_L_D1S1,P31,60.0161989566,01,A,2015_Aug_19_1503,X,
stim/negf.jpg,stim/posf.jpg,stim/3.jpg,stim/2.jpg,stim/latef.jpg,EF,1,2,,,,,,,,,0,9,9,47,,,,,,,,,,4,0,0.449854321943,,,,,,PLC_L_D1S1,P31,60.0161989566,01,A,2015_Aug_19_1503,X,
stim/posf.jpg,stim/negf.jpg,stim/6.jpg,stim/4.jpg,stim/latef.jpg,AB,1,2,,,,,,,,,0,10,10,1,,,,,,,,,,2,1,0.516497546268,,,,,,PLC_L_D1S1,P31,60.0161989566,01,A,2015_Aug_19_1503,X,
stim/posf.jpg,stim/negf.jpg,stim/3.jpg,stim/2.jpg,stim/latef.jpg,EF,1,2,,,,,,,,,0,11,11,40,,,,,,,,,,4,0,0.549848403214,,,,,,PLC_L_D1S1,P31,60.0161989566,01,A,2015_Aug_19_1503,X,
stim/negf.jpg,stim/posf.jpg,stim/5.jpg,stim/1.jpg,stim/latef.jpg,CD,1,2,,,,,,,,,0,12,12,29,,,,,,,,,,2,1,0.633016292297,,,,,,PLC_L_D1S1,P31,60.0161989566,01,A,2015_Aug_19_1503,X,
stim/posf.jpg,stim/negf.jpg,stim/2.jpg,stim/3.jpg,stim/latef.jpg,EF,2,4,,,,,,,,,0,13,13,52,,,,,,,,,,2,0,1.1828934621,,,,,,PLC_L_D1S1,P31,60.0161989566,01,A,2015_Aug_19_1503,X,
stim/negf.jpg,stim/posf.jpg,stim/4.jpg,stim/6.jpg,stim/latef.jpg,AB,2,4,,,,,,,,,0,14,14,18,,,,,,,,,,4,1,0.566476083352,,,,,,PLC_L_D1S1,P31,60.0161989566,01,A,2015_Aug_19_1503,X,
stim/negf.jpg,stim/posf.jpg,stim/2.jpg,stim/3.jpg,stim/latef.jpg,EF,2,4,,,,,,,,,0,15,15,59,,,,,,,,,,2,0,0.583146289327,,,,,,PLC_L_D1S1,P31,60.0161989566,01,A,2015_Aug_19_1503,X,
stim/negf.jpg,stim/posf.jpg,stim/3.jpg,stim/2.jpg,stim/latef.jpg,EF,1,2,,,,,,,,,0,16,16,48,,,,,,,,,,4,0,0.699834690587,,,,,,PLC_L_D1S1,P31,60.0161989566,01,A,2015_Aug_19_1503,X,
stim/posf.jpg,stim/negf.jpg,stim/5.jpg,stim/1.jpg,stim/latef.jpg,CD,1,2,,,,,,,,,0,17,17,22,,,,,,,,,,2,1,0.666443584471,,,,,,PLC_L_D1S1,P31,60.0161989566,01,A,2015_Aug_19_1503,X,
stim/posf.jpg,stim/negf.jpg,stim/2.jpg,stim/3.jpg,stim/latef.jpg,EF,2,4,,,,,,,,,0,18,18,54,,,,,,,,,,2,0,0.716417438901,,,,,,PLC_L_D1S1,P31,60.0161989566,01,A,2015_Aug_19_1503,X,
stim/posf.jpg,stim/negf.jpg,stim/3.jpg,stim/2.jpg,stim/latef.jpg,EF,1,2,,,,,,,,,0,19,19,45,,,,,,,,,,4,0,0.549820671195,,,,,,PLC_L_D1S1,P31,60.0161989566,01,A,2015_Aug_19_1503,X,
stim/posf.jpg,stim/negf.jpg,stim/1.jpg,stim/5.jpg,stim/latef.jpg,CD,2,4,,,,,,,,,0,20,20,34,,,,,,,,,,4,1,0.783077472058,,,,,,PLC_L_D1S1,P31,60.0161989566,01,A,2015_Aug_19_1503,X,
stim/negf.jpg,stim/posf.jpg,stim/2.jpg,stim/3.jpg,stim/latef.jpg,EF,2,4,,,,,,,,,0,21,21,58,,,,,,,,,,2,0,0.716396651166,,,,,,PLC_L_D1S1,P31,60.0161989566,01,A,2015_Aug_19_1503,X,
stim/posf.jpg,stim/negf.jpg,stim/1.jpg,stim/5.jpg,stim/latef.jpg,CD,2,4,,,,,,,,,0,22,22,35,,,,,,,,,,4,1,0.51642156517,,,,,,PLC_L_D1S1,P31,60.0161989566,01,A,2015_Aug_19_1503,X,
stim/posf.jpg,stim/negf.jpg,stim/6.jpg,stim/4.jpg,stim/latef.jpg,AB,1,2,,,,,,,,,0,23,23,3,,,,,,,,,,2,1,0.783078494604,,,,,,PLC_L_D1S1,P31,60.0161989566,01,A,2015_Aug_19_1503,X,
stim/posf.jpg,stim/negf.jpg,stim/3.jpg,stim/2.jpg,stim/latef.jpg,EF,1,2,,,,,,,,,0,24,24,43,,,,,,,,,,4,0,0.483161690658,,,,,,PLC_L_D1S1,P31,60.0161989566,01,A,2015_Aug_19_1503,X,
stim/posf.jpg,stim/negf.jpg,stim/4.jpg,stim/6.jpg,stim/latef.jpg,AB,2,4,,,,,,,,,0,25,25,17,,,,,,,,,,2,0,0.599814492318,,,,,,PLC_L_D1S1,P31,60.0161989566,01,A,2015_Aug_19_1503,X,
stim/posf.jpg,stim/negf.jpg,stim/6.jpg,stim/4.jpg,stim/latef.jpg,AB,1,2,,,,,,,,,0,26,26,4,,,,,,,,,,2,1,0.599775695763,,,,,,PLC_L_D1S1,P31,60.0161989566,01,A,2015_Aug_19_1503,X,
stim/negf.jpg,stim/posf.jpg,stim/3.jpg,stim/2.jpg,stim/latef.jpg,EF,1,2,,,,,,,,,0,27,27,49,,,,,,,,,,4,0,0.499823286204,,,,,,PLC_L_D1S1,P31,60.0161989566,01,A,2015_Aug_19_1503,X,
stim/posf.jpg,stim/negf.jpg,stim/4.jpg,stim/6.jpg,stim/latef.jpg,AB,2,4,,,,,,,,,0,28,28,16,,,,,,,,,,4,1,0.533154952388,,,,,,PLC_L_D1S1,P31,60.0161989566,01,A,2015_Aug_19_1503,X,
stim/posf.jpg,stim/negf.jpg,stim/2.jpg,stim/3.jpg,stim/latef.jpg,EF,2,4,,,,,,,,,0,29,29,50,,,,,,,,,,2,0,0.599808814186,,,,,,PLC_L_D1S1,P31,60.0161989566,01,A,2015_Aug_19_1503,X,
stim/negf.jpg,stim/posf.jpg,stim/6.jpg,stim/4.jpg,stim/latef.jpg,AB,1,2,,,,,,,,,0,30,30,9,,,,,,,,,,2,1,0.566468931553,,,,,,PLC_L_D1S1,P31,60.0161989566,01,A,2015_Aug_19_1503,X,
stim/negf.jpg,stim/posf.jpg,stim/2.jpg,stim/3.jpg,stim/latef.jpg,EF,2,4,,,,,,,,,0,31,31,56,,,,,,,,,,2,0,0.516514998703,,,,,,PLC_L_D1S1,P31,60.0161989566,01,A,2015_Aug_19_1503,X,
stim/posf.jpg,stim/negf.jpg,stim/4.jpg,stim/6.jpg,stim/latef.jpg,AB,2,4,,,,,,,,,0,32,32,12,,,,,,,,,,4,1,0.533154206532,,,,,,PLC_L_D1S1,P31,60.0161989566,01,A,2015_Aug_19_1503,X,
stim/negf.jpg,stim/posf.jpg,stim/5.jpg,stim/1.jpg,stim/latef.jpg,CD,1,2,,,,,,,,,0,33,33,28,,,,,,,,,,2,1,0.599801927046,,,,,,PLC_L_D1S1,P31,60.0161989566,01,A,2015_Aug_19_1503,X,
stim/posf.jpg,stim/negf.jpg,stim/3.jpg,stim/2.jpg,stim/latef.jpg,EF,1,2,,,,,,,,,0,34,34,41,,,,,,,,,,4,0,0.566470964613,,,,,,PLC_L_D1S1,P31,60.0161989566,01,A,2015_Aug_19_1503,X,
stim/posf.jpg,stim/negf.jpg,stim/1.jpg,stim/5.jpg,stim/latef.jpg,CD,2,4,,,,,,,,,0,35,35,31,,,,,,,,,,4,1,0.516533606012,,,,,,PLC_L_D1S1,P31,60.0161989566,01,A,2015_Aug_19_1503,X,
stim/posf.jpg,stim/negf.jpg,stim/6.jpg,stim/4.jpg,stim/latef.jpg,AB,1,2,,,,,,,,,0,36,36,0,,,,,,,,,,2,1,0.833059239181,,,,,,PLC_L_D1S1,P31,60.0161989566,01,A,2015_Aug_19_1503,X,
stim/posf.jpg,stim/negf.jpg,stim/5.jpg,stim/1.jpg,stim/latef.jpg,CD,1,2,,,,,,,,,0,37,37,20,,,,,,,,,,2,1,0.983021860656,,,,,,PLC_L_D1S1,P31,60.0161989566,01,A,2015_Aug_19_1503,X,
stim/negf.jpg,stim/posf.jpg,stim/5.jpg,stim/1.jpg,stim/latef.jpg,CD,1,2,,,,,,,,,0,38,38,27,,,,,,,,,,2,1,0.549816286283,,,,,,PLC_L_D1S1,P31,60.0161989566,01,A,2015_Aug_19_1503,X,
stim/posf.jpg,stim/negf.jpg,stim/4.jpg,stim/6.jpg,stim/latef.jpg,AB,2,4,,,,,,,,,0,39,39,14,,,,,,,,,,4,1,0.616427901941,,,,,,PLC_L_D1S1,P31,60.0161989566,01,A,2015_Aug_19_1503,X,
stim/posf.jpg,stim/negf.jpg,stim/1.jpg,stim/5.jpg,stim/latef.jpg,CD,2,4,,,,,,,,,0,40,40,33,,,,,,,,,,4,1,0.499827659087,,,,,,PLC_L_D1S1,P31,60.0161989566,01,A,2015_Aug_19_1503,X,
stim/posf.jpg,stim/negf.jpg,stim/4.jpg,stim/6.jpg,stim/latef.jpg,AB,2,4,,,,,,,,,0,41,41,15,,,,,,,,,,4,1,0.799728869223,,,,,,PLC_L_D1S1,P31,60.0161989566,01,A,2015_Aug_19_1503,X,
stim/negf.jpg,stim/posf.jpg,stim/1.jpg,stim/5.jpg,stim/latef.jpg,CD,2,4,,,,,,,,,0,42,42,38,,,,,,,,,,4,1,0.599772035654,,,,,,PLC_L_D1S1,P31,60.0161989566,01,A,2015_Aug_19_1503,X,
stim/posf.jpg,stim/negf.jpg,stim/1.jpg,stim/5.jpg,stim/latef.jpg,CD,2,4,,,,,,,,,0,43,43,36,,,,,,,,,,4,1,0.566465948129,,,,,,PLC_L_D1S1,P31,60.0161989566,01,A,2015_Aug_19_1503,X,
stim/posf.jpg,stim/negf.jpg,stim/5.jpg,stim/1.jpg,stim/latef.jpg,CD,1,2,,,,,,,,,0,44,44,26,,,,,,,,,,2,1,0.64979739627,,,,,,PLC_L_D1S1,P31,60.0161989566,01,A,2015_Aug_19_1503,X,
stim/posf.jpg,stim/negf.jpg,stim/5.jpg,stim/1.jpg,stim/latef.jpg,CD,1,2,,,,,,,,,0,45,45,21,,,,,,,,,,2,1,0.649788406898,,,,,,PLC_L_D1S1,P31,60.0161989566,01,A,2015_Aug_19_1503,X,
stim/negf.jpg,stim/posf.jpg,stim/4.jpg,stim/6.jpg,stim/latef.jpg,AB,2,4,,,,,,,,,0,46,46,19,,,,,,,,,,4,1,0.583204550324,,,,,,PLC_L_D1S1,P31,60.0161989566,01,A,2015_Aug_19_1503,X,
stim/negf.jpg,stim/posf.jpg,stim/1.jpg,stim/5.jpg,stim/latef.jpg,CD,2,4,,,,,,,,,0,47,47,37,,,,,,,,,,4,1,0.566450727247,,,,,,PLC_L_D1S1,P31,60.0161989566,01,A,2015_Aug_19_1503,X,
stim/posf.jpg,stim/negf.jpg,stim/4.jpg,stim/6.jpg,stim/latef.jpg,AB,2,4,,,,,,,,,0,48,48,10,,,,,,,,,,4,1,0.466526269252,,,,,,PLC_L_D1S1,P31,60.0161989566,01,A,2015_Aug_19_1503,X,
stim/posf.jpg,stim/negf.jpg,stim/4.jpg,stim/6.jpg,stim/latef.jpg,AB,2,4,,,,,,,,,0,49,49,13,,,,,,,,,,4,1,0.633136844321,,,,,,PLC_L_D1S1,P31,60.0161989566,01,A,2015_Aug_19_1503,X,
stim/posf.jpg,stim/negf.jpg,stim/6.jpg,stim/4.jpg,stim/latef.jpg,AB,1,2,,,,,,,,,0,50,50,2,,,,,,,,,,2,1,0.599787494126,,,,,,PLC_L_D1S1,P31,60.0161989566,01,A,2015_Aug_19_1503,X,
stim/posf.jpg,stim/negf.jpg,stim/2.jpg,stim/3.jpg,stim/latef.jpg,EF,2,4,,,,,,,,,0,51,51,55,,,,,,,,,,2,0,1.03300796457,,,,,,PLC_L_D1S1,P31,60.0161989566,01,A,2015_Aug_19_1503,X,
stim/posf.jpg,stim/negf.jpg,stim/3.jpg,stim/2.jpg,stim/latef.jpg,EF,1,2,,,,,,,,,0,52,52,44,,,,,,,,,,4,0,0.649781549832,,,,,,PLC_L_D1S1,P31,60.0161989566,01,A,2015_Aug_19_1503,X,
stim/posf.jpg,stim/negf.jpg,stim/2.jpg,stim/3.jpg,stim/latef.jpg,EF,2,4,,,,,,,,,0,53,53,51,,,,,,,,,,2,0,0.499835722154,,,,,,PLC_L_D1S1,P31,60.0161989566,01,A,2015_Aug_19_1503,X,
stim/posf.jpg,stim/negf.jpg,stim/5.jpg,stim/1.jpg,stim/latef.jpg,CD,1,2,,,,,,,,,0,54,54,25,,,,,,,,,,2,1,0.616455158776,,,,,,PLC_L_D1S1,P31,60.0161989566,01,A,2015_Aug_19_1503,X,
stim/posf.jpg,stim/negf.jpg,stim/1.jpg,stim/5.jpg,stim/latef.jpg,CD,2,4,,,,,,,,,0,55,55,32,,,,,,,,,,4,1,0.499825409488,,,,,,PLC_L_D1S1,P31,60.0161989566,01,A,2015_Aug_19_1503,X,
stim/posf.jpg,stim/negf.jpg,stim/5.jpg,stim/1.jpg,stim/latef.jpg,CD,1,2,,,,,,,,,0,56,56,24,,,,,,,,,,2,1,0.48312837374,,,,,,PLC_L_D1S1,P31,60.0161989566,01,A,2015_Aug_19_1503,X,
stim/posf.jpg,stim/negf.jpg,stim/2.jpg,stim/3.jpg,stim/latef.jpg,EF,2,4,,,,,,,,,0,57,57,53,,,,,,,,,,2,0,0.699753076469,,,,,,PLC_L_D1S1,P31,60.0161989566,01,A,2015_Aug_19_1503,X,
stim/posf.jpg,stim/negf.jpg,stim/4.jpg,stim/6.jpg,stim/latef.jpg,AB,2,4,,,,,,,,,0,58,58,11,,,,,,,,,,4,1,0.699794510588,,,,,,PLC_L_D1S1,P31,60.0161989566,01,A,2015_Aug_19_1503,X,
stim/posf.jpg,stim/negf.jpg,stim/6.jpg,stim/4.jpg,stim/latef.jpg,AB,1,2,,,,,,,,,0,59,59,6,,,,,,,,,,2,1,0.733105807077,,,,,,PLC_L_D1S1,P31,60.0161989566,01,A,2015_Aug_19_1503,X,
,,,,,,,,,,,,,,,,,,,,,,,,,,,,,,,,0.996875,1.0,1,0,0,PLC_L_D1S1,P31,60.0161989566,01,A,2015_Aug_19_1503,X,
stim/posf.jpg,stim/negf.jpg,stim/2.jpg,stim/3.jpg,stim/latef.jpg,EF,2,4,,,,,,,,,,,,,0,0,0,55,,,,,,2,0,0.699768270283,,,,,,PLC_L_D1S1,P31,60.0161989566,01,A,2015_Aug_19_1503,X,
stim/negf.jpg,stim/posf.jpg,stim/2.jpg,stim/3.jpg,stim/latef.jpg,EF,2,4,,,,,,,,,,,,,0,1,1,59,,,,,,2,0,0.466518137013,,,,,,PLC_L_D1S1,P31,60.0161989566,01,A,2015_Aug_19_1503,X,
stim/posf.jpg,stim/negf.jpg,stim/3.jpg,stim/2.jpg,stim/latef.jpg,EF,1,2,,,,,,,,,,,,,0,2,2,41,,,,,,4,0,0.949681553967,,,,,,PLC_L_D1S1,P31,60.0161989566,01,A,2015_Aug_19_1503,X,
stim/posf.jpg,stim/negf.jpg,stim/1.jpg,stim/5.jpg,stim/latef.jpg,CD,2,4,,,,,,,,,,,,,0,3,3,32,,,,,,4,1,0.666430844765,,,,,,PLC_L_D1S1,P31,60.0161989566,01,A,2015_Aug_19_1503,X,
stim/posf.jpg,stim/negf.jpg,stim/2.jpg,stim/3.jpg,stim/latef.jpg,EF,2,4,,,,,,,,,,,,,0,4,4,54,,,,,,2,0,0.683155621553,,,,,,PLC_L_D1S1,P31,60.0161989566,01,A,2015_Aug_19_1503,X,
stim/posf.jpg,stim/negf.jpg,stim/5.jpg,stim/1.jpg,stim/latef.jpg,CD,1,2,,,,,,,,,,,,,0,5,5,20,,,,,,2,1,0.74976853043,,,,,,PLC_L_D1S1,P31,60.0161989566,01,A,2015_Aug_19_1503,X,
stim/negf.jpg,stim/posf.jpg,stim/1.jpg,stim/5.jpg,stim/latef.jpg,CD,2,4,,,,,,,,,,,,,0,6,6,37,,,,,,4,1,0.66644173186,,,,,,PLC_L_D1S1,P31,60.0161989566,01,A,2015_Aug_19_1503,X,
stim/posf.jpg,stim/negf.jpg,stim/2.jpg,stim/3.jpg,stim/latef.jpg,EF,2,4,,,,,,,,,,,,,0,7,7,52,,,,,,2,0,0.666379958121,,,,,,PLC_L_D1S1,P31,60.0161989566,01,A,2015_Aug_19_1503,X,
stim/posf.jpg,stim/negf.jpg,stim/5.jpg,stim/1.jpg,stim/latef.jpg,CD,1,2,,,,,,,,,,,,,0,8,8,21,,,,,,2,1,0.583125943692,,,,,,PLC_L_D1S1,P31,60.0161989566,01,A,2015_Aug_19_1503,X,
stim/posf.jpg,stim/negf.jpg,stim/3.jpg,stim/2.jpg,stim/latef.jpg,EF,1,2,,,,,,,,,,,,,0,9,9,44,,,,,,4,0,0.866382141555,,,,,,PLC_L_D1S1,P31,60.0161989566,01,A,2015_Aug_19_1503,X,
stim/posf.jpg,stim/negf.jpg,stim/2.jpg,stim/3.jpg,stim/latef.jpg,EF,2,4,,,,,,,,,,,,,0,10,10,50,,,,,,2,0,0.5330957711,,,,,,PLC_L_D1S1,P31,60.0161989566,01,A,2015_Aug_19_1503,X,
stim/posf.jpg,stim/negf.jpg,stim/4.jpg,stim/6.jpg,stim/latef.jpg,AB,2,4,,,,,,,,,,,,,0,11,11,11,,,,,,4,1,0.749701607877,,,,,,PLC_L_D1S1,P31,60.0161989566,01,A,2015_Aug_19_1503,X,
stim/posf.jpg,stim/negf.jpg,stim/6.jpg,stim/4.jpg,stim/latef.jpg,AB,1,2,,,,,,,,,,,,,0,12,12,1,,,,,,2,1,0.666468784187,,,,,,PLC_L_D1S1,P31,60.0161989566,01,A,2015_Aug_19_1503,X,
stim/posf.jpg,stim/negf.jpg,stim/3.jpg,stim/2.jpg,stim/latef.jpg,EF,1,2,,,,,,,,,,,,,0,13,13,45,,,,,,4,0,0.899637393563,,,,,,PLC_L_D1S1,P31,60.0161989566,01,A,2015_Aug_19_1503,X,
stim/posf.jpg,stim/negf.jpg,stim/6.jpg,stim/4.jpg,stim/latef.jpg,AB,1,2,,,,,,,,,,,,,0,14,14,5,,,,,,2,1,0.716478427687,,,,,,PLC_L_D1S1,P31,60.0161989566,01,A,2015_Aug_19_1503,X,
stim/posf.jpg,stim/negf.jpg,stim/1.jpg,stim/5.jpg,stim/latef.jpg,CD,2,4,,,,,,,,,,,,,0,15,15,34,,,,,,4,1,0.88302146066,,,,,,PLC_L_D1S1,P31,60.0161989566,01,A,2015_Aug_19_1503,X,
stim/posf.jpg,stim/negf.jpg,stim/1.jpg,stim/5.jpg,stim/latef.jpg,CD,2,4,,,,,,,,,,,,,0,16,16,31,,,,,,4,1,0.583112040089,,,,,,PLC_L_D1S1,P31,60.0161989566,01,A,2015_Aug_19_1503,X,
stim/posf.jpg,stim/negf.jpg,stim/5.jpg,stim/1.jpg,stim/latef.jpg,CD,1,2,,,,,,,,,,,,,0,17,17,25,,,,,,2,1,0.649779916768,,,,,,PLC_L_D1S1,P31,60.0161989566,01,A,2015_Aug_19_1503,X,
stim/negf.jpg,stim/posf.jpg,stim/1.jpg,stim/5.jpg,stim/latef.jpg,CD,2,4,,,,,,,,,,,,,0,18,18,38,,,,,,4,1,0.566436252223,,,,,,PLC_L_D1S1,P31,60.0161989566,01,A,2015_Aug_19_1503,X,
stim/negf.jpg,stim/posf.jpg,stim/6.jpg,stim/4.jpg,stim/latef.jpg,AB,1,2,,,,,,,,,,,,,0,19,19,9,,,,,,2,1,0.566487752394,,,,,,PLC_L_D1S1,P31,60.0161989566,01,A,2015_Aug_19_1503,X,
stim/posf.jpg,stim/negf.jpg,stim/4.jpg,stim/6.jpg,stim/latef.jpg,AB,2,4,,,,,,,,,,,,,0,20,20,10,,,,,,4,1,1.39956225155,,,,,,PLC_L_D1S1,P31,60.0161989566,01,A,2015_Aug_19_1503,X,
stim/negf.jpg,stim/posf.jpg,stim/1.jpg,stim/5.jpg,stim/latef.jpg,CD,2,4,,,,,,,,,,,,,0,21,21,39,,,,,,4,1,0.566475773582,,,,,,PLC_L_D1S1,P31,60.0161989566,01,A,2015_Aug_19_1503,X,
stim/posf.jpg,stim/negf.jpg,stim/3.jpg,stim/2.jpg,stim/latef.jpg,EF,1,2,,,,,,,,,,,,,0,22,22,43,,,,,,4,0,0.549795985759,,,,,,PLC_L_D1S1,P31,60.0161989566,01,A,2015_Aug_19_1503,X,
stim/posf.jpg,stim/negf.jpg,stim/6.jpg,stim/4.jpg,stim/latef.jpg,AB,1,2,,,,,,,,,,,,,0,23,23,6,,,,,,2,1,0.616461309083,,,,,,PLC_L_D1S1,P31,60.0161989566,01,A,2015_Aug_19_1503,X,
stim/posf.jpg,stim/negf.jpg,stim/6.jpg,stim/4.jpg,stim/latef.jpg,AB,1,2,,,,,,,,,,,,,0,24,24,2,,,,,,2,1,0.599804035293,,,,,,PLC_L_D1S1,P31,60.0161989566,01,A,2015_Aug_19_1503,X,
stim/posf.jpg,stim/negf.jpg,stim/1.jpg,stim/5.jpg,stim/latef.jpg,CD,2,4,,,,,,,,,,,,,0,25,25,35,,,,,,4,1,0.616420714052,,,,,,PLC_L_D1S1,P31,60.0161989566,01,A,2015_Aug_19_1503,X,
stim/negf.jpg,stim/posf.jpg,stim/2.jpg,stim/3.jpg,stim/latef.jpg,EF,2,4,,,,,,,,,,,,,0,26,26,56,,,,,,2,0,0.63312771059,,,,,,PLC_L_D1S1,P31,60.0161989566,01,A,2015_Aug_19_1503,X,
stim/negf.jpg,stim/posf.jpg,stim/3.jpg,stim/2.jpg,stim/latef.jpg,EF,1,2,,,,,,,,,,,,,0,27,27,47,,,,,,4,0,0.483178719037,,,,,,PLC_L_D1S1,P31,60.0161989566,01,A,2015_Aug_19_1503,X,
stim/posf.jpg,stim/negf.jpg,stim/6.jpg,stim/4.jpg,stim/latef.jpg,AB,1,2,,,,,,,,,,,,,0,28,28,4,,,,,,2,1,0.583107216084,,,,,,PLC_L_D1S1,P31,60.0161989566,01,A,2015_Aug_19_1503,X,
stim/posf.jpg,stim/negf.jpg,stim/4.jpg,stim/6.jpg,stim/latef.jpg,AB,2,4,,,,,,,,,,,,,0,29,29,15,,,,,,4,1,0.533096390642,,,,,,PLC_L_D1S1,P31,60.0161989566,01,A,2015_Aug_19_1503,X,
stim/posf.jpg,stim/negf.jpg,stim/5.jpg,stim/1.jpg,stim/latef.jpg,CD,1,2,,,,,,,,,,,,,0,30,30,22,,,,,,2,1,0.599791641448,,,,,,PLC_L_D1S1,P31,60.0161989566,01,A,2015_Aug_19_1503,X,
stim/posf.jpg,stim/negf.jpg,stim/5.jpg,stim/1.jpg,stim/latef.jpg,CD,1,2,,,,,,,,,,,,,0,31,31,26,,,,,,2,1,0.449838313102,,,,,,PLC_L_D1S1,P31,60.0161989566,01,A,2015_Aug_19_1503,X,
stim/posf.jpg,stim/negf.jpg,stim/4.jpg,stim/6.jpg,stim/latef.jpg,AB,2,4,,,,,,,,,,,,,0,32,32,17,,,,,,4,1,0.499762180126,,,,,,PLC_L_D1S1,P31,60.0161989566,01,A,2015_Aug_19_1503,X,
stim/posf.jpg,stim/negf.jpg,stim/3.jpg,stim/2.jpg,stim/latef.jpg,EF,1,2,,,,,,,,,,,,,0,33,33,42,,,,,,4,0,0.716409060048,,,,,,PLC_L_D1S1,P31,60.0161989566,01,A,2015_Aug_19_1503,X,
stim/posf.jpg,stim/negf.jpg,stim/6.jpg,stim/4.jpg,stim/latef.jpg,AB,1,2,,,,,,,,,,,,,0,34,34,0,,,,,,2,1,0.666384373108,,,,,,PLC_L_D1S1,P31,60.0161989566,01,A,2015_Aug_19_1503,X,
stim/posf.jpg,stim/negf.jpg,stim/4.jpg,stim/6.jpg,stim/latef.jpg,AB,2,4,,,,,,,,,,,,,0,35,35,14,,,,,,4,1,0.68310552287,,,,,,PLC_L_D1S1,P31,60.0161989566,01,A,2015_Aug_19_1503,X,
stim/posf.jpg,stim/negf.jpg,stim/1.jpg,stim/5.jpg,stim/latef.jpg,CD,2,4,,,,,,,,,,,,,0,36,36,33,,,,,,4,1,0.649732016556,,,,,,PLC_L_D1S1,P31,60.0161989566,01,A,2015_Aug_19_1503,X,
stim/negf.jpg,stim/posf.jpg,stim/4.jpg,stim/6.jpg,stim/latef.jpg,AB,2,4,,,,,,,,,,,,,0,37,37,18,,,,,,4,1,0.61646341733,,,,,,PLC_L_D1S1,P31,60.0161989566,01,A,2015_Aug_19_1503,X,
stim/posf.jpg,stim/negf.jpg,stim/1.jpg,stim/5.jpg,stim/latef.jpg,CD,2,4,,,,,,,,,,,,,0,38,38,30,,,,,,4,1,0.76640254734,,,,,,PLC_L_D1S1,P31,60.0161989566,01,A,2015_Aug_19_1503,X,
stim/posf.jpg,stim/negf.jpg,stim/6.jpg,stim/4.jpg,stim/latef.jpg,AB,1,2,,,,,,,,,,,,,0,39,39,7,,,,,,2,1,0.716321800882,,,,,,PLC_L_D1S1,P31,60.0161989566,01,A,2015_Aug_19_1503,X,
stim/posf.jpg,stim/negf.jpg,stim/4.jpg,stim/6.jpg,stim/latef.jpg,AB,2,4,,,,,,,,,,,,,0,40,40,16,,,,,,4,1,0.666461921106,,,,,,PLC_L_D1S1,P31,60.0161989566,01,A,2015_Aug_19_1503,X,
stim/posf.jpg,stim/negf.jpg,stim/4.jpg,stim/6.jpg,stim/latef.jpg,AB,2,4,,,,,,,,,,,,,0,41,41,13,,,,,,4,1,0.883000197742,,,,,,PLC_L_D1S1,P31,60.0161989566,01,A,2015_Aug_19_1503,X,
stim/posf.jpg,stim/negf.jpg,stim/4.jpg,stim/6.jpg,stim/latef.jpg,AB,2,4,,,,,,,,,,,,,0,42,42,12,,,,,,4,1,0.633106429626,,,,,,PLC_L_D1S1,P31,60.0161989566,01,A,2015_Aug_19_1503,X,
stim/negf.jpg,stim/posf.jpg,stim/2.jpg,stim/3.jpg,stim/latef.jpg,EF,2,4,,,,,,,,,,,,,0,43,43,57,,,,,,2,0,0.716422786209,,,,,,PLC_L_D1S1,P31,60.0161989566,01,A,2015_Aug_19_1503,X,
stim/negf.jpg,stim/posf.jpg,stim/5.jpg,stim/1.jpg,stim/latef.jpg,CD,1,2,,,,,,,,,,,,,0,44,44,28,,,,,,2,1,0.666447647583,,,,,,PLC_L_D1S1,P31,60.0161989566,01,A,2015_Aug_19_1503,X,
stim/posf.jpg,stim/negf.jpg,stim/1.jpg,stim/5.jpg,stim/latef.jpg,CD,2,4,,,,,,,,,,,,,0,45,45,36,,,,,,4,1,0.533149911843,,,,,,PLC_L_D1S1,P31,60.0161989566,01,A,2015_Aug_19_1503,X,
stim/negf.jpg,stim/posf.jpg,stim/3.jpg,stim/2.jpg,stim/latef.jpg,EF,1,2,,,,,,,,,,,,,0,46,46,48,,,,,,4,0,0.58313972098,,,,,,PLC_L_D1S1,P31,60.0161989566,01,A,2015_Aug_19_1503,X,
stim/negf.jpg,stim/posf.jpg,stim/3.jpg,stim/2.jpg,stim/latef.jpg,EF,1,2,,,,,,,,,,,,,0,47,47,46,,,,,,4,0,0.716411093108,,,,,,PLC_L_D1S1,P31,60.0161989566,01,A,2015_Aug_19_1503,X,
stim/posf.jpg,stim/negf.jpg,stim/2.jpg,stim/3.jpg,stim/latef.jpg,EF,2,4,,,,,,,,,,,,,0,48,48,51,,,,,,2,0,0.633082493055,,,,,,PLC_L_D1S1,P31,60.0161989566,01,A,2015_Aug_19_1503,X,
stim/posf.jpg,stim/negf.jpg,stim/5.jpg,stim/1.jpg,stim/latef.jpg,CD,1,2,,,,,,,,,,,,,0,49,49,23,,,,,,2,1,0.61645491517,,,,,,PLC_L_D1S1,P31,60.0161989566,01,A,2015_Aug_19_1503,X,
stim/negf.jpg,stim/posf.jpg,stim/2.jpg,stim/3.jpg,stim/latef.jpg,EF,2,4,,,,,,,,,,,,,0,50,50,58,,,,,,2,0,0.683091369646,,,,,,PLC_L_D1S1,P31,60.0161989566,01,A,2015_Aug_19_1503,X,
stim/posf.jpg,stim/negf.jpg,stim/3.jpg,stim/2.jpg,stim/latef.jpg,EF,1,2,,,,,,,,,,,,,0,51,51,40,,,,,,4,0,0.566532350387,,,,,,PLC_L_D1S1,P31,60.0161989566,01,A,2015_Aug_19_1503,X,
stim/negf.jpg,stim/posf.jpg,stim/5.jpg,stim/1.jpg,stim/latef.jpg,CD,1,2,,,,,,,,,,,,,0,52,52,27,,,,,,2,1,0.599816182524,,,,,,PLC_L_D1S1,P31,60.0161989566,01,A,2015_Aug_19_1503,X,
stim/negf.jpg,stim/posf.jpg,stim/6.jpg,stim/4.jpg,stim/latef.jpg,AB,1,2,,,,,,,,,,,,,0,53,53,8,,,,,,2,1,0.849630604166,,,,,,PLC_L_D1S1,P31,60.0161989566,01,A,2015_Aug_19_1503,X,
stim/posf.jpg,stim/negf.jpg,stim/5.jpg,stim/1.jpg,stim/latef.jpg,CD,1,2,,,,,,,,,,,,,0,54,54,24,,,,,,2,1,0.666467975173,,,,,,PLC_L_D1S1,P31,60.0161989566,01,A,2015_Aug_19_1503,X,
stim/negf.jpg,stim/posf.jpg,stim/5.jpg,stim/1.jpg,stim/latef.jpg,CD,1,2,,,,,,,,,,,,,0,55,55,29,,,,,,2,1,0.633119355797,,,,,,PLC_L_D1S1,P31,60.0161989566,01,A,2015_Aug_19_1503,X,
stim/negf.jpg,stim/posf.jpg,stim/4.jpg,stim/6.jpg,stim/latef.jpg,AB,2,4,,,,,,,,,,,,,0,56,56,19,,,,,,4,1,0.716490054623,,,,,,PLC_L_D1S1,P31,60.0161989566,01,A,2015_Aug_19_1503,X,
stim/negf.jpg,stim/posf.jpg,stim/3.jpg,stim/2.jpg,stim/latef.jpg,EF,1,2,,,,,,,,,,,,,0,57,57,49,,,,,,4,0,0.566467954121,,,,,,PLC_L_D1S1,P31,60.0161989566,01,A,2015_Aug_19_1503,X,
stim/posf.jpg,stim/negf.jpg,stim/2.jpg,stim/3.jpg,stim/latef.jpg,EF,2,4,,,,,,,,,,,,,0,58,58,53,,,,,,2,0,0.616457092589,,,,,,PLC_L_D1S1,P31,60.0161989566,01,A,2015_Aug_19_1503,X,
stim/posf.jpg,stim/negf.jpg,stim/6.jpg,stim/4.jpg,stim/latef.jpg,AB,1,2,,,,,,,,,,,,,0,59,59,3,,,,,,2,1,0.699776688233,,,,,,PLC_L_D1S1,P31,60.0161989566,01,A,2015_Aug_19_1503,X,
