fb_corr,fb_incorr,symbol2,symbol1,fb_late,pair,position,correct,block_01.thisRepN,block_01.thisTrialN,block_01.thisN,block_01.thisIndex,block_02.thisRepN,block_02.thisTrialN,block_02.thisN,block_02.thisIndex,block_03.thisRepN,block_03.thisTrialN,block_03.thisN,block_03.thisIndex,block_04.thisRepN,block_04.thisTrialN,block_04.thisN,block_04.thisIndex,mouse.x,mouse.y,mouse.leftButton,mouse.midButton,mouse.rightButton,buttonBox_2.keys,buttonBox_2.corr,buttonBox_2.rt,mouse_2.x,mouse_2.y,mouse_2.leftButton,mouse_2.midButton,mouse_2.rightButton,expName,Participant,frameRate,SessionNumber,Version,date,Group,
,,,,,,,,,,,,,,,,,,,,,,,,0.971875,0.9921875,1,0,0,,,,,,,,,PLC_L_D1S1,P3,60.0193739274,01,B,2014_Dez_17_1453,X,
stim/posf.jpg,stim/negf.jpg,stim/6.jpg,stim/4.jpg,stim/latef.jpg,EF,1,2,0,0,0,42,,,,,,,,,,,,,,,,,,2,1,1.04971630288,,,,,,PLC_L_D1S1,P3,60.0193739274,01,B,2014_Dez_17_1453,X,
stim/posf.jpg,stim/negf.jpg,stim/4.jpg,stim/6.jpg,stim/latef.jpg,EF,2,4,0,1,1,53,,,,,,,,,,,,,,,,,,4,1,1.11630709544,,,,,,PLC_L_D1S1,P3,60.0193739274,01,B,2014_Dez_17_1453,X,
stim/negf.jpg,stim/posf.jpg,stim/3.jpg,stim/2.jpg,stim/latef.jpg,AB,1,2,0,2,2,9,,,,,,,,,,,,,,,,,,2,1,0.883019872032,,,,,,PLC_L_D1S1,P3,60.0193739274,01,B,2014_Dez_17_1453,X,
stim/posf.jpg,stim/negf.jpg,stim/1.jpg,stim/5.jpg,stim/latef.jpg,CD,2,4,0,3,3,33,,,,,,,,,,,,,,,,,,4,1,0.883055748454,,,,,,PLC_L_D1S1,P3,60.0193739274,01,B,2014_Dez_17_1453,X,
stim/posf.jpg,stim/negf.jpg,stim/1.jpg,stim/5.jpg,stim/latef.jpg,CD,2,4,0,4,4,32,,,,,,,,,,,,,,,,,,4,1,1.04965791535,,,,,,PLC_L_D1S1,P3,60.0193739274,01,B,2014_Dez_17_1453,X,
stim/posf.jpg,stim/negf.jpg,stim/1.jpg,stim/5.jpg,stim/latef.jpg,CD,2,4,0,5,5,35,,,,,,,,,,,,,,,,,,4,1,0.96633818693,,,,,,PLC_L_D1S1,P3,60.0193739274,01,B,2014_Dez_17_1453,X,
stim/posf.jpg,stim/negf.jpg,stim/5.jpg,stim/1.jpg,stim/latef.jpg,CD,1,2,0,6,6,26,,,,,,,,,,,,,,,,,,2,1,0.766416757768,,,,,,PLC_L_D1S1,P3,60.0193739274,01,B,2014_Dez_17_1453,X,
stim/posf.jpg,stim/negf.jpg,stim/1.jpg,stim/5.jpg,stim/latef.jpg,CD,2,4,0,7,7,30,,,,,,,,,,,,,,,,,,4,1,0.783069149857,,,,,,PLC_L_D1S1,P3,60.0193739274,01,B,2014_Dez_17_1453,X,
stim/posf.jpg,stim/negf.jpg,stim/2.jpg,stim/3.jpg,stim/latef.jpg,AB,2,4,0,8,8,10,,,,,,,,,,,,,,,,,,4,1,1.08301220893,,,,,,PLC_L_D1S1,P3,60.0193739274,01,B,2014_Dez_17_1453,X,
stim/posf.jpg,stim/negf.jpg,stim/4.jpg,stim/6.jpg,stim/latef.jpg,EF,2,4,0,9,9,52,,,,,,,,,,,,,,,,,,4,1,1.1661661371,,,,,,PLC_L_D1S1,P3,60.0193739274,01,B,2014_Dez_17_1453,X,
stim/posf.jpg,stim/negf.jpg,stim/4.jpg,stim/6.jpg,stim/latef.jpg,EF,2,4,0,10,10,55,,,,,,,,,,,,,,,,,,4,1,1.1829543417,,,,,,PLC_L_D1S1,P3,60.0193739274,01,B,2014_Dez_17_1453,X,
stim/negf.jpg,stim/posf.jpg,stim/4.jpg,stim/6.jpg,stim/latef.jpg,EF,2,4,0,11,11,58,,,,,,,,,,,,,,,,,,4,1,0.849708901436,,,,,,PLC_L_D1S1,P3,60.0193739274,01,B,2014_Dez_17_1453,X,
stim/negf.jpg,stim/posf.jpg,stim/4.jpg,stim/6.jpg,stim/latef.jpg,EF,2,4,0,12,12,59,,,,,,,,,,,,,,,,,,4,1,0.983017032955,,,,,,PLC_L_D1S1,P3,60.0193739274,01,B,2014_Dez_17_1453,X,
stim/posf.jpg,stim/negf.jpg,stim/3.jpg,stim/2.jpg,stim/latef.jpg,AB,1,2,0,13,13,3,,,,,,,,,,,,,,,,,,4,0,1.06629805189,,,,,,PLC_L_D1S1,P3,60.0193739274,01,B,2014_Dez_17_1453,X,
stim/negf.jpg,stim/posf.jpg,stim/1.jpg,stim/5.jpg,stim/latef.jpg,CD,2,4,0,14,14,37,,,,,,,,,,,,,,,,,,2,0,1.28291737957,,,,,,PLC_L_D1S1,P3,60.0193739274,01,B,2014_Dez_17_1453,X,
stim/posf.jpg,stim/negf.jpg,stim/2.jpg,stim/3.jpg,stim/latef.jpg,AB,2,4,0,15,15,12,,,,,,,,,,,,,,,,,,2,0,1.41618771288,,,,,,PLC_L_D1S1,P3,60.0193739274,01,B,2014_Dez_17_1453,X,
stim/posf.jpg,stim/negf.jpg,stim/5.jpg,stim/1.jpg,stim/latef.jpg,CD,1,2,0,16,16,21,,,,,,,,,,,,,,,,,,4,0,1.43286262209,,,,,,PLC_L_D1S1,P3,60.0193739274,01,B,2014_Dez_17_1453,X,
stim/negf.jpg,stim/posf.jpg,stim/5.jpg,stim/1.jpg,stim/latef.jpg,CD,1,2,0,17,17,29,,,,,,,,,,,,,,,,,,2,1,1.14958236705,,,,,,PLC_L_D1S1,P3,60.0193739274,01,B,2014_Dez_17_1453,X,
stim/posf.jpg,stim/negf.jpg,stim/6.jpg,stim/4.jpg,stim/latef.jpg,EF,1,2,0,18,18,44,,,,,,,,,,,,,,,,,,2,1,0.833057574004,,,,,,PLC_L_D1S1,P3,60.0193739274,01,B,2014_Dez_17_1453,X,
stim/posf.jpg,stim/negf.jpg,stim/3.jpg,stim/2.jpg,stim/latef.jpg,AB,1,2,0,19,19,6,,,,,,,,,,,,,,,,,,4,0,1.03297041677,,,,,,PLC_L_D1S1,P3,60.0193739274,01,B,2014_Dez_17_1453,X,
stim/posf.jpg,stim/negf.jpg,stim/3.jpg,stim/2.jpg,stim/latef.jpg,AB,1,2,0,20,20,2,,,,,,,,,,,,,,,,,,2,1,0.833052127429,,,,,,PLC_L_D1S1,P3,60.0193739274,01,B,2014_Dez_17_1453,X,
stim/posf.jpg,stim/negf.jpg,stim/4.jpg,stim/6.jpg,stim/latef.jpg,EF,2,4,0,21,21,51,,,,,,,,,,,,,,,,,,4,1,1.01633761851,,,,,,PLC_L_D1S1,P3,60.0193739274,01,B,2014_Dez_17_1453,X,
stim/negf.jpg,stim/posf.jpg,stim/4.jpg,stim/6.jpg,stim/latef.jpg,EF,2,4,0,22,22,57,,,,,,,,,,,,,,,,,,4,1,0.733094701543,,,,,,PLC_L_D1S1,P3,60.0193739274,01,B,2014_Dez_17_1453,X,
stim/posf.jpg,stim/negf.jpg,stim/2.jpg,stim/3.jpg,stim/latef.jpg,AB,2,4,0,23,23,16,,,,,,,,,,,,,,,,,,4,1,1.28297675055,,,,,,PLC_L_D1S1,P3,60.0193739274,01,B,2014_Dez_17_1453,X,
stim/posf.jpg,stim/negf.jpg,stim/5.jpg,stim/1.jpg,stim/latef.jpg,CD,1,2,0,24,24,22,,,,,,,,,,,,,,,,,,2,1,1.34957546785,,,,,,PLC_L_D1S1,P3,60.0193739274,01,B,2014_Dez_17_1453,X,
stim/posf.jpg,stim/negf.jpg,stim/6.jpg,stim/4.jpg,stim/latef.jpg,EF,1,2,0,25,25,45,,,,,,,,,,,,,,,,,,2,1,0.766424123127,,,,,,PLC_L_D1S1,P3,60.0193739274,01,B,2014_Dez_17_1453,X,
stim/posf.jpg,stim/negf.jpg,stim/5.jpg,stim/1.jpg,stim/latef.jpg,CD,1,2,0,26,26,24,,,,,,,,,,,,,,,,,,4,0,0.966324993045,,,,,,PLC_L_D1S1,P3,60.0193739274,01,B,2014_Dez_17_1453,X,
stim/negf.jpg,stim/posf.jpg,stim/2.jpg,stim/3.jpg,stim/latef.jpg,AB,2,4,0,27,27,18,,,,,,,,,,,,,,,,,,4,1,0.883056334915,,,,,,PLC_L_D1S1,P3,60.0193739274,01,B,2014_Dez_17_1453,X,
stim/posf.jpg,stim/negf.jpg,stim/3.jpg,stim/2.jpg,stim/latef.jpg,AB,1,2,0,28,28,1,,,,,,,,,,,,,,,,,,2,1,1.01632504116,,,,,,PLC_L_D1S1,P3,60.0193739274,01,B,2014_Dez_17_1453,X,
stim/negf.jpg,stim/posf.jpg,stim/6.jpg,stim/4.jpg,stim/latef.jpg,EF,1,2,0,29,29,47,,,,,,,,,,,,,,,,,,2,1,0.799633419298,,,,,,PLC_L_D1S1,P3,60.0193739274,01,B,2014_Dez_17_1453,X,
stim/posf.jpg,stim/negf.jpg,stim/5.jpg,stim/1.jpg,stim/latef.jpg,CD,1,2,0,30,30,23,,,,,,,,,,,,,,,,,,2,1,1.41620555033,,,,,,PLC_L_D1S1,P3,60.0193739274,01,B,2014_Dez_17_1453,X,
stim/posf.jpg,stim/negf.jpg,stim/3.jpg,stim/2.jpg,stim/latef.jpg,AB,1,2,0,31,31,7,,,,,,,,,,,,,,,,,,2,1,1.06632162465,,,,,,PLC_L_D1S1,P3,60.0193739274,01,B,2014_Dez_17_1453,X,
stim/negf.jpg,stim/posf.jpg,stim/5.jpg,stim/1.jpg,stim/latef.jpg,CD,1,2,0,32,32,27,,,,,,,,,,,,,,,,,,2,1,1.03299063315,,,,,,PLC_L_D1S1,P3,60.0193739274,01,B,2014_Dez_17_1453,X,
stim/posf.jpg,stim/negf.jpg,stim/6.jpg,stim/4.jpg,stim/latef.jpg,EF,1,2,0,33,33,41,,,,,,,,,,,,,,,,,,2,1,0.816354992819,,,,,,PLC_L_D1S1,P3,60.0193739274,01,B,2014_Dez_17_1453,X,
stim/negf.jpg,stim/posf.jpg,stim/2.jpg,stim/3.jpg,stim/latef.jpg,AB,2,4,0,34,34,19,,,,,,,,,,,,,,,,,,4,1,1.21622893663,,,,,,PLC_L_D1S1,P3,60.0193739274,01,B,2014_Dez_17_1453,X,
stim/posf.jpg,stim/negf.jpg,stim/2.jpg,stim/3.jpg,stim/latef.jpg,AB,2,4,0,35,35,14,,,,,,,,,,,,,,,,,,2,0,1.13295894918,,,,,,PLC_L_D1S1,P3,60.0193739274,01,B,2014_Dez_17_1453,X,
stim/posf.jpg,stim/negf.jpg,stim/2.jpg,stim/3.jpg,stim/latef.jpg,AB,2,4,0,36,36,13,,,,,,,,,,,,,,,,,,4,1,0.916352274044,,,,,,PLC_L_D1S1,P3,60.0193739274,01,B,2014_Dez_17_1453,X,
stim/posf.jpg,stim/negf.jpg,stim/2.jpg,stim/3.jpg,stim/latef.jpg,AB,2,4,0,37,37,15,,,,,,,,,,,,,,,,,,4,1,0.66644709739,,,,,,PLC_L_D1S1,P3,60.0193739274,01,B,2014_Dez_17_1453,X,
stim/posf.jpg,stim/negf.jpg,stim/4.jpg,stim/6.jpg,stim/latef.jpg,EF,2,4,0,38,38,50,,,,,,,,,,,,,,,,,,4,1,1.08297333704,,,,,,PLC_L_D1S1,P3,60.0193739274,01,B,2014_Dez_17_1453,X,
stim/posf.jpg,stim/negf.jpg,stim/4.jpg,stim/6.jpg,stim/latef.jpg,EF,2,4,0,39,39,54,,,,,,,,,,,,,,,,,,4,1,0.516500339094,,,,,,PLC_L_D1S1,P3,60.0193739274,01,B,2014_Dez_17_1453,X,
stim/posf.jpg,stim/negf.jpg,stim/2.jpg,stim/3.jpg,stim/latef.jpg,AB,2,4,0,40,40,17,,,,,,,,,,,,,,,,,,4,1,1.01631032849,,,,,,PLC_L_D1S1,P3,60.0193739274,01,B,2014_Dez_17_1453,X,
stim/posf.jpg,stim/negf.jpg,stim/6.jpg,stim/4.jpg,stim/latef.jpg,EF,1,2,0,41,41,40,,,,,,,,,,,,,,,,,,2,1,0.799679521206,,,,,,PLC_L_D1S1,P3,60.0193739274,01,B,2014_Dez_17_1453,X,
stim/negf.jpg,stim/posf.jpg,stim/6.jpg,stim/4.jpg,stim/latef.jpg,EF,1,2,0,42,42,46,,,,,,,,,,,,,,,,,,2,1,0.566486573785,,,,,,PLC_L_D1S1,P3,60.0193739274,01,B,2014_Dez_17_1453,X,
stim/posf.jpg,stim/negf.jpg,stim/1.jpg,stim/5.jpg,stim/latef.jpg,CD,2,4,0,43,43,34,,,,,,,,,,,,,,,,,,4,1,1.01631874046,,,,,,PLC_L_D1S1,P3,60.0193739274,01,B,2014_Dez_17_1453,X,
stim/negf.jpg,stim/posf.jpg,stim/1.jpg,stim/5.jpg,stim/latef.jpg,CD,2,4,0,44,44,39,,,,,,,,,,,,,,,,,,4,1,0.999666646116,,,,,,PLC_L_D1S1,P3,60.0193739274,01,B,2014_Dez_17_1453,X,
stim/posf.jpg,stim/negf.jpg,stim/3.jpg,stim/2.jpg,stim/latef.jpg,AB,1,2,0,45,45,5,,,,,,,,,,,,,,,,,,2,1,1.06626961,,,,,,PLC_L_D1S1,P3,60.0193739274,01,B,2014_Dez_17_1453,X,
stim/posf.jpg,stim/negf.jpg,stim/3.jpg,stim/2.jpg,stim/latef.jpg,AB,1,2,0,46,46,0,,,,,,,,,,,,,,,,,,2,1,1.18294303953,,,,,,PLC_L_D1S1,P3,60.0193739274,01,B,2014_Dez_17_1453,X,
stim/negf.jpg,stim/posf.jpg,stim/3.jpg,stim/2.jpg,stim/latef.jpg,AB,1,2,0,47,47,8,,,,,,,,,,,,,,,,,,2,1,0.733057216112,,,,,,PLC_L_D1S1,P3,60.0193739274,01,B,2014_Dez_17_1453,X,
stim/posf.jpg,stim/negf.jpg,stim/1.jpg,stim/5.jpg,stim/latef.jpg,CD,2,4,0,48,48,36,,,,,,,,,,,,,,,,,,2,0,1.23287565357,,,,,,PLC_L_D1S1,P3,60.0193739274,01,B,2014_Dez_17_1453,X,
stim/posf.jpg,stim/negf.jpg,stim/6.jpg,stim/4.jpg,stim/latef.jpg,EF,1,2,0,49,49,43,,,,,,,,,,,,,,,,,,2,1,0.666418718656,,,,,,PLC_L_D1S1,P3,60.0193739274,01,B,2014_Dez_17_1453,X,
stim/posf.jpg,stim/negf.jpg,stim/1.jpg,stim/5.jpg,stim/latef.jpg,CD,2,4,0,50,50,31,,,,,,,,,,,,,,,,,,4,1,1.41619742107,,,,,,PLC_L_D1S1,P3,60.0193739274,01,B,2014_Dez_17_1453,X,
stim/posf.jpg,stim/negf.jpg,stim/3.jpg,stim/2.jpg,stim/latef.jpg,AB,1,2,0,51,51,4,,,,,,,,,,,,,,,,,,4,0,1.59949004594,,,,,,PLC_L_D1S1,P3,60.0193739274,01,B,2014_Dez_17_1453,X,
stim/posf.jpg,stim/negf.jpg,stim/5.jpg,stim/1.jpg,stim/latef.jpg,CD,1,2,0,52,52,20,,,,,,,,,,,,,,,,,,2,1,1.19963026443,,,,,,PLC_L_D1S1,P3,60.0193739274,01,B,2014_Dez_17_1453,X,
stim/posf.jpg,stim/negf.jpg,stim/5.jpg,stim/1.jpg,stim/latef.jpg,CD,1,2,0,53,53,25,,,,,,,,,,,,,,,,,,2,1,1.43281135631,,,,,,PLC_L_D1S1,P3,60.0193739274,01,B,2014_Dez_17_1453,X,
stim/negf.jpg,stim/posf.jpg,stim/6.jpg,stim/4.jpg,stim/latef.jpg,EF,1,2,0,54,54,49,,,,,,,,,,,,,,,,,,2,1,0.64972951181,,,,,,PLC_L_D1S1,P3,60.0193739274,01,B,2014_Dez_17_1453,X,
stim/posf.jpg,stim/negf.jpg,stim/2.jpg,stim/3.jpg,stim/latef.jpg,AB,2,4,0,55,55,11,,,,,,,,,,,,,,,,,,4,1,0.999637383176,,,,,,PLC_L_D1S1,P3,60.0193739274,01,B,2014_Dez_17_1453,X,
stim/negf.jpg,stim/posf.jpg,stim/6.jpg,stim/4.jpg,stim/latef.jpg,EF,1,2,0,56,56,48,,,,,,,,,,,,,,,,,,2,1,0.599791318862,,,,,,PLC_L_D1S1,P3,60.0193739274,01,B,2014_Dez_17_1453,X,
stim/negf.jpg,stim/posf.jpg,stim/1.jpg,stim/5.jpg,stim/latef.jpg,CD,2,4,0,57,57,38,,,,,,,,,,,,,,,,,,2,0,1.06630485786,,,,,,PLC_L_D1S1,P3,60.0193739274,01,B,2014_Dez_17_1453,X,
stim/negf.jpg,stim/posf.jpg,stim/4.jpg,stim/6.jpg,stim/latef.jpg,EF,2,4,0,58,58,56,,,,,,,,,,,,,,,,,,4,1,0.749755652965,,,,,,PLC_L_D1S1,P3,60.0193739274,01,B,2014_Dez_17_1453,X,
stim/negf.jpg,stim/posf.jpg,stim/5.jpg,stim/1.jpg,stim/latef.jpg,CD,1,2,0,59,59,28,,,,,,,,,,,,,,,,,,2,1,1.1829574725,,,,,,PLC_L_D1S1,P3,60.0193739274,01,B,2014_Dez_17_1453,X,
,,,,,,,,,,,,,,,,,,,,,,,,,,,,,,,,0.9703125,1.0,1,0,0,PLC_L_D1S1,P3,60.0193739274,01,B,2014_Dez_17_1453,X,
stim/posf.jpg,stim/negf.jpg,stim/3.jpg,stim/2.jpg,stim/latef.jpg,AB,1,2,,,,,0,0,0,2,,,,,,,,,,,,,,2,1,0.998429494515,,,,,,PLC_L_D1S1,P3,60.0193739274,01,B,2014_Dez_17_1453,X,
stim/negf.jpg,stim/posf.jpg,stim/1.jpg,stim/5.jpg,stim/latef.jpg,CD,2,4,,,,,0,1,1,39,,,,,,,,,,,,,,2,0,1.18292380057,,,,,,PLC_L_D1S1,P3,60.0193739274,01,B,2014_Dez_17_1453,X,
stim/posf.jpg,stim/negf.jpg,stim/5.jpg,stim/1.jpg,stim/latef.jpg,CD,1,2,,,,,0,2,2,21,,,,,,,,,,,,,,4,0,1.33288203247,,,,,,PLC_L_D1S1,P3,60.0193739274,01,B,2014_Dez_17_1453,X,
stim/posf.jpg,stim/negf.jpg,stim/2.jpg,stim/3.jpg,stim/latef.jpg,AB,2,4,,,,,0,3,3,17,,,,,,,,,,,,,,4,1,1.28296550853,,,,,,PLC_L_D1S1,P3,60.0193739274,01,B,2014_Dez_17_1453,X,
stim/posf.jpg,stim/negf.jpg,stim/6.jpg,stim/4.jpg,stim/latef.jpg,EF,1,2,,,,,0,4,4,44,,,,,,,,,,,,,,2,1,0.949691127134,,,,,,PLC_L_D1S1,P3,60.0193739274,01,B,2014_Dez_17_1453,X,
stim/posf.jpg,stim/negf.jpg,stim/3.jpg,stim/2.jpg,stim/latef.jpg,AB,1,2,,,,,0,5,5,1,,,,,,,,,,,,,,2,1,1.29957302276,,,,,,PLC_L_D1S1,P3,60.0193739274,01,B,2014_Dez_17_1453,X,
stim/negf.jpg,stim/posf.jpg,stim/5.jpg,stim/1.jpg,stim/latef.jpg,CD,1,2,,,,,0,6,6,29,,,,,,,,,,,,,,2,1,1.21627453929,,,,,,PLC_L_D1S1,P3,60.0193739274,01,B,2014_Dez_17_1453,X,
stim/posf.jpg,stim/negf.jpg,stim/6.jpg,stim/4.jpg,stim/latef.jpg,EF,1,2,,,,,0,7,7,40,,,,,,,,,,,,,,2,1,0.683130352403,,,,,,PLC_L_D1S1,P3,60.0193739274,01,B,2014_Dez_17_1453,X,
stim/negf.jpg,stim/posf.jpg,stim/5.jpg,stim/1.jpg,stim/latef.jpg,CD,1,2,,,,,0,8,8,28,,,,,,,,,,,,,,2,1,1.34956697168,,,,,,PLC_L_D1S1,P3,60.0193739274,01,B,2014_Dez_17_1453,X,
stim/negf.jpg,stim/posf.jpg,stim/2.jpg,stim/3.jpg,stim/latef.jpg,AB,2,4,,,,,0,9,9,18,,,,,,,,,,,,,,4,1,1.26621600138,,,,,,PLC_L_D1S1,P3,60.0193739274,01,B,2014_Dez_17_1453,X,
stim/negf.jpg,stim/posf.jpg,stim/4.jpg,stim/6.jpg,stim/latef.jpg,EF,2,4,,,,,0,10,10,58,,,,,,,,,,,,,,4,1,0.999673551327,,,,,,PLC_L_D1S1,P3,60.0193739274,01,B,2014_Dez_17_1453,X,
stim/posf.jpg,stim/negf.jpg,stim/4.jpg,stim/6.jpg,stim/latef.jpg,EF,2,4,,,,,0,11,11,55,,,,,,,,,,,,,,4,1,1.16623917113,,,,,,PLC_L_D1S1,P3,60.0193739274,01,B,2014_Dez_17_1453,X,
stim/posf.jpg,stim/negf.jpg,stim/1.jpg,stim/5.jpg,stim/latef.jpg,CD,2,4,,,,,0,12,12,36,,,,,,,,,,,,,,2,0,1.3495733987,,,,,,PLC_L_D1S1,P3,60.0193739274,01,B,2014_Dez_17_1453,X,
stim/posf.jpg,stim/negf.jpg,stim/4.jpg,stim/6.jpg,stim/latef.jpg,EF,2,4,,,,,0,13,13,54,,,,,,,,,,,,,,4,1,0.916174401696,,,,,,PLC_L_D1S1,P3,60.0193739274,01,B,2014_Dez_17_1453,X,
stim/posf.jpg,stim/negf.jpg,stim/5.jpg,stim/1.jpg,stim/latef.jpg,CD,1,2,,,,,0,14,14,24,,,,,,,,,,,,,,2,1,1.51618622717,,,,,,PLC_L_D1S1,P3,60.0193739274,01,B,2014_Dez_17_1453,X,
stim/posf.jpg,stim/negf.jpg,stim/4.jpg,stim/6.jpg,stim/latef.jpg,EF,2,4,,,,,0,15,15,53,,,,,,,,,,,,,,4,1,1.03300013985,,,,,,PLC_L_D1S1,P3,60.0193739274,01,B,2014_Dez_17_1453,X,
stim/posf.jpg,stim/negf.jpg,stim/2.jpg,stim/3.jpg,stim/latef.jpg,AB,2,4,,,,,0,16,16,12,,,,,,,,,,,,,,4,1,1.44951893294,,,,,,PLC_L_D1S1,P3,60.0193739274,01,B,2014_Dez_17_1453,X,
stim/posf.jpg,stim/negf.jpg,stim/5.jpg,stim/1.jpg,stim/latef.jpg,CD,1,2,,,,,0,17,17,26,,,,,,,,,,,,,,2,1,1.13296129202,,,,,,PLC_L_D1S1,P3,60.0193739274,01,B,2014_Dez_17_1453,X,
stim/negf.jpg,stim/posf.jpg,stim/4.jpg,stim/6.jpg,stim/latef.jpg,EF,2,4,,,,,0,18,18,57,,,,,,,,,,,,,,4,1,0.88303405839,,,,,,PLC_L_D1S1,P3,60.0193739274,01,B,2014_Dez_17_1453,X,
stim/negf.jpg,stim/posf.jpg,stim/1.jpg,stim/5.jpg,stim/latef.jpg,CD,2,4,,,,,0,19,19,37,,,,,,,,,,,,,,4,1,1.18289020684,,,,,,PLC_L_D1S1,P3,60.0193739274,01,B,2014_Dez_17_1453,X,
stim/negf.jpg,stim/posf.jpg,stim/6.jpg,stim/4.jpg,stim/latef.jpg,EF,1,2,,,,,0,20,20,49,,,,,,,,,,,,,,2,1,0.749757764228,,,,,,PLC_L_D1S1,P3,60.0193739274,01,B,2014_Dez_17_1453,X,
stim/posf.jpg,stim/negf.jpg,stim/3.jpg,stim/2.jpg,stim/latef.jpg,AB,1,2,,,,,0,21,21,5,,,,,,,,,,,,,,2,1,1.11634878836,,,,,,PLC_L_D1S1,P3,60.0193739274,01,B,2014_Dez_17_1453,X,
stim/posf.jpg,stim/negf.jpg,stim/3.jpg,stim/2.jpg,stim/latef.jpg,AB,1,2,,,,,0,22,22,0,,,,,,,,,,,,,,2,1,1.06630807588,,,,,,PLC_L_D1S1,P3,60.0193739274,01,B,2014_Dez_17_1453,X,
stim/posf.jpg,stim/negf.jpg,stim/1.jpg,stim/5.jpg,stim/latef.jpg,CD,2,4,,,,,0,23,23,34,,,,,,,,,,,,,,2,0,0.982970143083,,,,,,PLC_L_D1S1,P3,60.0193739274,01,B,2014_Dez_17_1453,X,
stim/negf.jpg,stim/posf.jpg,stim/3.jpg,stim/2.jpg,stim/latef.jpg,AB,1,2,,,,,0,24,24,9,,,,,,,,,,,,,,2,1,1.01631454801,,,,,,PLC_L_D1S1,P3,60.0193739274,01,B,2014_Dez_17_1453,X,
stim/negf.jpg,stim/posf.jpg,stim/6.jpg,stim/4.jpg,stim/latef.jpg,EF,1,2,,,,,0,25,25,47,,,,,,,,,,,,,,2,1,0.816413614935,,,,,,PLC_L_D1S1,P3,60.0193739274,01,B,2014_Dez_17_1453,X,
stim/posf.jpg,stim/negf.jpg,stim/1.jpg,stim/5.jpg,stim/latef.jpg,CD,2,4,,,,,0,26,26,31,,,,,,,,,,,,,,4,1,0.999617010399,,,,,,PLC_L_D1S1,P3,60.0193739274,01,B,2014_Dez_17_1453,X,
stim/posf.jpg,stim/negf.jpg,stim/4.jpg,stim/6.jpg,stim/latef.jpg,EF,2,4,,,,,0,27,27,51,,,,,,,,,,,,,,4,1,0.816385446726,,,,,,PLC_L_D1S1,P3,60.0193739274,01,B,2014_Dez_17_1453,X,
stim/posf.jpg,stim/negf.jpg,stim/3.jpg,stim/2.jpg,stim/latef.jpg,AB,1,2,,,,,0,28,28,6,,,,,,,,,,,,,,2,1,0.849710402179,,,,,,PLC_L_D1S1,P3,60.0193739274,01,B,2014_Dez_17_1453,X,
stim/posf.jpg,stim/negf.jpg,stim/5.jpg,stim/1.jpg,stim/latef.jpg,CD,1,2,,,,,0,29,29,25,,,,,,,,,,,,,,2,1,1.36621612469,,,,,,PLC_L_D1S1,P3,60.0193739274,01,B,2014_Dez_17_1453,X,
stim/posf.jpg,stim/negf.jpg,stim/5.jpg,stim/1.jpg,stim/latef.jpg,CD,1,2,,,,,0,30,30,22,,,,,,,,,,,,,,2,1,0.849704907481,,,,,,PLC_L_D1S1,P3,60.0193739274,01,B,2014_Dez_17_1453,X,
stim/negf.jpg,stim/posf.jpg,stim/3.jpg,stim/2.jpg,stim/latef.jpg,AB,1,2,,,,,0,31,31,8,,,,,,,,,,,,,,2,1,0.982958558207,,,,,,PLC_L_D1S1,P3,60.0193739274,01,B,2014_Dez_17_1453,X,
stim/negf.jpg,stim/posf.jpg,stim/6.jpg,stim/4.jpg,stim/latef.jpg,EF,1,2,,,,,0,32,32,48,,,,,,,,,,,,,,2,1,0.699772994189,,,,,,PLC_L_D1S1,P3,60.0193739274,01,B,2014_Dez_17_1453,X,
stim/posf.jpg,stim/negf.jpg,stim/6.jpg,stim/4.jpg,stim/latef.jpg,EF,1,2,,,,,0,33,33,43,,,,,,,,,,,,,,2,1,0.566465410035,,,,,,PLC_L_D1S1,P3,60.0193739274,01,B,2014_Dez_17_1453,X,
stim/posf.jpg,stim/negf.jpg,stim/2.jpg,stim/3.jpg,stim/latef.jpg,AB,2,4,,,,,0,34,34,10,,,,,,,,,,,,,,4,1,1.16626804009,,,,,,PLC_L_D1S1,P3,60.0193739274,01,B,2014_Dez_17_1453,X,
stim/posf.jpg,stim/negf.jpg,stim/1.jpg,stim/5.jpg,stim/latef.jpg,CD,2,4,,,,,0,35,35,35,,,,,,,,,,,,,,2,0,0.71642873362,,,,,,PLC_L_D1S1,P3,60.0193739274,01,B,2014_Dez_17_1453,X,
stim/posf.jpg,stim/negf.jpg,stim/2.jpg,stim/3.jpg,stim/latef.jpg,AB,2,4,,,,,0,36,36,16,,,,,,,,,,,,,,4,1,0.899651551492,,,,,,PLC_L_D1S1,P3,60.0193739274,01,B,2014_Dez_17_1453,X,
stim/negf.jpg,stim/posf.jpg,stim/2.jpg,stim/3.jpg,stim/latef.jpg,AB,2,4,,,,,0,37,37,19,,,,,,,,,,,,,,4,1,0.916380736986,,,,,,PLC_L_D1S1,P3,60.0193739274,01,B,2014_Dez_17_1453,X,
stim/posf.jpg,stim/negf.jpg,stim/2.jpg,stim/3.jpg,stim/latef.jpg,AB,2,4,,,,,0,38,38,15,,,,,,,,,,,,,,4,1,0.616472823513,,,,,,PLC_L_D1S1,P3,60.0193739274,01,B,2014_Dez_17_1453,X,
stim/posf.jpg,stim/negf.jpg,stim/3.jpg,stim/2.jpg,stim/latef.jpg,AB,1,2,,,,,0,39,39,7,,,,,,,,,,,,,,2,1,0.7664207818,,,,,,PLC_L_D1S1,P3,60.0193739274,01,B,2014_Dez_17_1453,X,
stim/posf.jpg,stim/negf.jpg,stim/6.jpg,stim/4.jpg,stim/latef.jpg,EF,1,2,,,,,0,40,40,42,,,,,,,,,,,,,,2,1,0.683093041405,,,,,,PLC_L_D1S1,P3,60.0193739274,01,B,2014_Dez_17_1453,X,
stim/posf.jpg,stim/negf.jpg,stim/3.jpg,stim/2.jpg,stim/latef.jpg,AB,1,2,,,,,0,41,41,4,,,,,,,,,,,,,,2,1,0.866399076698,,,,,,PLC_L_D1S1,P3,60.0193739274,01,B,2014_Dez_17_1453,X,
stim/posf.jpg,stim/negf.jpg,stim/6.jpg,stim/4.jpg,stim/latef.jpg,EF,1,2,,,,,0,42,42,45,,,,,,,,,,,,,,2,1,0.649794789513,,,,,,PLC_L_D1S1,P3,60.0193739274,01,B,2014_Dez_17_1453,X,
stim/posf.jpg,stim/negf.jpg,stim/2.jpg,stim/3.jpg,stim/latef.jpg,AB,2,4,,,,,0,43,43,14,,,,,,,,,,,,,,4,1,1.36617271148,,,,,,PLC_L_D1S1,P3,60.0193739274,01,B,2014_Dez_17_1453,X,
stim/posf.jpg,stim/negf.jpg,stim/6.jpg,stim/4.jpg,stim/latef.jpg,EF,1,2,,,,,0,44,44,41,,,,,,,,,,,,,,2,1,0.599808765348,,,,,,PLC_L_D1S1,P3,60.0193739274,01,B,2014_Dez_17_1453,X,
stim/negf.jpg,stim/posf.jpg,stim/4.jpg,stim/6.jpg,stim/latef.jpg,EF,2,4,,,,,0,45,45,59,,,,,,,,,,,,,,4,1,0.78306699649,,,,,,PLC_L_D1S1,P3,60.0193739274,01,B,2014_Dez_17_1453,X,
stim/posf.jpg,stim/negf.jpg,stim/1.jpg,stim/5.jpg,stim/latef.jpg,CD,2,4,,,,,0,46,46,30,,,,,,,,,,,,,,4,1,1.049708324,,,,,,PLC_L_D1S1,P3,60.0193739274,01,B,2014_Dez_17_1453,X,
stim/posf.jpg,stim/negf.jpg,stim/5.jpg,stim/1.jpg,stim/latef.jpg,CD,1,2,,,,,0,47,47,20,,,,,,,,,,,,,,None,0,,,,,,,PLC_L_D1S1,P3,60.0193739274,01,B,2014_Dez_17_1453,X,
stim/posf.jpg,stim/negf.jpg,stim/1.jpg,stim/5.jpg,stim/latef.jpg,CD,2,4,,,,,0,48,48,33,,,,,,,,,,,,,,4,1,0.899695881986,,,,,,PLC_L_D1S1,P3,60.0193739274,01,B,2014_Dez_17_1453,X,
stim/negf.jpg,stim/posf.jpg,stim/5.jpg,stim/1.jpg,stim/latef.jpg,CD,1,2,,,,,0,49,49,27,,,,,,,,,,,,,,2,1,0.799747301147,,,,,,PLC_L_D1S1,P3,60.0193739274,01,B,2014_Dez_17_1453,X,
stim/posf.jpg,stim/negf.jpg,stim/2.jpg,stim/3.jpg,stim/latef.jpg,AB,2,4,,,,,0,50,50,13,,,,,,,,,,,,,,4,1,0.966342890655,,,,,,PLC_L_D1S1,P3,60.0193739274,01,B,2014_Dez_17_1453,X,
stim/negf.jpg,stim/posf.jpg,stim/6.jpg,stim/4.jpg,stim/latef.jpg,EF,1,2,,,,,0,51,51,46,,,,,,,,,,,,,,2,1,0.816397181976,,,,,,PLC_L_D1S1,P3,60.0193739274,01,B,2014_Dez_17_1453,X,
stim/negf.jpg,stim/posf.jpg,stim/1.jpg,stim/5.jpg,stim/latef.jpg,CD,2,4,,,,,0,52,52,38,,,,,,,,,,,,,,4,1,1.03298076556,,,,,,PLC_L_D1S1,P3,60.0193739274,01,B,2014_Dez_17_1453,X,
stim/posf.jpg,stim/negf.jpg,stim/4.jpg,stim/6.jpg,stim/latef.jpg,EF,2,4,,,,,0,53,53,52,,,,,,,,,,,,,,4,1,0.9663468004,,,,,,PLC_L_D1S1,P3,60.0193739274,01,B,2014_Dez_17_1453,X,
stim/posf.jpg,stim/negf.jpg,stim/4.jpg,stim/6.jpg,stim/latef.jpg,EF,2,4,,,,,0,54,54,50,,,,,,,,,,,,,,4,1,0.666449906392,,,,,,PLC_L_D1S1,P3,60.0193739274,01,B,2014_Dez_17_1453,X,
stim/negf.jpg,stim/posf.jpg,stim/4.jpg,stim/6.jpg,stim/latef.jpg,EF,2,4,,,,,0,55,55,56,,,,,,,,,,,,,,4,1,0.466494552673,,,,,,PLC_L_D1S1,P3,60.0193739274,01,B,2014_Dez_17_1453,X,
stim/posf.jpg,stim/negf.jpg,stim/5.jpg,stim/1.jpg,stim/latef.jpg,CD,1,2,,,,,0,56,56,23,,,,,,,,,,,,,,2,1,1.0663240126,,,,,,PLC_L_D1S1,P3,60.0193739274,01,B,2014_Dez_17_1453,X,
stim/posf.jpg,stim/negf.jpg,stim/1.jpg,stim/5.jpg,stim/latef.jpg,CD,2,4,,,,,0,57,57,32,,,,,,,,,,,,,,4,1,0.933037652349,,,,,,PLC_L_D1S1,P3,60.0193739274,01,B,2014_Dez_17_1453,X,
stim/posf.jpg,stim/negf.jpg,stim/2.jpg,stim/3.jpg,stim/latef.jpg,AB,2,4,,,,,0,58,58,11,,,,,,,,,,,,,,4,1,0.833037748589,,,,,,PLC_L_D1S1,P3,60.0193739274,01,B,2014_Dez_17_1453,X,
stim/posf.jpg,stim/negf.jpg,stim/3.jpg,stim/2.jpg,stim/latef.jpg,AB,1,2,,,,,0,59,59,3,,,,,,,,,,,,,,2,1,0.799719108878,,,,,,PLC_L_D1S1,P3,60.0193739274,01,B,2014_Dez_17_1453,X,
,,,,,,,,,,,,,,,,,,,,,,,,,,,,,,,,0.96875,1.0,1,0,0,PLC_L_D1S1,P3,60.0193739274,01,B,2014_Dez_17_1453,X,
stim/posf.jpg,stim/negf.jpg,stim/2.jpg,stim/3.jpg,stim/latef.jpg,AB,2,4,,,,,,,,,0,0,0,12,,,,,,,,,,4,1,1.19956376869,,,,,,PLC_L_D1S1,P3,60.0193739274,01,B,2014_Dez_17_1453,X,
stim/negf.jpg,stim/posf.jpg,stim/4.jpg,stim/6.jpg,stim/latef.jpg,EF,2,4,,,,,,,,,0,1,1,57,,,,,,,,,,4,1,0.649765812286,,,,,,PLC_L_D1S1,P3,60.0193739274,01,B,2014_Dez_17_1453,X,
stim/negf.jpg,stim/posf.jpg,stim/3.jpg,stim/2.jpg,stim/latef.jpg,AB,1,2,,,,,,,,,0,2,2,9,,,,,,,,,,2,1,0.666445554545,,,,,,PLC_L_D1S1,P3,60.0193739274,01,B,2014_Dez_17_1453,X,
stim/negf.jpg,stim/posf.jpg,stim/6.jpg,stim/4.jpg,stim/latef.jpg,EF,1,2,,,,,,,,,0,3,3,49,,,,,,,,,,2,1,0.599779604665,,,,,,PLC_L_D1S1,P3,60.0193739274,01,B,2014_Dez_17_1453,X,
stim/posf.jpg,stim/negf.jpg,stim/6.jpg,stim/4.jpg,stim/latef.jpg,EF,1,2,,,,,,,,,0,4,4,40,,,,,,,,,,2,1,0.48315495673,,,,,,PLC_L_D1S1,P3,60.0193739274,01,B,2014_Dez_17_1453,X,
stim/posf.jpg,stim/negf.jpg,stim/2.jpg,stim/3.jpg,stim/latef.jpg,AB,2,4,,,,,,,,,0,5,5,14,,,,,,,,,,4,1,0.899715845744,,,,,,PLC_L_D1S1,P3,60.0193739274,01,B,2014_Dez_17_1453,X,
stim/negf.jpg,stim/posf.jpg,stim/1.jpg,stim/5.jpg,stim/latef.jpg,CD,2,4,,,,,,,,,0,6,6,39,,,,,,,,,,2,0,0.983008750309,,,,,,PLC_L_D1S1,P3,60.0193739274,01,B,2014_Dez_17_1453,X,
stim/posf.jpg,stim/negf.jpg,stim/2.jpg,stim/3.jpg,stim/latef.jpg,AB,2,4,,,,,,,,,0,7,7,13,,,,,,,,,,4,1,1.04963333208,,,,,,PLC_L_D1S1,P3,60.0193739274,01,B,2014_Dez_17_1453,X,
stim/posf.jpg,stim/negf.jpg,stim/3.jpg,stim/2.jpg,stim/latef.jpg,AB,1,2,,,,,,,,,0,8,8,7,,,,,,,,,,2,1,0.866302409757,,,,,,PLC_L_D1S1,P3,60.0193739274,01,B,2014_Dez_17_1453,X,
stim/posf.jpg,stim/negf.jpg,stim/1.jpg,stim/5.jpg,stim/latef.jpg,CD,2,4,,,,,,,,,0,9,9,31,,,,,,,,,,4,1,0.733098097007,,,,,,PLC_L_D1S1,P3,60.0193739274,01,B,2014_Dez_17_1453,X,
stim/negf.jpg,stim/posf.jpg,stim/1.jpg,stim/5.jpg,stim/latef.jpg,CD,2,4,,,,,,,,,0,10,10,37,,,,,,,,,,4,1,0.883060013082,,,,,,PLC_L_D1S1,P3,60.0193739274,01,B,2014_Dez_17_1453,X,
stim/posf.jpg,stim/negf.jpg,stim/5.jpg,stim/1.jpg,stim/latef.jpg,CD,1,2,,,,,,,,,0,11,11,24,,,,,,,,,,2,1,0.866360664957,,,,,,PLC_L_D1S1,P3,60.0193739274,01,B,2014_Dez_17_1453,X,
stim/negf.jpg,stim/posf.jpg,stim/3.jpg,stim/2.jpg,stim/latef.jpg,AB,1,2,,,,,,,,,0,12,12,8,,,,,,,,,,2,1,0.866368851362,,,,,,PLC_L_D1S1,P3,60.0193739274,01,B,2014_Dez_17_1453,X,
stim/negf.jpg,stim/posf.jpg,stim/2.jpg,stim/3.jpg,stim/latef.jpg,AB,2,4,,,,,,,,,0,13,13,18,,,,,,,,,,4,1,0.899755610861,,,,,,PLC_L_D1S1,P3,60.0193739274,01,B,2014_Dez_17_1453,X,
stim/posf.jpg,stim/negf.jpg,stim/4.jpg,stim/6.jpg,stim/latef.jpg,EF,2,4,,,,,,,,,0,14,14,51,,,,,,,,,,4,1,0.616502345096,,,,,,PLC_L_D1S1,P3,60.0193739274,01,B,2014_Dez_17_1453,X,
stim/posf.jpg,stim/negf.jpg,stim/5.jpg,stim/1.jpg,stim/latef.jpg,CD,1,2,,,,,,,,,0,15,15,25,,,,,,,,,,2,1,0.93298897903,,,,,,PLC_L_D1S1,P3,60.0193739274,01,B,2014_Dez_17_1453,X,
stim/negf.jpg,stim/posf.jpg,stim/5.jpg,stim/1.jpg,stim/latef.jpg,CD,1,2,,,,,,,,,0,16,16,27,,,,,,,,,,2,1,0.933013583357,,,,,,PLC_L_D1S1,P3,60.0193739274,01,B,2014_Dez_17_1453,X,
stim/posf.jpg,stim/negf.jpg,stim/5.jpg,stim/1.jpg,stim/latef.jpg,CD,1,2,,,,,,,,,0,17,17,20,,,,,,,,,,2,1,1.06630762776,,,,,,PLC_L_D1S1,P3,60.0193739274,01,B,2014_Dez_17_1453,X,
stim/posf.jpg,stim/negf.jpg,stim/3.jpg,stim/2.jpg,stim/latef.jpg,AB,1,2,,,,,,,,,0,18,18,4,,,,,,,,,,2,1,0.766409031512,,,,,,PLC_L_D1S1,P3,60.0193739274,01,B,2014_Dez_17_1453,X,
stim/posf.jpg,stim/negf.jpg,stim/5.jpg,stim/1.jpg,stim/latef.jpg,CD,1,2,,,,,,,,,0,19,19,22,,,,,,,,,,2,1,1.08303342381,,,,,,PLC_L_D1S1,P3,60.0193739274,01,B,2014_Dez_17_1453,X,
stim/posf.jpg,stim/negf.jpg,stim/6.jpg,stim/4.jpg,stim/latef.jpg,EF,1,2,,,,,,,,,0,20,20,45,,,,,,,,,,2,1,0.616444225232,,,,,,PLC_L_D1S1,P3,60.0193739274,01,B,2014_Dez_17_1453,X,
stim/posf.jpg,stim/negf.jpg,stim/3.jpg,stim/2.jpg,stim/latef.jpg,AB,1,2,,,,,,,,,0,21,21,2,,,,,,,,,,2,1,0.783093847414,,,,,,PLC_L_D1S1,P3,60.0193739274,01,B,2014_Dez_17_1453,X,
stim/posf.jpg,stim/negf.jpg,stim/6.jpg,stim/4.jpg,stim/latef.jpg,EF,1,2,,,,,,,,,0,22,22,43,,,,,,,,,,2,1,0.599779454289,,,,,,PLC_L_D1S1,P3,60.0193739274,01,B,2014_Dez_17_1453,X,
stim/negf.jpg,stim/posf.jpg,stim/2.jpg,stim/3.jpg,stim/latef.jpg,AB,2,4,,,,,,,,,0,23,23,19,,,,,,,,,,2,0,0.733097143631,,,,,,PLC_L_D1S1,P3,60.0193739274,01,B,2014_Dez_17_1453,X,
stim/posf.jpg,stim/negf.jpg,stim/4.jpg,stim/6.jpg,stim/latef.jpg,EF,2,4,,,,,,,,,0,24,24,54,,,,,,,,,,4,1,0.816349663537,,,,,,PLC_L_D1S1,P3,60.0193739274,01,B,2014_Dez_17_1453,X,
stim/posf.jpg,stim/negf.jpg,stim/2.jpg,stim/3.jpg,stim/latef.jpg,AB,2,4,,,,,,,,,0,25,25,15,,,,,,,,,,4,1,0.683094758686,,,,,,PLC_L_D1S1,P3,60.0193739274,01,B,2014_Dez_17_1453,X,
stim/negf.jpg,stim/posf.jpg,stim/6.jpg,stim/4.jpg,stim/latef.jpg,EF,1,2,,,,,,,,,0,26,26,46,,,,,,,,,,2,1,0.666443704935,,,,,,PLC_L_D1S1,P3,60.0193739274,01,B,2014_Dez_17_1453,X,
stim/negf.jpg,stim/posf.jpg,stim/4.jpg,stim/6.jpg,stim/latef.jpg,EF,2,4,,,,,,,,,0,27,27,59,,,,,,,,,,4,1,0.666425671987,,,,,,PLC_L_D1S1,P3,60.0193739274,01,B,2014_Dez_17_1453,X,
stim/posf.jpg,stim/negf.jpg,stim/1.jpg,stim/5.jpg,stim/latef.jpg,CD,2,4,,,,,,,,,0,28,28,35,,,,,,,,,,4,1,1.26626462057,,,,,,PLC_L_D1S1,P3,60.0193739274,01,B,2014_Dez_17_1453,X,
stim/posf.jpg,stim/negf.jpg,stim/2.jpg,stim/3.jpg,stim/latef.jpg,AB,2,4,,,,,,,,,0,29,29,11,,,,,,,,,,4,1,0.883005842061,,,,,,PLC_L_D1S1,P3,60.0193739274,01,B,2014_Dez_17_1453,X,
stim/negf.jpg,stim/posf.jpg,stim/1.jpg,stim/5.jpg,stim/latef.jpg,CD,2,4,,,,,,,,,0,30,30,38,,,,,,,,,,2,0,0.816389154968,,,,,,PLC_L_D1S1,P3,60.0193739274,01,B,2014_Dez_17_1453,X,
stim/posf.jpg,stim/negf.jpg,stim/2.jpg,stim/3.jpg,stim/latef.jpg,AB,2,4,,,,,,,,,0,31,31,17,,,,,,,,,,4,1,0.833073414486,,,,,,PLC_L_D1S1,P3,60.0193739274,01,B,2014_Dez_17_1453,X,
stim/posf.jpg,stim/negf.jpg,stim/5.jpg,stim/1.jpg,stim/latef.jpg,CD,1,2,,,,,,,,,0,32,32,23,,,,,,,,,,2,1,0.899708901437,,,,,,PLC_L_D1S1,P3,60.0193739274,01,B,2014_Dez_17_1453,X,
stim/posf.jpg,stim/negf.jpg,stim/4.jpg,stim/6.jpg,stim/latef.jpg,EF,2,4,,,,,,,,,0,33,33,53,,,,,,,,,,4,1,0.833042043292,,,,,,PLC_L_D1S1,P3,60.0193739274,01,B,2014_Dez_17_1453,X,
stim/negf.jpg,stim/posf.jpg,stim/5.jpg,stim/1.jpg,stim/latef.jpg,CD,1,2,,,,,,,,,0,34,34,28,,,,,,,,,,2,1,0.933015472065,,,,,,PLC_L_D1S1,P3,60.0193739274,01,B,2014_Dez_17_1453,X,
stim/posf.jpg,stim/negf.jpg,stim/5.jpg,stim/1.jpg,stim/latef.jpg,CD,1,2,,,,,,,,,0,35,35,26,,,,,,,,,,2,1,0.849711286382,,,,,,PLC_L_D1S1,P3,60.0193739274,01,B,2014_Dez_17_1453,X,
stim/posf.jpg,stim/negf.jpg,stim/6.jpg,stim/4.jpg,stim/latef.jpg,EF,1,2,,,,,,,,,0,36,36,41,,,,,,,,,,2,1,0.766448739483,,,,,,PLC_L_D1S1,P3,60.0193739274,01,B,2014_Dez_17_1453,X,
stim/posf.jpg,stim/negf.jpg,stim/6.jpg,stim/4.jpg,stim/latef.jpg,EF,1,2,,,,,,,,,0,37,37,42,,,,,,,,,,2,1,0.466502850353,,,,,,PLC_L_D1S1,P3,60.0193739274,01,B,2014_Dez_17_1453,X,
stim/posf.jpg,stim/negf.jpg,stim/3.jpg,stim/2.jpg,stim/latef.jpg,AB,1,2,,,,,,,,,0,38,38,6,,,,,,,,,,2,1,0.783071318261,,,,,,PLC_L_D1S1,P3,60.0193739274,01,B,2014_Dez_17_1453,X,
stim/posf.jpg,stim/negf.jpg,stim/3.jpg,stim/2.jpg,stim/latef.jpg,AB,1,2,,,,,,,,,0,39,39,0,,,,,,,,,,2,1,0.649786260254,,,,,,PLC_L_D1S1,P3,60.0193739274,01,B,2014_Dez_17_1453,X,
stim/posf.jpg,stim/negf.jpg,stim/3.jpg,stim/2.jpg,stim/latef.jpg,AB,1,2,,,,,,,,,0,40,40,1,,,,,,,,,,2,1,0.516445831234,,,,,,PLC_L_D1S1,P3,60.0193739274,01,B,2014_Dez_17_1453,X,
stim/negf.jpg,stim/posf.jpg,stim/6.jpg,stim/4.jpg,stim/latef.jpg,EF,1,2,,,,,,,,,0,41,41,47,,,,,,,,,,2,1,0.649830819319,,,,,,PLC_L_D1S1,P3,60.0193739274,01,B,2014_Dez_17_1453,X,
stim/negf.jpg,stim/posf.jpg,stim/4.jpg,stim/6.jpg,stim/latef.jpg,EF,2,4,,,,,,,,,0,42,42,58,,,,,,,,,,4,1,0.699763376215,,,,,,PLC_L_D1S1,P3,60.0193739274,01,B,2014_Dez_17_1453,X,
stim/posf.jpg,stim/negf.jpg,stim/4.jpg,stim/6.jpg,stim/latef.jpg,EF,2,4,,,,,,,,,0,43,43,55,,,,,,,,,,4,1,0.549861411568,,,,,,PLC_L_D1S1,P3,60.0193739274,01,B,2014_Dez_17_1453,X,
stim/posf.jpg,stim/negf.jpg,stim/1.jpg,stim/5.jpg,stim/latef.jpg,CD,2,4,,,,,,,,,0,44,44,30,,,,,,,,,,4,1,1.04959775039,,,,,,PLC_L_D1S1,P3,60.0193739274,01,B,2014_Dez_17_1453,X,
stim/posf.jpg,stim/negf.jpg,stim/3.jpg,stim/2.jpg,stim/latef.jpg,AB,1,2,,,,,,,,,0,45,45,5,,,,,,,,,,2,1,0.866388809107,,,,,,PLC_L_D1S1,P3,60.0193739274,01,B,2014_Dez_17_1453,X,
stim/negf.jpg,stim/posf.jpg,stim/4.jpg,stim/6.jpg,stim/latef.jpg,EF,2,4,,,,,,,,,0,46,46,56,,,,,,,,,,4,1,0.63311387734,,,,,,PLC_L_D1S1,P3,60.0193739274,01,B,2014_Dez_17_1453,X,
stim/posf.jpg,stim/negf.jpg,stim/3.jpg,stim/2.jpg,stim/latef.jpg,AB,1,2,,,,,,,,,0,47,47,3,,,,,,,,,,2,1,0.883026966714,,,,,,PLC_L_D1S1,P3,60.0193739274,01,B,2014_Dez_17_1453,X,
stim/posf.jpg,stim/negf.jpg,stim/2.jpg,stim/3.jpg,stim/latef.jpg,AB,2,4,,,,,,,,,0,48,48,16,,,,,,,,,,4,1,0.982999778949,,,,,,PLC_L_D1S1,P3,60.0193739274,01,B,2014_Dez_17_1453,X,
stim/posf.jpg,stim/negf.jpg,stim/6.jpg,stim/4.jpg,stim/latef.jpg,EF,1,2,,,,,,,,,0,49,49,44,,,,,,,,,,2,1,0.56649593612,,,,,,PLC_L_D1S1,P3,60.0193739274,01,B,2014_Dez_17_1453,X,
stim/negf.jpg,stim/posf.jpg,stim/6.jpg,stim/4.jpg,stim/latef.jpg,EF,1,2,,,,,,,,,0,50,50,48,,,,,,,,,,2,1,0.46645778904,,,,,,PLC_L_D1S1,P3,60.0193739274,01,B,2014_Dez_17_1453,X,
stim/posf.jpg,stim/negf.jpg,stim/1.jpg,stim/5.jpg,stim/latef.jpg,CD,2,4,,,,,,,,,0,51,51,32,,,,,,,,,,4,1,1.36622250058,,,,,,PLC_L_D1S1,P3,60.0193739274,01,B,2014_Dez_17_1453,X,
stim/posf.jpg,stim/negf.jpg,stim/5.jpg,stim/1.jpg,stim/latef.jpg,CD,1,2,,,,,,,,,0,52,52,21,,,,,,,,,,2,1,1.14962193066,,,,,,PLC_L_D1S1,P3,60.0193739274,01,B,2014_Dez_17_1453,X,
stim/posf.jpg,stim/negf.jpg,stim/1.jpg,stim/5.jpg,stim/latef.jpg,CD,2,4,,,,,,,,,0,53,53,36,,,,,,,,,,4,1,0.766412956295,,,,,,PLC_L_D1S1,P3,60.0193739274,01,B,2014_Dez_17_1453,X,
stim/posf.jpg,stim/negf.jpg,stim/1.jpg,stim/5.jpg,stim/latef.jpg,CD,2,4,,,,,,,,,0,54,54,33,,,,,,,,,,4,1,0.866389263239,,,,,,PLC_L_D1S1,P3,60.0193739274,01,B,2014_Dez_17_1453,X,
stim/negf.jpg,stim/posf.jpg,stim/5.jpg,stim/1.jpg,stim/latef.jpg,CD,1,2,,,,,,,,,0,55,55,29,,,,,,,,,,2,1,0.816402132315,,,,,,PLC_L_D1S1,P3,60.0193739274,01,B,2014_Dez_17_1453,X,
stim/posf.jpg,stim/negf.jpg,stim/1.jpg,stim/5.jpg,stim/latef.jpg,CD,2,4,,,,,,,,,0,56,56,34,,,,,,,,,,4,1,0.799672811483,,,,,,PLC_L_D1S1,P3,60.0193739274,01,B,2014_Dez_17_1453,X,
stim/posf.jpg,stim/negf.jpg,stim/4.jpg,stim/6.jpg,stim/latef.jpg,EF,2,4,,,,,,,,,0,57,57,50,,,,,,,,,,4,1,0.64978724972,,,,,,PLC_L_D1S1,P3,60.0193739274,01,B,2014_Dez_17_1453,X,
stim/posf.jpg,stim/negf.jpg,stim/4.jpg,stim/6.jpg,stim/latef.jpg,EF,2,4,,,,,,,,,0,58,58,52,,,,,,,,,,4,1,0.433187362501,,,,,,PLC_L_D1S1,P3,60.0193739274,01,B,2014_Dez_17_1453,X,
stim/posf.jpg,stim/negf.jpg,stim/2.jpg,stim/3.jpg,stim/latef.jpg,AB,2,4,,,,,,,,,0,59,59,10,,,,,,,,,,4,1,0.949703963128,,,,,,PLC_L_D1S1,P3,60.0193739274,01,B,2014_Dez_17_1453,X,
,,,,,,,,,,,,,,,,,,,,,,,,,,,,,,,,-0.93125,-0.998046875,1,0,0,PLC_L_D1S1,P3,60.0193739274,01,B,2014_Dez_17_1453,X,
stim/posf.jpg,stim/negf.jpg,stim/4.jpg,stim/6.jpg,stim/latef.jpg,EF,2,4,,,,,,,,,,,,,0,0,0,53,,,,,,4,1,0.749761863444,,,,,,PLC_L_D1S1,P3,60.0193739274,01,B,2014_Dez_17_1453,X,
stim/posf.jpg,stim/negf.jpg,stim/1.jpg,stim/5.jpg,stim/latef.jpg,CD,2,4,,,,,,,,,,,,,0,1,1,34,,,,,,4,1,0.949693704559,,,,,,PLC_L_D1S1,P3,60.0193739274,01,B,2014_Dez_17_1453,X,
stim/posf.jpg,stim/negf.jpg,stim/4.jpg,stim/6.jpg,stim/latef.jpg,EF,2,4,,,,,,,,,,,,,0,2,2,51,,,,,,4,1,0.499823147195,,,,,,PLC_L_D1S1,P3,60.0193739274,01,B,2014_Dez_17_1453,X,
stim/negf.jpg,stim/posf.jpg,stim/1.jpg,stim/5.jpg,stim/latef.jpg,CD,2,4,,,,,,,,,,,,,0,3,3,37,,,,,,4,1,0.749764158163,,,,,,PLC_L_D1S1,P3,60.0193739274,01,B,2014_Dez_17_1453,X,
stim/posf.jpg,stim/negf.jpg,stim/6.jpg,stim/4.jpg,stim/latef.jpg,EF,1,2,,,,,,,,,,,,,0,4,4,41,,,,,,2,1,0.783050855256,,,,,,PLC_L_D1S1,P3,60.0193739274,01,B,2014_Dez_17_1453,X,
stim/negf.jpg,stim/posf.jpg,stim/6.jpg,stim/4.jpg,stim/latef.jpg,EF,1,2,,,,,,,,,,,,,0,5,5,46,,,,,,2,1,0.466510600672,,,,,,PLC_L_D1S1,P3,60.0193739274,01,B,2014_Dez_17_1453,X,
stim/posf.jpg,stim/negf.jpg,stim/5.jpg,stim/1.jpg,stim/latef.jpg,CD,1,2,,,,,,,,,,,,,0,6,6,22,,,,,,2,1,0.849738305727,,,,,,PLC_L_D1S1,P3,60.0193739274,01,B,2014_Dez_17_1453,X,
stim/negf.jpg,stim/posf.jpg,stim/5.jpg,stim/1.jpg,stim/latef.jpg,CD,1,2,,,,,,,,,,,,,0,7,7,28,,,,,,2,1,0.816395142892,,,,,,PLC_L_D1S1,P3,60.0193739274,01,B,2014_Dez_17_1453,X,
stim/negf.jpg,stim/posf.jpg,stim/4.jpg,stim/6.jpg,stim/latef.jpg,EF,2,4,,,,,,,,,,,,,0,8,8,59,,,,,,4,1,0.716445265825,,,,,,PLC_L_D1S1,P3,60.0193739274,01,B,2014_Dez_17_1453,X,
stim/negf.jpg,stim/posf.jpg,stim/5.jpg,stim/1.jpg,stim/latef.jpg,CD,1,2,,,,,,,,,,,,,0,9,9,29,,,,,,2,1,0.733111080368,,,,,,PLC_L_D1S1,P3,60.0193739274,01,B,2014_Dez_17_1453,X,
stim/negf.jpg,stim/posf.jpg,stim/6.jpg,stim/4.jpg,stim/latef.jpg,EF,1,2,,,,,,,,,,,,,0,10,10,49,,,,,,2,1,0.616475755822,,,,,,PLC_L_D1S1,P3,60.0193739274,01,B,2014_Dez_17_1453,X,
stim/posf.jpg,stim/negf.jpg,stim/2.jpg,stim/3.jpg,stim/latef.jpg,AB,2,4,,,,,,,,,,,,,0,11,11,13,,,,,,4,1,0.932997751896,,,,,,PLC_L_D1S1,P3,60.0193739274,01,B,2014_Dez_17_1453,X,
stim/posf.jpg,stim/negf.jpg,stim/3.jpg,stim/2.jpg,stim/latef.jpg,AB,1,2,,,,,,,,,,,,,0,12,12,5,,,,,,2,1,0.833065062669,,,,,,PLC_L_D1S1,P3,60.0193739274,01,B,2014_Dez_17_1453,X,
stim/posf.jpg,stim/negf.jpg,stim/5.jpg,stim/1.jpg,stim/latef.jpg,CD,1,2,,,,,,,,,,,,,0,13,13,20,,,,,,2,1,0.966367476936,,,,,,PLC_L_D1S1,P3,60.0193739274,01,B,2014_Dez_17_1453,X,
stim/negf.jpg,stim/posf.jpg,stim/2.jpg,stim/3.jpg,stim/latef.jpg,AB,2,4,,,,,,,,,,,,,0,14,14,18,,,,,,4,1,0.883040575634,,,,,,PLC_L_D1S1,P3,60.0193739274,01,B,2014_Dez_17_1453,X,
stim/posf.jpg,stim/negf.jpg,stim/5.jpg,stim/1.jpg,stim/latef.jpg,CD,1,2,,,,,,,,,,,,,0,15,15,26,,,,,,2,1,0.766418727679,,,,,,PLC_L_D1S1,P3,60.0193739274,01,B,2014_Dez_17_1453,X,
stim/posf.jpg,stim/negf.jpg,stim/6.jpg,stim/4.jpg,stim/latef.jpg,EF,1,2,,,,,,,,,,,,,0,16,16,42,,,,,,2,1,0.549818699106,,,,,,PLC_L_D1S1,P3,60.0193739274,01,B,2014_Dez_17_1453,X,
stim/posf.jpg,stim/negf.jpg,stim/3.jpg,stim/2.jpg,stim/latef.jpg,AB,1,2,,,,,,,,,,,,,0,17,17,3,,,,,,2,1,0.749752759753,,,,,,PLC_L_D1S1,P3,60.0193739274,01,B,2014_Dez_17_1453,X,
stim/negf.jpg,stim/posf.jpg,stim/3.jpg,stim/2.jpg,stim/latef.jpg,AB,1,2,,,,,,,,,,,,,0,18,18,9,,,,,,2,1,0.716445801159,,,,,,PLC_L_D1S1,P3,60.0193739274,01,B,2014_Dez_17_1453,X,
stim/negf.jpg,stim/posf.jpg,stim/4.jpg,stim/6.jpg,stim/latef.jpg,EF,2,4,,,,,,,,,,,,,0,19,19,57,,,,,,4,1,0.799740197443,,,,,,PLC_L_D1S1,P3,60.0193739274,01,B,2014_Dez_17_1453,X,
stim/posf.jpg,stim/negf.jpg,stim/1.jpg,stim/5.jpg,stim/latef.jpg,CD,2,4,,,,,,,,,,,,,0,20,20,30,,,,,,4,1,1.14960215638,,,,,,PLC_L_D1S1,P3,60.0193739274,01,B,2014_Dez_17_1453,X,
stim/posf.jpg,stim/negf.jpg,stim/4.jpg,stim/6.jpg,stim/latef.jpg,EF,2,4,,,,,,,,,,,,,0,21,21,54,,,,,,2,0,0.666468423546,,,,,,PLC_L_D1S1,P3,60.0193739274,01,B,2014_Dez_17_1453,X,
stim/posf.jpg,stim/negf.jpg,stim/5.jpg,stim/1.jpg,stim/latef.jpg,CD,1,2,,,,,,,,,,,,,0,22,22,23,,,,,,2,1,0.849743607943,,,,,,PLC_L_D1S1,P3,60.0193739274,01,B,2014_Dez_17_1453,X,
stim/posf.jpg,stim/negf.jpg,stim/1.jpg,stim/5.jpg,stim/latef.jpg,CD,2,4,,,,,,,,,,,,,0,23,23,31,,,,,,4,1,0.949697593251,,,,,,PLC_L_D1S1,P3,60.0193739274,01,B,2014_Dez_17_1453,X,
stim/negf.jpg,stim/posf.jpg,stim/2.jpg,stim/3.jpg,stim/latef.jpg,AB,2,4,,,,,,,,,,,,,0,24,24,19,,,,,,4,1,0.899636995209,,,,,,PLC_L_D1S1,P3,60.0193739274,01,B,2014_Dez_17_1453,X,
stim/posf.jpg,stim/negf.jpg,stim/3.jpg,stim/2.jpg,stim/latef.jpg,AB,1,2,,,,,,,,,,,,,0,25,25,1,,,,,,2,1,0.982919550981,,,,,,PLC_L_D1S1,P3,60.0193739274,01,B,2014_Dez_17_1453,X,
stim/posf.jpg,stim/negf.jpg,stim/3.jpg,stim/2.jpg,stim/latef.jpg,AB,1,2,,,,,,,,,,,,,0,26,26,4,,,,,,2,1,0.583076915213,,,,,,PLC_L_D1S1,P3,60.0193739274,01,B,2014_Dez_17_1453,X,
stim/posf.jpg,stim/negf.jpg,stim/6.jpg,stim/4.jpg,stim/latef.jpg,EF,1,2,,,,,,,,,,,,,0,27,27,45,,,,,,4,0,0.882972061863,,,,,,PLC_L_D1S1,P3,60.0193739274,01,B,2014_Dez_17_1453,X,
stim/posf.jpg,stim/negf.jpg,stim/4.jpg,stim/6.jpg,stim/latef.jpg,EF,2,4,,,,,,,,,,,,,0,28,28,50,,,,,,4,1,0.599774582146,,,,,,PLC_L_D1S1,P3,60.0193739274,01,B,2014_Dez_17_1453,X,
stim/posf.jpg,stim/negf.jpg,stim/6.jpg,stim/4.jpg,stim/latef.jpg,EF,1,2,,,,,,,,,,,,,0,29,29,43,,,,,,2,1,0.483158905572,,,,,,PLC_L_D1S1,P3,60.0193739274,01,B,2014_Dez_17_1453,X,
stim/posf.jpg,stim/negf.jpg,stim/2.jpg,stim/3.jpg,stim/latef.jpg,AB,2,4,,,,,,,,,,,,,0,30,30,11,,,,,,4,1,0.816388815121,,,,,,PLC_L_D1S1,P3,60.0193739274,01,B,2014_Dez_17_1453,X,
stim/posf.jpg,stim/negf.jpg,stim/6.jpg,stim/4.jpg,stim/latef.jpg,EF,1,2,,,,,,,,,,,,,0,31,31,44,,,,,,2,1,0.533145777852,,,,,,PLC_L_D1S1,P3,60.0193739274,01,B,2014_Dez_17_1453,X,
stim/posf.jpg,stim/negf.jpg,stim/2.jpg,stim/3.jpg,stim/latef.jpg,AB,2,4,,,,,,,,,,,,,0,32,32,14,,,,,,2,0,0.39980734581,,,,,,PLC_L_D1S1,P3,60.0193739274,01,B,2014_Dez_17_1453,X,
stim/negf.jpg,stim/posf.jpg,stim/6.jpg,stim/4.jpg,stim/latef.jpg,EF,1,2,,,,,,,,,,,,,0,33,33,48,,,,,,2,1,0.683034007263,,,,,,PLC_L_D1S1,P3,60.0193739274,01,B,2014_Dez_17_1453,X,
stim/posf.jpg,stim/negf.jpg,stim/1.jpg,stim/5.jpg,stim/latef.jpg,CD,2,4,,,,,,,,,,,,,0,34,34,33,,,,,,4,1,1.13297801971,,,,,,PLC_L_D1S1,P3,60.0193739274,01,B,2014_Dez_17_1453,X,
stim/posf.jpg,stim/negf.jpg,stim/2.jpg,stim/3.jpg,stim/latef.jpg,AB,2,4,,,,,,,,,,,,,0,35,35,10,,,,,,4,1,0.866385188081,,,,,,PLC_L_D1S1,P3,60.0193739274,01,B,2014_Dez_17_1453,X,
stim/posf.jpg,stim/negf.jpg,stim/5.jpg,stim/1.jpg,stim/latef.jpg,CD,1,2,,,,,,,,,,,,,0,36,36,21,,,,,,2,1,0.8330598597,,,,,,PLC_L_D1S1,P3,60.0193739274,01,B,2014_Dez_17_1453,X,
stim/posf.jpg,stim/negf.jpg,stim/3.jpg,stim/2.jpg,stim/latef.jpg,AB,1,2,,,,,,,,,,,,,0,37,37,6,,,,,,2,1,0.616424977256,,,,,,PLC_L_D1S1,P3,60.0193739274,01,B,2014_Dez_17_1453,X,
stim/negf.jpg,stim/posf.jpg,stim/1.jpg,stim/5.jpg,stim/latef.jpg,CD,2,4,,,,,,,,,,,,,0,38,38,38,,,,,,4,1,1.03298319862,,,,,,PLC_L_D1S1,P3,60.0193739274,01,B,2014_Dez_17_1453,X,
stim/negf.jpg,stim/posf.jpg,stim/3.jpg,stim/2.jpg,stim/latef.jpg,AB,1,2,,,,,,,,,,,,,0,39,39,8,,,,,,2,1,0.866368075429,,,,,,PLC_L_D1S1,P3,60.0193739274,01,B,2014_Dez_17_1453,X,
stim/posf.jpg,stim/negf.jpg,stim/3.jpg,stim/2.jpg,stim/latef.jpg,AB,1,2,,,,,,,,,,,,,0,40,40,0,,,,,,2,1,0.549826320103,,,,,,PLC_L_D1S1,P3,60.0193739274,01,B,2014_Dez_17_1453,X,
stim/posf.jpg,stim/negf.jpg,stim/4.jpg,stim/6.jpg,stim/latef.jpg,EF,2,4,,,,,,,,,,,,,0,41,41,52,,,,,,4,1,0.599805884167,,,,,,PLC_L_D1S1,P3,60.0193739274,01,B,2014_Dez_17_1453,X,
stim/posf.jpg,stim/negf.jpg,stim/1.jpg,stim/5.jpg,stim/latef.jpg,CD,2,4,,,,,,,,,,,,,0,42,42,36,,,,,,4,1,0.749765586725,,,,,,PLC_L_D1S1,P3,60.0193739274,01,B,2014_Dez_17_1453,X,
stim/posf.jpg,stim/negf.jpg,stim/3.jpg,stim/2.jpg,stim/latef.jpg,AB,1,2,,,,,,,,,,,,,0,43,43,7,,,,,,2,1,0.749743289147,,,,,,PLC_L_D1S1,P3,60.0193739274,01,B,2014_Dez_17_1453,X,
stim/posf.jpg,stim/negf.jpg,stim/6.jpg,stim/4.jpg,stim/latef.jpg,EF,1,2,,,,,,,,,,,,,0,44,44,40,,,,,,2,1,0.633109152563,,,,,,PLC_L_D1S1,P3,60.0193739274,01,B,2014_Dez_17_1453,X,
stim/posf.jpg,stim/negf.jpg,stim/2.jpg,stim/3.jpg,stim/latef.jpg,AB,2,4,,,,,,,,,,,,,0,45,45,12,,,,,,4,1,0.683109991654,,,,,,PLC_L_D1S1,P3,60.0193739274,01,B,2014_Dez_17_1453,X,
stim/posf.jpg,stim/negf.jpg,stim/1.jpg,stim/5.jpg,stim/latef.jpg,CD,2,4,,,,,,,,,,,,,0,46,46,35,,,,,,4,1,0.749761132623,,,,,,PLC_L_D1S1,P3,60.0193739274,01,B,2014_Dez_17_1453,X,
stim/posf.jpg,stim/negf.jpg,stim/4.jpg,stim/6.jpg,stim/latef.jpg,EF,2,4,,,,,,,,,,,,,0,47,47,55,,,,,,4,1,0.633123212607,,,,,,PLC_L_D1S1,P3,60.0193739274,01,B,2014_Dez_17_1453,X,
stim/posf.jpg,stim/negf.jpg,stim/1.jpg,stim/5.jpg,stim/latef.jpg,CD,2,4,,,,,,,,,,,,,0,48,48,32,,,,,,4,1,0.816392297802,,,,,,PLC_L_D1S1,P3,60.0193739274,01,B,2014_Dez_17_1453,X,
stim/negf.jpg,stim/posf.jpg,stim/4.jpg,stim/6.jpg,stim/latef.jpg,EF,2,4,,,,,,,,,,,,,0,49,49,58,,,,,,4,1,0.533165558154,,,,,,PLC_L_D1S1,P3,60.0193739274,01,B,2014_Dez_17_1453,X,
stim/negf.jpg,stim/posf.jpg,stim/5.jpg,stim/1.jpg,stim/latef.jpg,CD,1,2,,,,,,,,,,,,,0,50,50,27,,,,,,2,1,0.716453984556,,,,,,PLC_L_D1S1,P3,60.0193739274,01,B,2014_Dez_17_1453,X,
stim/negf.jpg,stim/posf.jpg,stim/6.jpg,stim/4.jpg,stim/latef.jpg,EF,1,2,,,,,,,,,,,,,0,51,51,47,,,,,,2,1,0.449836283939,,,,,,PLC_L_D1S1,P3,60.0193739274,01,B,2014_Dez_17_1453,X,
stim/negf.jpg,stim/posf.jpg,stim/1.jpg,stim/5.jpg,stim/latef.jpg,CD,2,4,,,,,,,,,,,,,0,52,52,39,,,,,,4,1,0.649782097878,,,,,,PLC_L_D1S1,P3,60.0193739274,01,B,2014_Dez_17_1453,X,
stim/posf.jpg,stim/negf.jpg,stim/2.jpg,stim/3.jpg,stim/latef.jpg,AB,2,4,,,,,,,,,,,,,0,53,53,17,,,,,,4,1,0.799737138819,,,,,,PLC_L_D1S1,P3,60.0193739274,01,B,2014_Dez_17_1453,X,
stim/negf.jpg,stim/posf.jpg,stim/4.jpg,stim/6.jpg,stim/latef.jpg,EF,2,4,,,,,,,,,,,,,0,54,54,56,,,,,,4,1,0.549844963571,,,,,,PLC_L_D1S1,P3,60.0193739274,01,B,2014_Dez_17_1453,X,
stim/posf.jpg,stim/negf.jpg,stim/5.jpg,stim/1.jpg,stim/latef.jpg,CD,1,2,,,,,,,,,,,,,0,55,55,25,,,,,,2,1,0.633114042752,,,,,,PLC_L_D1S1,P3,60.0193739274,01,B,2014_Dez_17_1453,X,
stim/posf.jpg,stim/negf.jpg,stim/3.jpg,stim/2.jpg,stim/latef.jpg,AB,1,2,,,,,,,,,,,,,0,56,56,2,,,,,,2,1,0.716432159157,,,,,,PLC_L_D1S1,P3,60.0193739274,01,B,2014_Dez_17_1453,X,
stim/posf.jpg,stim/negf.jpg,stim/5.jpg,stim/1.jpg,stim/latef.jpg,CD,1,2,,,,,,,,,,,,,0,57,57,24,,,,,,2,1,0.799772377652,,,,,,PLC_L_D1S1,P3,60.0193739274,01,B,2014_Dez_17_1453,X,
stim/posf.jpg,stim/negf.jpg,stim/2.jpg,stim/3.jpg,stim/latef.jpg,AB,2,4,,,,,,,,,,,,,0,58,58,15,,,,,,4,1,0.916374752071,,,,,,PLC_L_D1S1,P3,60.0193739274,01,B,2014_Dez_17_1453,X,
stim/posf.jpg,stim/negf.jpg,stim/2.jpg,stim/3.jpg,stim/latef.jpg,AB,2,4,,,,,,,,,,,,,0,59,59,16,,,,,,4,1,0.866379332487,,,,,,PLC_L_D1S1,P3,60.0193739274,01,B,2014_Dez_17_1453,X,
