fb_corr,fb_incorr,symbol2,symbol1,fb_late,pair,position,correct,block_01.thisRepN,block_01.thisTrialN,block_01.thisN,block_01.thisIndex,block_02.thisRepN,block_02.thisTrialN,block_02.thisN,block_02.thisIndex,block_03.thisRepN,block_03.thisTrialN,block_03.thisN,block_03.thisIndex,block_04.thisRepN,block_04.thisTrialN,block_04.thisN,block_04.thisIndex,mouse.x,mouse.y,mouse.leftButton,mouse.midButton,mouse.rightButton,buttonBox_2.keys,buttonBox_2.corr,buttonBox_2.rt,mouse_2.x,mouse_2.y,mouse_2.leftButton,mouse_2.midButton,mouse_2.rightButton,expName,Participant,frameRate,SessionNumber,Version,date,Group,
,,,,,,,,,,,,,,,,,,,,,,,,0.9984375,1.0,1,0,0,,,,,,,,,PLC_L_D1S1,P6,60.0253061177,01,C,2015_Jan_07_1438,X,
stim/negf.jpg,stim/posf.jpg,stim/4.jpg,stim/6.jpg,stim/latef.jpg,EF,2,4,0,0,0,56,,,,,,,,,,,,,,,,,,2,0,0.949653061256,,,,,,PLC_L_D1S1,P6,60.0253061177,01,C,2015_Jan_07_1438,X,
stim/posf.jpg,stim/negf.jpg,stim/3.jpg,stim/5.jpg,stim/latef.jpg,CD,1,2,0,1,1,23,,,,,,,,,,,,,,,,,,2,1,1.14963690198,,,,,,PLC_L_D1S1,P6,60.0253061177,01,C,2015_Jan_07_1438,X,
stim/posf.jpg,stim/negf.jpg,stim/2.jpg,stim/1.jpg,stim/latef.jpg,AB,2,4,0,2,2,15,,,,,,,,,,,,,,,,,,4,1,1.18294060045,,,,,,PLC_L_D1S1,P6,60.0253061177,01,C,2015_Jan_07_1438,X,
stim/posf.jpg,stim/negf.jpg,stim/4.jpg,stim/6.jpg,stim/latef.jpg,EF,2,4,0,3,3,51,,,,,,,,,,,,,,,,,,2,0,1.66613675085,,,,,,PLC_L_D1S1,P6,60.0253061177,01,C,2015_Jan_07_1438,X,
stim/posf.jpg,stim/negf.jpg,stim/6.jpg,stim/4.jpg,stim/latef.jpg,EF,1,2,0,4,4,44,,,,,,,,,,,,,,,,,,2,1,1.66606413486,,,,,,PLC_L_D1S1,P6,60.0253061177,01,C,2015_Jan_07_1438,X,
stim/posf.jpg,stim/negf.jpg,stim/5.jpg,stim/3.jpg,stim/latef.jpg,CD,2,4,0,5,5,30,,,,,,,,,,,,,,,,,,4,1,1.33290983677,,,,,,PLC_L_D1S1,P6,60.0253061177,01,C,2015_Jan_07_1438,X,
stim/posf.jpg,stim/negf.jpg,stim/6.jpg,stim/4.jpg,stim/latef.jpg,EF,1,2,0,6,6,40,,,,,,,,,,,,,,,,,,2,1,1.61612850129,,,,,,PLC_L_D1S1,P6,60.0253061177,01,C,2015_Jan_07_1438,X,
stim/negf.jpg,stim/posf.jpg,stim/5.jpg,stim/3.jpg,stim/latef.jpg,CD,2,4,0,7,7,38,,,,,,,,,,,,,,,,,,None,0,,,,,,,PLC_L_D1S1,P6,60.0253061177,01,C,2015_Jan_07_1438,X,
stim/posf.jpg,stim/negf.jpg,stim/3.jpg,stim/5.jpg,stim/latef.jpg,CD,1,2,0,8,8,24,,,,,,,,,,,,,,,,,,2,1,1.19960603304,,,,,,PLC_L_D1S1,P6,60.0253061177,01,C,2015_Jan_07_1438,X,
stim/posf.jpg,stim/negf.jpg,stim/1.jpg,stim/2.jpg,stim/latef.jpg,AB,1,2,0,9,9,5,,,,,,,,,,,,,,,,,,2,1,1.08294652822,,,,,,PLC_L_D1S1,P6,60.0253061177,01,C,2015_Jan_07_1438,X,
stim/posf.jpg,stim/negf.jpg,stim/5.jpg,stim/3.jpg,stim/latef.jpg,CD,2,4,0,10,10,34,,,,,,,,,,,,,,,,,,4,1,1.26627015737,,,,,,PLC_L_D1S1,P6,60.0253061177,01,C,2015_Jan_07_1438,X,
stim/posf.jpg,stim/negf.jpg,stim/3.jpg,stim/5.jpg,stim/latef.jpg,CD,1,2,0,11,11,26,,,,,,,,,,,,,,,,,,2,1,1.18287822197,,,,,,PLC_L_D1S1,P6,60.0253061177,01,C,2015_Jan_07_1438,X,
stim/posf.jpg,stim/negf.jpg,stim/1.jpg,stim/2.jpg,stim/latef.jpg,AB,1,2,0,12,12,6,,,,,,,,,,,,,,,,,,2,1,1.24958357005,,,,,,PLC_L_D1S1,P6,60.0253061177,01,C,2015_Jan_07_1438,X,
stim/posf.jpg,stim/negf.jpg,stim/5.jpg,stim/3.jpg,stim/latef.jpg,CD,2,4,0,13,13,33,,,,,,,,,,,,,,,,,,4,1,1.116307324,,,,,,PLC_L_D1S1,P6,60.0253061177,01,C,2015_Jan_07_1438,X,
stim/posf.jpg,stim/negf.jpg,stim/3.jpg,stim/5.jpg,stim/latef.jpg,CD,1,2,0,14,14,22,,,,,,,,,,,,,,,,,,2,1,1.49952735393,,,,,,PLC_L_D1S1,P6,60.0253061177,01,C,2015_Jan_07_1438,X,
stim/posf.jpg,stim/negf.jpg,stim/1.jpg,stim/2.jpg,stim/latef.jpg,AB,1,2,0,15,15,2,,,,,,,,,,,,,,,,,,2,1,1.21626821152,,,,,,PLC_L_D1S1,P6,60.0253061177,01,C,2015_Jan_07_1438,X,
stim/negf.jpg,stim/posf.jpg,stim/6.jpg,stim/4.jpg,stim/latef.jpg,EF,1,2,0,16,16,48,,,,,,,,,,,,,,,,,,4,0,1.16627463252,,,,,,PLC_L_D1S1,P6,60.0253061177,01,C,2015_Jan_07_1438,X,
stim/negf.jpg,stim/posf.jpg,stim/4.jpg,stim/6.jpg,stim/latef.jpg,EF,2,4,0,17,17,59,,,,,,,,,,,,,,,,,,2,0,0.866384986579,,,,,,PLC_L_D1S1,P6,60.0253061177,01,C,2015_Jan_07_1438,X,
stim/posf.jpg,stim/negf.jpg,stim/1.jpg,stim/2.jpg,stim/latef.jpg,AB,1,2,0,18,18,3,,,,,,,,,,,,,,,,,,2,1,0.883039198201,,,,,,PLC_L_D1S1,P6,60.0253061177,01,C,2015_Jan_07_1438,X,
stim/posf.jpg,stim/negf.jpg,stim/3.jpg,stim/5.jpg,stim/latef.jpg,CD,1,2,0,19,19,21,,,,,,,,,,,,,,,,,,2,1,0.833061447658,,,,,,PLC_L_D1S1,P6,60.0253061177,01,C,2015_Jan_07_1438,X,
stim/negf.jpg,stim/posf.jpg,stim/3.jpg,stim/5.jpg,stim/latef.jpg,CD,1,2,0,20,20,27,,,,,,,,,,,,,,,,,,2,1,0.749740353832,,,,,,PLC_L_D1S1,P6,60.0253061177,01,C,2015_Jan_07_1438,X,
stim/posf.jpg,stim/negf.jpg,stim/6.jpg,stim/4.jpg,stim/latef.jpg,EF,1,2,0,21,21,41,,,,,,,,,,,,,,,,,,2,1,1.58275092969,,,,,,PLC_L_D1S1,P6,60.0253061177,01,C,2015_Jan_07_1438,X,
stim/negf.jpg,stim/posf.jpg,stim/6.jpg,stim/4.jpg,stim/latef.jpg,EF,1,2,0,22,22,47,,,,,,,,,,,,,,,,,,2,1,1.01634119443,,,,,,PLC_L_D1S1,P6,60.0253061177,01,C,2015_Jan_07_1438,X,
stim/negf.jpg,stim/posf.jpg,stim/6.jpg,stim/4.jpg,stim/latef.jpg,EF,1,2,0,23,23,46,,,,,,,,,,,,,,,,,,4,0,0.816410439019,,,,,,PLC_L_D1S1,P6,60.0253061177,01,C,2015_Jan_07_1438,X,
stim/negf.jpg,stim/posf.jpg,stim/4.jpg,stim/6.jpg,stim/latef.jpg,EF,2,4,0,24,24,57,,,,,,,,,,,,,,,,,,2,0,0.899717057767,,,,,,PLC_L_D1S1,P6,60.0253061177,01,C,2015_Jan_07_1438,X,
stim/negf.jpg,stim/posf.jpg,stim/3.jpg,stim/5.jpg,stim/latef.jpg,CD,1,2,0,25,25,28,,,,,,,,,,,,,,,,,,2,1,1.09963634258,,,,,,PLC_L_D1S1,P6,60.0253061177,01,C,2015_Jan_07_1438,X,
stim/negf.jpg,stim/posf.jpg,stim/2.jpg,stim/1.jpg,stim/latef.jpg,AB,2,4,0,26,26,19,,,,,,,,,,,,,,,,,,4,1,1.24959833385,,,,,,PLC_L_D1S1,P6,60.0253061177,01,C,2015_Jan_07_1438,X,
stim/posf.jpg,stim/negf.jpg,stim/5.jpg,stim/3.jpg,stim/latef.jpg,CD,2,4,0,27,27,36,,,,,,,,,,,,,,,,,,2,0,1.132953659,,,,,,PLC_L_D1S1,P6,60.0253061177,01,C,2015_Jan_07_1438,X,
stim/posf.jpg,stim/negf.jpg,stim/5.jpg,stim/3.jpg,stim/latef.jpg,CD,2,4,0,28,28,35,,,,,,,,,,,,,,,,,,4,1,1.06623302381,,,,,,PLC_L_D1S1,P6,60.0253061177,01,C,2015_Jan_07_1438,X,
stim/posf.jpg,stim/negf.jpg,stim/5.jpg,stim/3.jpg,stim/latef.jpg,CD,2,4,0,29,29,32,,,,,,,,,,,,,,,,,,4,1,0.899709719476,,,,,,PLC_L_D1S1,P6,60.0253061177,01,C,2015_Jan_07_1438,X,
stim/posf.jpg,stim/negf.jpg,stim/2.jpg,stim/1.jpg,stim/latef.jpg,AB,2,4,0,30,30,12,,,,,,,,,,,,,,,,,,2,0,1.41619853084,,,,,,PLC_L_D1S1,P6,60.0253061177,01,C,2015_Jan_07_1438,X,
stim/posf.jpg,stim/negf.jpg,stim/4.jpg,stim/6.jpg,stim/latef.jpg,EF,2,4,0,31,31,55,,,,,,,,,,,,,,,,,,2,0,1.18294544552,,,,,,PLC_L_D1S1,P6,60.0253061177,01,C,2015_Jan_07_1438,X,
stim/posf.jpg,stim/negf.jpg,stim/2.jpg,stim/1.jpg,stim/latef.jpg,AB,2,4,0,32,32,17,,,,,,,,,,,,,,,,,,4,1,1.26617948136,,,,,,PLC_L_D1S1,P6,60.0253061177,01,C,2015_Jan_07_1438,X,
stim/posf.jpg,stim/negf.jpg,stim/3.jpg,stim/5.jpg,stim/latef.jpg,CD,1,2,0,33,33,20,,,,,,,,,,,,,,,,,,2,1,1.09963911249,,,,,,PLC_L_D1S1,P6,60.0253061177,01,C,2015_Jan_07_1438,X,
stim/negf.jpg,stim/posf.jpg,stim/5.jpg,stim/3.jpg,stim/latef.jpg,CD,2,4,0,34,34,37,,,,,,,,,,,,,,,,,,4,1,1.04966291682,,,,,,PLC_L_D1S1,P6,60.0253061177,01,C,2015_Jan_07_1438,X,
stim/posf.jpg,stim/negf.jpg,stim/1.jpg,stim/2.jpg,stim/latef.jpg,AB,1,2,0,35,35,4,,,,,,,,,,,,,,,,,,2,1,1.23287865505,,,,,,PLC_L_D1S1,P6,60.0253061177,01,C,2015_Jan_07_1438,X,
stim/negf.jpg,stim/posf.jpg,stim/4.jpg,stim/6.jpg,stim/latef.jpg,EF,2,4,0,36,36,58,,,,,,,,,,,,,,,,,,2,0,1.2996052541,,,,,,PLC_L_D1S1,P6,60.0253061177,01,C,2015_Jan_07_1438,X,
stim/posf.jpg,stim/negf.jpg,stim/2.jpg,stim/1.jpg,stim/latef.jpg,AB,2,4,0,37,37,11,,,,,,,,,,,,,,,,,,4,1,0.966351901113,,,,,,PLC_L_D1S1,P6,60.0253061177,01,C,2015_Jan_07_1438,X,
stim/posf.jpg,stim/negf.jpg,stim/4.jpg,stim/6.jpg,stim/latef.jpg,EF,2,4,0,38,38,54,,,,,,,,,,,,,,,,,,2,0,0.849725620108,,,,,,PLC_L_D1S1,P6,60.0253061177,01,C,2015_Jan_07_1438,X,
stim/posf.jpg,stim/negf.jpg,stim/1.jpg,stim/2.jpg,stim/latef.jpg,AB,1,2,0,39,39,1,,,,,,,,,,,,,,,,,,2,1,1.66608873918,,,,,,PLC_L_D1S1,P6,60.0253061177,01,C,2015_Jan_07_1438,X,
stim/posf.jpg,stim/negf.jpg,stim/3.jpg,stim/5.jpg,stim/latef.jpg,CD,1,2,0,40,40,25,,,,,,,,,,,,,,,,,,2,1,1.03297494605,,,,,,PLC_L_D1S1,P6,60.0253061177,01,C,2015_Jan_07_1438,X,
stim/posf.jpg,stim/negf.jpg,stim/6.jpg,stim/4.jpg,stim/latef.jpg,EF,1,2,0,41,41,43,,,,,,,,,,,,,,,,,,4,0,1.18294129217,,,,,,PLC_L_D1S1,P6,60.0253061177,01,C,2015_Jan_07_1438,X,
stim/posf.jpg,stim/negf.jpg,stim/2.jpg,stim/1.jpg,stim/latef.jpg,AB,2,4,0,42,42,16,,,,,,,,,,,,,,,,,,None,0,,,,,,,PLC_L_D1S1,P6,60.0253061177,01,C,2015_Jan_07_1438,X,
stim/negf.jpg,stim/posf.jpg,stim/1.jpg,stim/2.jpg,stim/latef.jpg,AB,1,2,0,43,43,8,,,,,,,,,,,,,,,,,,2,1,1.13296621228,,,,,,PLC_L_D1S1,P6,60.0253061177,01,C,2015_Jan_07_1438,X,
stim/posf.jpg,stim/negf.jpg,stim/6.jpg,stim/4.jpg,stim/latef.jpg,EF,1,2,0,44,44,42,,,,,,,,,,,,,,,,,,4,0,1.26624005233,,,,,,PLC_L_D1S1,P6,60.0253061177,01,C,2015_Jan_07_1438,X,
stim/posf.jpg,stim/negf.jpg,stim/2.jpg,stim/1.jpg,stim/latef.jpg,AB,2,4,0,45,45,13,,,,,,,,,,,,,,,,,,4,1,1.03298863317,,,,,,PLC_L_D1S1,P6,60.0253061177,01,C,2015_Jan_07_1438,X,
stim/negf.jpg,stim/posf.jpg,stim/5.jpg,stim/3.jpg,stim/latef.jpg,CD,2,4,0,46,46,39,,,,,,,,,,,,,,,,,,4,1,1.04961319389,,,,,,PLC_L_D1S1,P6,60.0253061177,01,C,2015_Jan_07_1438,X,
stim/posf.jpg,stim/negf.jpg,stim/4.jpg,stim/6.jpg,stim/latef.jpg,EF,2,4,0,47,47,50,,,,,,,,,,,,,,,,,,2,0,1.53280957888,,,,,,PLC_L_D1S1,P6,60.0253061177,01,C,2015_Jan_07_1438,X,
stim/posf.jpg,stim/negf.jpg,stim/5.jpg,stim/3.jpg,stim/latef.jpg,CD,2,4,0,48,48,31,,,,,,,,,,,,,,,,,,4,1,1.36619624213,,,,,,PLC_L_D1S1,P6,60.0253061177,01,C,2015_Jan_07_1438,X,
stim/posf.jpg,stim/negf.jpg,stim/2.jpg,stim/1.jpg,stim/latef.jpg,AB,2,4,0,49,49,10,,,,,,,,,,,,,,,,,,4,1,0.899671364877,,,,,,PLC_L_D1S1,P6,60.0253061177,01,C,2015_Jan_07_1438,X,
stim/posf.jpg,stim/negf.jpg,stim/4.jpg,stim/6.jpg,stim/latef.jpg,EF,2,4,0,50,50,52,,,,,,,,,,,,,,,,,,2,0,1.14957787084,,,,,,PLC_L_D1S1,P6,60.0253061177,01,C,2015_Jan_07_1438,X,
stim/posf.jpg,stim/negf.jpg,stim/1.jpg,stim/2.jpg,stim/latef.jpg,AB,1,2,0,51,51,0,,,,,,,,,,,,,,,,,,2,1,0.949667298742,,,,,,PLC_L_D1S1,P6,60.0253061177,01,C,2015_Jan_07_1438,X,
stim/posf.jpg,stim/negf.jpg,stim/1.jpg,stim/2.jpg,stim/latef.jpg,AB,1,2,0,52,52,7,,,,,,,,,,,,,,,,,,2,1,0.74973761701,,,,,,PLC_L_D1S1,P6,60.0253061177,01,C,2015_Jan_07_1438,X,
stim/posf.jpg,stim/negf.jpg,stim/6.jpg,stim/4.jpg,stim/latef.jpg,EF,1,2,0,53,53,45,,,,,,,,,,,,,,,,,,2,1,1.01632023519,,,,,,PLC_L_D1S1,P6,60.0253061177,01,C,2015_Jan_07_1438,X,
stim/posf.jpg,stim/negf.jpg,stim/4.jpg,stim/6.jpg,stim/latef.jpg,EF,2,4,0,54,54,53,,,,,,,,,,,,,,,,,,4,1,1.13296965286,,,,,,PLC_L_D1S1,P6,60.0253061177,01,C,2015_Jan_07_1438,X,
stim/negf.jpg,stim/posf.jpg,stim/1.jpg,stim/2.jpg,stim/latef.jpg,AB,1,2,0,55,55,9,,,,,,,,,,,,,,,,,,2,1,0.966375696423,,,,,,PLC_L_D1S1,P6,60.0253061177,01,C,2015_Jan_07_1438,X,
stim/negf.jpg,stim/posf.jpg,stim/2.jpg,stim/1.jpg,stim/latef.jpg,AB,2,4,0,56,56,18,,,,,,,,,,,,,,,,,,4,1,1.18293426666,,,,,,PLC_L_D1S1,P6,60.0253061177,01,C,2015_Jan_07_1438,X,
stim/posf.jpg,stim/negf.jpg,stim/2.jpg,stim/1.jpg,stim/latef.jpg,AB,2,4,0,57,57,14,,,,,,,,,,,,,,,,,,2,0,1.13288530161,,,,,,PLC_L_D1S1,P6,60.0253061177,01,C,2015_Jan_07_1438,X,
stim/negf.jpg,stim/posf.jpg,stim/3.jpg,stim/5.jpg,stim/latef.jpg,CD,1,2,0,58,58,29,,,,,,,,,,,,,,,,,,2,1,1.13296204389,,,,,,PLC_L_D1S1,P6,60.0253061177,01,C,2015_Jan_07_1438,X,
stim/negf.jpg,stim/posf.jpg,stim/6.jpg,stim/4.jpg,stim/latef.jpg,EF,1,2,0,59,59,49,,,,,,,,,,,,,,,,,,4,0,1.16628299336,,,,,,PLC_L_D1S1,P6,60.0253061177,01,C,2015_Jan_07_1438,X,
,,,,,,,,,,,,,,,,,,,,,,,,,,,,,,,,0.9984375,1.0,1,0,0,PLC_L_D1S1,P6,60.0253061177,01,C,2015_Jan_07_1438,X,
stim/posf.jpg,stim/negf.jpg,stim/6.jpg,stim/4.jpg,stim/latef.jpg,EF,1,2,,,,,0,0,0,44,,,,,,,,,,,,,,2,1,1.03299897896,,,,,,PLC_L_D1S1,P6,60.0253061177,01,C,2015_Jan_07_1438,X,
stim/negf.jpg,stim/posf.jpg,stim/4.jpg,stim/6.jpg,stim/latef.jpg,EF,2,4,,,,,0,1,1,56,,,,,,,,,,,,,,4,1,1.16626801904,,,,,,PLC_L_D1S1,P6,60.0253061177,01,C,2015_Jan_07_1438,X,
stim/posf.jpg,stim/negf.jpg,stim/2.jpg,stim/1.jpg,stim/latef.jpg,AB,2,4,,,,,0,2,2,15,,,,,,,,,,,,,,4,1,0.933027613326,,,,,,PLC_L_D1S1,P6,60.0253061177,01,C,2015_Jan_07_1438,X,
stim/negf.jpg,stim/posf.jpg,stim/6.jpg,stim/4.jpg,stim/latef.jpg,EF,1,2,,,,,0,3,3,48,,,,,,,,,,,,,,2,1,1.18292989977,,,,,,PLC_L_D1S1,P6,60.0253061177,01,C,2015_Jan_07_1438,X,
stim/posf.jpg,stim/negf.jpg,stim/4.jpg,stim/6.jpg,stim/latef.jpg,EF,2,4,,,,,0,4,4,53,,,,,,,,,,,,,,None,0,,,,,,,PLC_L_D1S1,P6,60.0253061177,01,C,2015_Jan_07_1438,X,
stim/negf.jpg,stim/posf.jpg,stim/5.jpg,stim/3.jpg,stim/latef.jpg,CD,2,4,,,,,0,5,5,37,,,,,,,,,,,,,,4,1,1.19960004812,,,,,,PLC_L_D1S1,P6,60.0253061177,01,C,2015_Jan_07_1438,X,
stim/posf.jpg,stim/negf.jpg,stim/3.jpg,stim/5.jpg,stim/latef.jpg,CD,1,2,,,,,0,6,6,24,,,,,,,,,,,,,,2,1,1.08298662717,,,,,,PLC_L_D1S1,P6,60.0253061177,01,C,2015_Jan_07_1438,X,
stim/posf.jpg,stim/negf.jpg,stim/4.jpg,stim/6.jpg,stim/latef.jpg,EF,2,4,,,,,0,7,7,51,,,,,,,,,,,,,,2,0,1.31622012767,,,,,,PLC_L_D1S1,P6,60.0253061177,01,C,2015_Jan_07_1438,X,
stim/posf.jpg,stim/negf.jpg,stim/1.jpg,stim/2.jpg,stim/latef.jpg,AB,1,2,,,,,0,8,8,6,,,,,,,,,,,,,,2,1,0.966296175217,,,,,,PLC_L_D1S1,P6,60.0253061177,01,C,2015_Jan_07_1438,X,
stim/posf.jpg,stim/negf.jpg,stim/1.jpg,stim/2.jpg,stim/latef.jpg,AB,1,2,,,,,0,9,9,3,,,,,,,,,,,,,,2,1,1.0495993594,,,,,,PLC_L_D1S1,P6,60.0253061177,01,C,2015_Jan_07_1438,X,
stim/posf.jpg,stim/negf.jpg,stim/5.jpg,stim/3.jpg,stim/latef.jpg,CD,2,4,,,,,0,10,10,33,,,,,,,,,,,,,,4,1,1.1329366095,,,,,,PLC_L_D1S1,P6,60.0253061177,01,C,2015_Jan_07_1438,X,
stim/posf.jpg,stim/negf.jpg,stim/1.jpg,stim/2.jpg,stim/latef.jpg,AB,1,2,,,,,0,11,11,4,,,,,,,,,,,,,,2,1,0.849663214562,,,,,,PLC_L_D1S1,P6,60.0253061177,01,C,2015_Jan_07_1438,X,
stim/posf.jpg,stim/negf.jpg,stim/2.jpg,stim/1.jpg,stim/latef.jpg,AB,2,4,,,,,0,12,12,11,,,,,,,,,,,,,,4,1,0.799754675529,,,,,,PLC_L_D1S1,P6,60.0253061177,01,C,2015_Jan_07_1438,X,
stim/negf.jpg,stim/posf.jpg,stim/3.jpg,stim/5.jpg,stim/latef.jpg,CD,1,2,,,,,0,13,13,27,,,,,,,,,,,,,,2,1,0.866359618349,,,,,,PLC_L_D1S1,P6,60.0253061177,01,C,2015_Jan_07_1438,X,
stim/posf.jpg,stim/negf.jpg,stim/4.jpg,stim/6.jpg,stim/latef.jpg,EF,2,4,,,,,0,14,14,52,,,,,,,,,,,,,,2,0,0.999644811693,,,,,,PLC_L_D1S1,P6,60.0253061177,01,C,2015_Jan_07_1438,X,
stim/negf.jpg,stim/posf.jpg,stim/4.jpg,stim/6.jpg,stim/latef.jpg,EF,2,4,,,,,0,15,15,57,,,,,,,,,,,,,,2,0,0.983017793851,,,,,,PLC_L_D1S1,P6,60.0253061177,01,C,2015_Jan_07_1438,X,
stim/posf.jpg,stim/negf.jpg,stim/2.jpg,stim/1.jpg,stim/latef.jpg,AB,2,4,,,,,0,16,16,16,,,,,,,,,,,,,,4,1,0.966399488726,,,,,,PLC_L_D1S1,P6,60.0253061177,01,C,2015_Jan_07_1438,X,
stim/posf.jpg,stim/negf.jpg,stim/6.jpg,stim/4.jpg,stim/latef.jpg,EF,1,2,,,,,0,17,17,45,,,,,,,,,,,,,,4,0,0.966365561161,,,,,,PLC_L_D1S1,P6,60.0253061177,01,C,2015_Jan_07_1438,X,
stim/posf.jpg,stim/negf.jpg,stim/3.jpg,stim/5.jpg,stim/latef.jpg,CD,1,2,,,,,0,18,18,20,,,,,,,,,,,,,,2,1,1.06627001,,,,,,PLC_L_D1S1,P6,60.0253061177,01,C,2015_Jan_07_1438,X,
stim/posf.jpg,stim/negf.jpg,stim/4.jpg,stim/6.jpg,stim/latef.jpg,EF,2,4,,,,,0,19,19,55,,,,,,,,,,,,,,2,0,1.08294634777,,,,,,PLC_L_D1S1,P6,60.0253061177,01,C,2015_Jan_07_1438,X,
stim/negf.jpg,stim/posf.jpg,stim/5.jpg,stim/3.jpg,stim/latef.jpg,CD,2,4,,,,,0,20,20,38,,,,,,,,,,,,,,4,1,1.46618071744,,,,,,PLC_L_D1S1,P6,60.0253061177,01,C,2015_Jan_07_1438,X,
stim/posf.jpg,stim/negf.jpg,stim/3.jpg,stim/5.jpg,stim/latef.jpg,CD,1,2,,,,,0,21,21,22,,,,,,,,,,,,,,2,1,1.14967545206,,,,,,PLC_L_D1S1,P6,60.0253061177,01,C,2015_Jan_07_1438,X,
stim/posf.jpg,stim/negf.jpg,stim/5.jpg,stim/3.jpg,stim/latef.jpg,CD,2,4,,,,,0,22,22,30,,,,,,,,,,,,,,4,1,1.382848144,,,,,,PLC_L_D1S1,P6,60.0253061177,01,C,2015_Jan_07_1438,X,
stim/posf.jpg,stim/negf.jpg,stim/6.jpg,stim/4.jpg,stim/latef.jpg,EF,1,2,,,,,0,23,23,43,,,,,,,,,,,,,,4,0,1.18299038353,,,,,,PLC_L_D1S1,P6,60.0253061177,01,C,2015_Jan_07_1438,X,
stim/negf.jpg,stim/posf.jpg,stim/5.jpg,stim/3.jpg,stim/latef.jpg,CD,2,4,,,,,0,24,24,39,,,,,,,,,,,,,,4,1,1.33290537966,,,,,,PLC_L_D1S1,P6,60.0253061177,01,C,2015_Jan_07_1438,X,
stim/negf.jpg,stim/posf.jpg,stim/6.jpg,stim/4.jpg,stim/latef.jpg,EF,1,2,,,,,0,25,25,49,,,,,,,,,,,,,,2,1,1.58279307073,,,,,,PLC_L_D1S1,P6,60.0253061177,01,C,2015_Jan_07_1438,X,
stim/posf.jpg,stim/negf.jpg,stim/5.jpg,stim/3.jpg,stim/latef.jpg,CD,2,4,,,,,0,26,26,36,,,,,,,,,,,,,,4,1,1.29955992511,,,,,,PLC_L_D1S1,P6,60.0253061177,01,C,2015_Jan_07_1438,X,
stim/posf.jpg,stim/negf.jpg,stim/2.jpg,stim/1.jpg,stim/latef.jpg,AB,2,4,,,,,0,27,27,17,,,,,,,,,,,,,,4,1,1.1829286667,,,,,,PLC_L_D1S1,P6,60.0253061177,01,C,2015_Jan_07_1438,X,
stim/posf.jpg,stim/negf.jpg,stim/1.jpg,stim/2.jpg,stim/latef.jpg,AB,1,2,,,,,0,28,28,0,,,,,,,,,,,,,,2,1,1.01634268915,,,,,,PLC_L_D1S1,P6,60.0253061177,01,C,2015_Jan_07_1438,X,
stim/negf.jpg,stim/posf.jpg,stim/6.jpg,stim/4.jpg,stim/latef.jpg,EF,1,2,,,,,0,29,29,47,,,,,,,,,,,,,,2,1,1.61604995451,,,,,,PLC_L_D1S1,P6,60.0253061177,01,C,2015_Jan_07_1438,X,
stim/posf.jpg,stim/negf.jpg,stim/3.jpg,stim/5.jpg,stim/latef.jpg,CD,1,2,,,,,0,30,30,23,,,,,,,,,,,,,,4,0,1.29955513718,,,,,,PLC_L_D1S1,P6,60.0253061177,01,C,2015_Jan_07_1438,X,
stim/posf.jpg,stim/negf.jpg,stim/2.jpg,stim/1.jpg,stim/latef.jpg,AB,2,4,,,,,0,31,31,10,,,,,,,,,,,,,,4,1,1.08297463027,,,,,,PLC_L_D1S1,P6,60.0253061177,01,C,2015_Jan_07_1438,X,
stim/posf.jpg,stim/negf.jpg,stim/6.jpg,stim/4.jpg,stim/latef.jpg,EF,1,2,,,,,0,32,32,40,,,,,,,,,,,,,,2,1,1.24952023218,,,,,,PLC_L_D1S1,P6,60.0253061177,01,C,2015_Jan_07_1438,X,
stim/posf.jpg,stim/negf.jpg,stim/4.jpg,stim/6.jpg,stim/latef.jpg,EF,2,4,,,,,0,33,33,50,,,,,,,,,,,,,,2,0,0.866344204931,,,,,,PLC_L_D1S1,P6,60.0253061177,01,C,2015_Jan_07_1438,X,
stim/posf.jpg,stim/negf.jpg,stim/6.jpg,stim/4.jpg,stim/latef.jpg,EF,1,2,,,,,0,34,34,42,,,,,,,,,,,,,,4,0,0.982989887294,,,,,,PLC_L_D1S1,P6,60.0253061177,01,C,2015_Jan_07_1438,X,
stim/negf.jpg,stim/posf.jpg,stim/6.jpg,stim/4.jpg,stim/latef.jpg,EF,1,2,,,,,0,35,35,46,,,,,,,,,,,,,,2,1,1.29954400944,,,,,,PLC_L_D1S1,P6,60.0253061177,01,C,2015_Jan_07_1438,X,
stim/posf.jpg,stim/negf.jpg,stim/4.jpg,stim/6.jpg,stim/latef.jpg,EF,2,4,,,,,0,36,36,54,,,,,,,,,,,,,,2,0,1.44947266562,,,,,,PLC_L_D1S1,P6,60.0253061177,01,C,2015_Jan_07_1438,X,
stim/posf.jpg,stim/negf.jpg,stim/1.jpg,stim/2.jpg,stim/latef.jpg,AB,1,2,,,,,0,37,37,1,,,,,,,,,,,,,,2,1,1.1496325772,,,,,,PLC_L_D1S1,P6,60.0253061177,01,C,2015_Jan_07_1438,X,
stim/posf.jpg,stim/negf.jpg,stim/3.jpg,stim/5.jpg,stim/latef.jpg,CD,1,2,,,,,0,38,38,26,,,,,,,,,,,,,,2,1,1.38288546101,,,,,,PLC_L_D1S1,P6,60.0253061177,01,C,2015_Jan_07_1438,X,
stim/posf.jpg,stim/negf.jpg,stim/3.jpg,stim/5.jpg,stim/latef.jpg,CD,1,2,,,,,0,39,39,25,,,,,,,,,,,,,,2,1,0.866413614935,,,,,,PLC_L_D1S1,P6,60.0253061177,01,C,2015_Jan_07_1438,X,
stim/posf.jpg,stim/negf.jpg,stim/1.jpg,stim/2.jpg,stim/latef.jpg,AB,1,2,,,,,0,40,40,7,,,,,,,,,,,,,,2,1,0.849722212615,,,,,,PLC_L_D1S1,P6,60.0253061177,01,C,2015_Jan_07_1438,X,
stim/posf.jpg,stim/negf.jpg,stim/2.jpg,stim/1.jpg,stim/latef.jpg,AB,2,4,,,,,0,41,41,14,,,,,,,,,,,,,,4,1,1.04967285359,,,,,,PLC_L_D1S1,P6,60.0253061177,01,C,2015_Jan_07_1438,X,
stim/posf.jpg,stim/negf.jpg,stim/2.jpg,stim/1.jpg,stim/latef.jpg,AB,2,4,,,,,0,42,42,13,,,,,,,,,,,,,,4,1,0.81640020451,,,,,,PLC_L_D1S1,P6,60.0253061177,01,C,2015_Jan_07_1438,X,
stim/posf.jpg,stim/negf.jpg,stim/5.jpg,stim/3.jpg,stim/latef.jpg,CD,2,4,,,,,0,43,43,35,,,,,,,,,,,,,,2,0,1.28290476011,,,,,,PLC_L_D1S1,P6,60.0253061177,01,C,2015_Jan_07_1438,X,
stim/negf.jpg,stim/posf.jpg,stim/4.jpg,stim/6.jpg,stim/latef.jpg,EF,2,4,,,,,0,44,44,59,,,,,,,,,,,,,,2,0,1.19959618349,,,,,,PLC_L_D1S1,P6,60.0253061177,01,C,2015_Jan_07_1438,X,
stim/posf.jpg,stim/negf.jpg,stim/5.jpg,stim/3.jpg,stim/latef.jpg,CD,2,4,,,,,0,45,45,32,,,,,,,,,,,,,,4,1,1.23292968925,,,,,,PLC_L_D1S1,P6,60.0253061177,01,C,2015_Jan_07_1438,X,
stim/posf.jpg,stim/negf.jpg,stim/6.jpg,stim/4.jpg,stim/latef.jpg,EF,1,2,,,,,0,46,46,41,,,,,,,,,,,,,,2,1,1.11625314396,,,,,,PLC_L_D1S1,P6,60.0253061177,01,C,2015_Jan_07_1438,X,
stim/posf.jpg,stim/negf.jpg,stim/5.jpg,stim/3.jpg,stim/latef.jpg,CD,2,4,,,,,0,47,47,31,,,,,,,,,,,,,,2,0,0.933004596958,,,,,,PLC_L_D1S1,P6,60.0253061177,01,C,2015_Jan_07_1438,X,
stim/negf.jpg,stim/posf.jpg,stim/4.jpg,stim/6.jpg,stim/latef.jpg,EF,2,4,,,,,0,48,48,58,,,,,,,,,,,,,,4,1,0.883042921482,,,,,,PLC_L_D1S1,P6,60.0253061177,01,C,2015_Jan_07_1438,X,
stim/negf.jpg,stim/posf.jpg,stim/1.jpg,stim/2.jpg,stim/latef.jpg,AB,1,2,,,,,0,49,49,8,,,,,,,,,,,,,,2,1,1.21626376945,,,,,,PLC_L_D1S1,P6,60.0253061177,01,C,2015_Jan_07_1438,X,
stim/posf.jpg,stim/negf.jpg,stim/1.jpg,stim/2.jpg,stim/latef.jpg,AB,1,2,,,,,0,50,50,2,,,,,,,,,,,,,,4,0,0.899703430801,,,,,,PLC_L_D1S1,P6,60.0253061177,01,C,2015_Jan_07_1438,X,
stim/negf.jpg,stim/posf.jpg,stim/2.jpg,stim/1.jpg,stim/latef.jpg,AB,2,4,,,,,0,51,51,18,,,,,,,,,,,,,,4,1,0.866375209209,,,,,,PLC_L_D1S1,P6,60.0253061177,01,C,2015_Jan_07_1438,X,
stim/negf.jpg,stim/posf.jpg,stim/2.jpg,stim/1.jpg,stim/latef.jpg,AB,2,4,,,,,0,52,52,19,,,,,,,,,,,,,,4,1,0.833078879106,,,,,,PLC_L_D1S1,P6,60.0253061177,01,C,2015_Jan_07_1438,X,
stim/posf.jpg,stim/negf.jpg,stim/2.jpg,stim/1.jpg,stim/latef.jpg,AB,2,4,,,,,0,53,53,12,,,,,,,,,,,,,,2,0,0.933037583176,,,,,,PLC_L_D1S1,P6,60.0253061177,01,C,2015_Jan_07_1438,X,
stim/negf.jpg,stim/posf.jpg,stim/3.jpg,stim/5.jpg,stim/latef.jpg,CD,1,2,,,,,0,54,54,29,,,,,,,,,,,,,,4,0,1.31623851851,,,,,,PLC_L_D1S1,P6,60.0253061177,01,C,2015_Jan_07_1438,X,
stim/negf.jpg,stim/posf.jpg,stim/1.jpg,stim/2.jpg,stim/latef.jpg,AB,1,2,,,,,0,55,55,9,,,,,,,,,,,,,,2,1,1.04961982842,,,,,,PLC_L_D1S1,P6,60.0253061177,01,C,2015_Jan_07_1438,X,
stim/posf.jpg,stim/negf.jpg,stim/5.jpg,stim/3.jpg,stim/latef.jpg,CD,2,4,,,,,0,56,56,34,,,,,,,,,,,,,,4,1,0.899677000925,,,,,,PLC_L_D1S1,P6,60.0253061177,01,C,2015_Jan_07_1438,X,
stim/posf.jpg,stim/negf.jpg,stim/3.jpg,stim/5.jpg,stim/latef.jpg,CD,1,2,,,,,0,57,57,21,,,,,,,,,,,,,,4,0,0.783061179991,,,,,,PLC_L_D1S1,P6,60.0253061177,01,C,2015_Jan_07_1438,X,
stim/posf.jpg,stim/negf.jpg,stim/1.jpg,stim/2.jpg,stim/latef.jpg,AB,1,2,,,,,0,58,58,5,,,,,,,,,,,,,,2,1,1.18293325614,,,,,,PLC_L_D1S1,P6,60.0253061177,01,C,2015_Jan_07_1438,X,
stim/negf.jpg,stim/posf.jpg,stim/3.jpg,stim/5.jpg,stim/latef.jpg,CD,1,2,,,,,0,59,59,28,,,,,,,,,,,,,,2,1,1.2162342208,,,,,,PLC_L_D1S1,P6,60.0253061177,01,C,2015_Jan_07_1438,X,
,,,,,,,,,,,,,,,,,,,,,,,,,,,,,,,,0.9984375,1.0,1,0,0,PLC_L_D1S1,P6,60.0253061177,01,C,2015_Jan_07_1438,X,
stim/posf.jpg,stim/negf.jpg,stim/2.jpg,stim/1.jpg,stim/latef.jpg,AB,2,4,,,,,,,,,0,0,0,16,,,,,,,,,,4,1,1.08293369524,,,,,,PLC_L_D1S1,P6,60.0253061177,01,C,2015_Jan_07_1438,X,
stim/posf.jpg,stim/negf.jpg,stim/6.jpg,stim/4.jpg,stim/latef.jpg,EF,1,2,,,,,,,,,0,1,1,41,,,,,,,,,,4,0,1.14963283584,,,,,,PLC_L_D1S1,P6,60.0253061177,01,C,2015_Jan_07_1438,X,
stim/posf.jpg,stim/negf.jpg,stim/2.jpg,stim/1.jpg,stim/latef.jpg,AB,2,4,,,,,,,,,0,2,2,14,,,,,,,,,,4,1,0.999710393155,,,,,,PLC_L_D1S1,P6,60.0253061177,01,C,2015_Jan_07_1438,X,
stim/posf.jpg,stim/negf.jpg,stim/3.jpg,stim/5.jpg,stim/latef.jpg,CD,1,2,,,,,,,,,0,3,3,25,,,,,,,,,,None,0,,,,,,,PLC_L_D1S1,P6,60.0253061177,01,C,2015_Jan_07_1438,X,
stim/negf.jpg,stim/posf.jpg,stim/6.jpg,stim/4.jpg,stim/latef.jpg,EF,1,2,,,,,,,,,0,4,4,47,,,,,,,,,,2,1,1.13298071744,,,,,,PLC_L_D1S1,P6,60.0253061177,01,C,2015_Jan_07_1438,X,
stim/negf.jpg,stim/posf.jpg,stim/5.jpg,stim/3.jpg,stim/latef.jpg,CD,2,4,,,,,,,,,0,5,5,37,,,,,,,,,,2,0,1.39956324539,,,,,,PLC_L_D1S1,P6,60.0253061177,01,C,2015_Jan_07_1438,X,
stim/negf.jpg,stim/posf.jpg,stim/2.jpg,stim/1.jpg,stim/latef.jpg,AB,2,4,,,,,,,,,0,6,6,18,,,,,,,,,,4,1,0.999681821942,,,,,,PLC_L_D1S1,P6,60.0253061177,01,C,2015_Jan_07_1438,X,
stim/posf.jpg,stim/negf.jpg,stim/2.jpg,stim/1.jpg,stim/latef.jpg,AB,2,4,,,,,,,,,0,7,7,12,,,,,,,,,,4,1,0.966344102676,,,,,,PLC_L_D1S1,P6,60.0253061177,01,C,2015_Jan_07_1438,X,
stim/posf.jpg,stim/negf.jpg,stim/4.jpg,stim/6.jpg,stim/latef.jpg,EF,2,4,,,,,,,,,0,8,8,52,,,,,,,,,,4,1,1.28292198405,,,,,,PLC_L_D1S1,P6,60.0253061177,01,C,2015_Jan_07_1438,X,
stim/posf.jpg,stim/negf.jpg,stim/5.jpg,stim/3.jpg,stim/latef.jpg,CD,2,4,,,,,,,,,0,9,9,31,,,,,,,,,,4,1,1.19959302261,,,,,,PLC_L_D1S1,P6,60.0253061177,01,C,2015_Jan_07_1438,X,
stim/negf.jpg,stim/posf.jpg,stim/6.jpg,stim/4.jpg,stim/latef.jpg,EF,1,2,,,,,,,,,0,10,10,48,,,,,,,,,,4,0,1.04961962091,,,,,,PLC_L_D1S1,P6,60.0253061177,01,C,2015_Jan_07_1438,X,
stim/posf.jpg,stim/negf.jpg,stim/3.jpg,stim/5.jpg,stim/latef.jpg,CD,1,2,,,,,,,,,0,11,11,26,,,,,,,,,,2,1,1.14961488711,,,,,,PLC_L_D1S1,P6,60.0253061177,01,C,2015_Jan_07_1438,X,
stim/negf.jpg,stim/posf.jpg,stim/5.jpg,stim/3.jpg,stim/latef.jpg,CD,2,4,,,,,,,,,0,12,12,38,,,,,,,,,,2,0,1.58279537447,,,,,,PLC_L_D1S1,P6,60.0253061177,01,C,2015_Jan_07_1438,X,
stim/posf.jpg,stim/negf.jpg,stim/2.jpg,stim/1.jpg,stim/latef.jpg,AB,2,4,,,,,,,,,0,13,13,17,,,,,,,,,,4,1,0.966344740265,,,,,,PLC_L_D1S1,P6,60.0253061177,01,C,2015_Jan_07_1438,X,
stim/negf.jpg,stim/posf.jpg,stim/6.jpg,stim/4.jpg,stim/latef.jpg,EF,1,2,,,,,,,,,0,14,14,46,,,,,,,,,,2,1,1.03302628401,,,,,,PLC_L_D1S1,P6,60.0253061177,01,C,2015_Jan_07_1438,X,
stim/negf.jpg,stim/posf.jpg,stim/3.jpg,stim/5.jpg,stim/latef.jpg,CD,1,2,,,,,,,,,0,15,15,28,,,,,,,,,,4,0,0.849730588492,,,,,,PLC_L_D1S1,P6,60.0253061177,01,C,2015_Jan_07_1438,X,
stim/posf.jpg,stim/negf.jpg,stim/2.jpg,stim/1.jpg,stim/latef.jpg,AB,2,4,,,,,,,,,0,16,16,13,,,,,,,,,,4,1,0.766465954392,,,,,,PLC_L_D1S1,P6,60.0253061177,01,C,2015_Jan_07_1438,X,
stim/posf.jpg,stim/negf.jpg,stim/4.jpg,stim/6.jpg,stim/latef.jpg,EF,2,4,,,,,,,,,0,17,17,50,,,,,,,,,,4,1,0.749751210893,,,,,,PLC_L_D1S1,P6,60.0253061177,01,C,2015_Jan_07_1438,X,
stim/posf.jpg,stim/negf.jpg,stim/5.jpg,stim/3.jpg,stim/latef.jpg,CD,2,4,,,,,,,,,0,18,18,32,,,,,,,,,,2,0,0.833039150081,,,,,,PLC_L_D1S1,P6,60.0253061177,01,C,2015_Jan_07_1438,X,
stim/posf.jpg,stim/negf.jpg,stim/5.jpg,stim/3.jpg,stim/latef.jpg,CD,2,4,,,,,,,,,0,19,19,30,,,,,,,,,,4,1,1.24956583484,,,,,,PLC_L_D1S1,P6,60.0253061177,01,C,2015_Jan_07_1438,X,
stim/negf.jpg,stim/posf.jpg,stim/4.jpg,stim/6.jpg,stim/latef.jpg,EF,2,4,,,,,,,,,0,20,20,57,,,,,,,,,,2,0,1.0496422884,,,,,,PLC_L_D1S1,P6,60.0253061177,01,C,2015_Jan_07_1438,X,
stim/posf.jpg,stim/negf.jpg,stim/3.jpg,stim/5.jpg,stim/latef.jpg,CD,1,2,,,,,,,,,0,21,21,22,,,,,,,,,,2,1,0.666436462884,,,,,,PLC_L_D1S1,P6,60.0253061177,01,C,2015_Jan_07_1438,X,
stim/negf.jpg,stim/posf.jpg,stim/1.jpg,stim/2.jpg,stim/latef.jpg,AB,1,2,,,,,,,,,0,22,22,9,,,,,,,,,,2,1,0.833046289878,,,,,,PLC_L_D1S1,P6,60.0253061177,01,C,2015_Jan_07_1438,X,
stim/posf.jpg,stim/negf.jpg,stim/1.jpg,stim/2.jpg,stim/latef.jpg,AB,1,2,,,,,,,,,0,23,23,1,,,,,,,,,,2,1,0.799738988429,,,,,,PLC_L_D1S1,P6,60.0253061177,01,C,2015_Jan_07_1438,X,
stim/posf.jpg,stim/negf.jpg,stim/6.jpg,stim/4.jpg,stim/latef.jpg,EF,1,2,,,,,,,,,0,24,24,44,,,,,,,,,,2,1,0.94967520545,,,,,,PLC_L_D1S1,P6,60.0253061177,01,C,2015_Jan_07_1438,X,
stim/posf.jpg,stim/negf.jpg,stim/3.jpg,stim/5.jpg,stim/latef.jpg,CD,1,2,,,,,,,,,0,25,25,21,,,,,,,,,,4,0,1.14955287253,,,,,,PLC_L_D1S1,P6,60.0253061177,01,C,2015_Jan_07_1438,X,
stim/negf.jpg,stim/posf.jpg,stim/3.jpg,stim/5.jpg,stim/latef.jpg,CD,1,2,,,,,,,,,0,26,26,29,,,,,,,,,,2,1,1.21625089736,,,,,,PLC_L_D1S1,P6,60.0253061177,01,C,2015_Jan_07_1438,X,
stim/posf.jpg,stim/negf.jpg,stim/4.jpg,stim/6.jpg,stim/latef.jpg,EF,2,4,,,,,,,,,0,27,27,55,,,,,,,,,,4,1,1.23296777017,,,,,,PLC_L_D1S1,P6,60.0253061177,01,C,2015_Jan_07_1438,X,
stim/posf.jpg,stim/negf.jpg,stim/1.jpg,stim/2.jpg,stim/latef.jpg,AB,1,2,,,,,,,,,0,28,28,4,,,,,,,,,,2,1,0.99973067571,,,,,,PLC_L_D1S1,P6,60.0253061177,01,C,2015_Jan_07_1438,X,
stim/posf.jpg,stim/negf.jpg,stim/3.jpg,stim/5.jpg,stim/latef.jpg,CD,1,2,,,,,,,,,0,29,29,20,,,,,,,,,,4,0,1.09964212901,,,,,,PLC_L_D1S1,P6,60.0253061177,01,C,2015_Jan_07_1438,X,
stim/posf.jpg,stim/negf.jpg,stim/6.jpg,stim/4.jpg,stim/latef.jpg,EF,1,2,,,,,,,,,0,30,30,43,,,,,,,,,,4,0,1.2995707912,,,,,,PLC_L_D1S1,P6,60.0253061177,01,C,2015_Jan_07_1438,X,
stim/negf.jpg,stim/posf.jpg,stim/4.jpg,stim/6.jpg,stim/latef.jpg,EF,2,4,,,,,,,,,0,31,31,58,,,,,,,,,,2,0,0.91634451771,,,,,,PLC_L_D1S1,P6,60.0253061177,01,C,2015_Jan_07_1438,X,
stim/negf.jpg,stim/posf.jpg,stim/6.jpg,stim/4.jpg,stim/latef.jpg,EF,1,2,,,,,,,,,0,32,32,49,,,,,,,,,,2,1,1.26625836497,,,,,,PLC_L_D1S1,P6,60.0253061177,01,C,2015_Jan_07_1438,X,
stim/posf.jpg,stim/negf.jpg,stim/1.jpg,stim/2.jpg,stim/latef.jpg,AB,1,2,,,,,,,,,0,33,33,5,,,,,,,,,,2,1,1.24957938662,,,,,,PLC_L_D1S1,P6,60.0253061177,01,C,2015_Jan_07_1438,X,
stim/posf.jpg,stim/negf.jpg,stim/3.jpg,stim/5.jpg,stim/latef.jpg,CD,1,2,,,,,,,,,0,34,34,23,,,,,,,,,,4,0,1.36622342689,,,,,,PLC_L_D1S1,P6,60.0253061177,01,C,2015_Jan_07_1438,X,
stim/posf.jpg,stim/negf.jpg,stim/2.jpg,stim/1.jpg,stim/latef.jpg,AB,2,4,,,,,,,,,0,35,35,11,,,,,,,,,,4,1,0.933015610409,,,,,,PLC_L_D1S1,P6,60.0253061177,01,C,2015_Jan_07_1438,X,
stim/posf.jpg,stim/negf.jpg,stim/1.jpg,stim/2.jpg,stim/latef.jpg,AB,1,2,,,,,,,,,0,36,36,2,,,,,,,,,,2,1,0.849726371982,,,,,,PLC_L_D1S1,P6,60.0253061177,01,C,2015_Jan_07_1438,X,
stim/posf.jpg,stim/negf.jpg,stim/6.jpg,stim/4.jpg,stim/latef.jpg,EF,1,2,,,,,,,,,0,37,37,42,,,,,,,,,,2,1,0.966352060511,,,,,,PLC_L_D1S1,P6,60.0253061177,01,C,2015_Jan_07_1438,X,
stim/posf.jpg,stim/negf.jpg,stim/6.jpg,stim/4.jpg,stim/latef.jpg,EF,1,2,,,,,,,,,0,38,38,40,,,,,,,,,,2,1,1.13296417019,,,,,,PLC_L_D1S1,P6,60.0253061177,01,C,2015_Jan_07_1438,X,
stim/posf.jpg,stim/negf.jpg,stim/5.jpg,stim/3.jpg,stim/latef.jpg,CD,2,4,,,,,,,,,0,39,39,33,,,,,,,,,,4,1,1.33284703123,,,,,,PLC_L_D1S1,P6,60.0253061177,01,C,2015_Jan_07_1438,X,
stim/posf.jpg,stim/negf.jpg,stim/1.jpg,stim/2.jpg,stim/latef.jpg,AB,1,2,,,,,,,,,0,40,40,3,,,,,,,,,,2,1,0.78307796182,,,,,,PLC_L_D1S1,P6,60.0253061177,01,C,2015_Jan_07_1438,X,
stim/negf.jpg,stim/posf.jpg,stim/5.jpg,stim/3.jpg,stim/latef.jpg,CD,2,4,,,,,,,,,0,41,41,39,,,,,,,,,,4,1,0.916374697935,,,,,,PLC_L_D1S1,P6,60.0253061177,01,C,2015_Jan_07_1438,X,
stim/posf.jpg,stim/negf.jpg,stim/2.jpg,stim/1.jpg,stim/latef.jpg,AB,2,4,,,,,,,,,0,42,42,15,,,,,,,,,,4,1,0.949614195382,,,,,,PLC_L_D1S1,P6,60.0253061177,01,C,2015_Jan_07_1438,X,
stim/negf.jpg,stim/posf.jpg,stim/1.jpg,stim/2.jpg,stim/latef.jpg,AB,1,2,,,,,,,,,0,43,43,8,,,,,,,,,,2,1,1.04966662807,,,,,,PLC_L_D1S1,P6,60.0253061177,01,C,2015_Jan_07_1438,X,
stim/negf.jpg,stim/posf.jpg,stim/3.jpg,stim/5.jpg,stim/latef.jpg,CD,1,2,,,,,,,,,0,44,44,27,,,,,,,,,,2,1,1.14960395185,,,,,,PLC_L_D1S1,P6,60.0253061177,01,C,2015_Jan_07_1438,X,
stim/posf.jpg,stim/negf.jpg,stim/4.jpg,stim/6.jpg,stim/latef.jpg,EF,2,4,,,,,,,,,0,45,45,51,,,,,,,,,,4,1,1.06632327576,,,,,,PLC_L_D1S1,P6,60.0253061177,01,C,2015_Jan_07_1438,X,
stim/posf.jpg,stim/negf.jpg,stim/6.jpg,stim/4.jpg,stim/latef.jpg,EF,1,2,,,,,,,,,0,46,46,45,,,,,,,,,,4,0,1.26622184796,,,,,,PLC_L_D1S1,P6,60.0253061177,01,C,2015_Jan_07_1438,X,
stim/posf.jpg,stim/negf.jpg,stim/2.jpg,stim/1.jpg,stim/latef.jpg,AB,2,4,,,,,,,,,0,47,47,10,,,,,,,,,,4,1,0.899696937617,,,,,,PLC_L_D1S1,P6,60.0253061177,01,C,2015_Jan_07_1438,X,
stim/negf.jpg,stim/posf.jpg,stim/4.jpg,stim/6.jpg,stim/latef.jpg,EF,2,4,,,,,,,,,0,48,48,59,,,,,,,,,,4,1,1.21627800392,,,,,,PLC_L_D1S1,P6,60.0253061177,01,C,2015_Jan_07_1438,X,
stim/posf.jpg,stim/negf.jpg,stim/5.jpg,stim/3.jpg,stim/latef.jpg,CD,2,4,,,,,,,,,0,49,49,34,,,,,,,,,,2,0,1.36618894896,,,,,,PLC_L_D1S1,P6,60.0253061177,01,C,2015_Jan_07_1438,X,
stim/posf.jpg,stim/negf.jpg,stim/1.jpg,stim/2.jpg,stim/latef.jpg,AB,1,2,,,,,,,,,0,50,50,7,,,,,,,,,,2,1,1.03295405298,,,,,,PLC_L_D1S1,P6,60.0253061177,01,C,2015_Jan_07_1438,X,
stim/negf.jpg,stim/posf.jpg,stim/2.jpg,stim/1.jpg,stim/latef.jpg,AB,2,4,,,,,,,,,0,51,51,19,,,,,,,,,,4,1,0.949697373704,,,,,,PLC_L_D1S1,P6,60.0253061177,01,C,2015_Jan_07_1438,X,
stim/posf.jpg,stim/negf.jpg,stim/5.jpg,stim/3.jpg,stim/latef.jpg,CD,2,4,,,,,,,,,0,52,52,35,,,,,,,,,,2,0,1.39954883046,,,,,,PLC_L_D1S1,P6,60.0253061177,01,C,2015_Jan_07_1438,X,
stim/posf.jpg,stim/negf.jpg,stim/4.jpg,stim/6.jpg,stim/latef.jpg,EF,2,4,,,,,,,,,0,53,53,53,,,,,,,,,,4,1,1.24957354005,,,,,,PLC_L_D1S1,P6,60.0253061177,01,C,2015_Jan_07_1438,X,
stim/posf.jpg,stim/negf.jpg,stim/1.jpg,stim/2.jpg,stim/latef.jpg,AB,1,2,,,,,,,,,0,54,54,6,,,,,,,,,,2,1,0.716440547063,,,,,,PLC_L_D1S1,P6,60.0253061177,01,C,2015_Jan_07_1438,X,
stim/posf.jpg,stim/negf.jpg,stim/3.jpg,stim/5.jpg,stim/latef.jpg,CD,1,2,,,,,,,,,0,55,55,24,,,,,,,,,,2,1,0.966362210811,,,,,,PLC_L_D1S1,P6,60.0253061177,01,C,2015_Jan_07_1438,X,
stim/posf.jpg,stim/negf.jpg,stim/1.jpg,stim/2.jpg,stim/latef.jpg,AB,1,2,,,,,,,,,0,56,56,0,,,,,,,,,,2,1,0.783110433756,,,,,,PLC_L_D1S1,P6,60.0253061177,01,C,2015_Jan_07_1438,X,
stim/posf.jpg,stim/negf.jpg,stim/4.jpg,stim/6.jpg,stim/latef.jpg,EF,2,4,,,,,,,,,0,57,57,54,,,,,,,,,,2,0,0.799639473388,,,,,,PLC_L_D1S1,P6,60.0253061177,01,C,2015_Jan_07_1438,X,
stim/posf.jpg,stim/negf.jpg,stim/5.jpg,stim/3.jpg,stim/latef.jpg,CD,2,4,,,,,,,,,0,58,58,36,,,,,,,,,,4,1,0.783076512207,,,,,,PLC_L_D1S1,P6,60.0253061177,01,C,2015_Jan_07_1438,X,
stim/negf.jpg,stim/posf.jpg,stim/4.jpg,stim/6.jpg,stim/latef.jpg,EF,2,4,,,,,,,,,0,59,59,56,,,,,,,,,,4,1,0.833052704867,,,,,,PLC_L_D1S1,P6,60.0253061177,01,C,2015_Jan_07_1438,X,
,,,,,,,,,,,,,,,,,,,,,,,,,,,,,,,,0.9984375,1.0,1,0,0,PLC_L_D1S1,P6,60.0253061177,01,C,2015_Jan_07_1438,X,
stim/posf.jpg,stim/negf.jpg,stim/6.jpg,stim/4.jpg,stim/latef.jpg,EF,1,2,,,,,,,,,,,,,0,0,0,41,,,,,,4,0,0.799715824693,,,,,,PLC_L_D1S1,P6,60.0253061177,01,C,2015_Jan_07_1438,X,
stim/posf.jpg,stim/negf.jpg,stim/2.jpg,stim/1.jpg,stim/latef.jpg,AB,2,4,,,,,,,,,,,,,0,1,1,12,,,,,,4,1,0.849743553808,,,,,,PLC_L_D1S1,P6,60.0253061177,01,C,2015_Jan_07_1438,X,
stim/posf.jpg,stim/negf.jpg,stim/6.jpg,stim/4.jpg,stim/latef.jpg,EF,1,2,,,,,,,,,,,,,0,2,2,44,,,,,,2,1,1.01633653281,,,,,,PLC_L_D1S1,P6,60.0253061177,01,C,2015_Jan_07_1438,X,
stim/posf.jpg,stim/negf.jpg,stim/3.jpg,stim/5.jpg,stim/latef.jpg,CD,1,2,,,,,,,,,,,,,0,3,3,22,,,,,,2,1,1.11632315547,,,,,,PLC_L_D1S1,P6,60.0253061177,01,C,2015_Jan_07_1438,X,
stim/negf.jpg,stim/posf.jpg,stim/2.jpg,stim/1.jpg,stim/latef.jpg,AB,2,4,,,,,,,,,,,,,0,4,4,18,,,,,,4,1,0.983017126187,,,,,,PLC_L_D1S1,P6,60.0253061177,01,C,2015_Jan_07_1438,X,
stim/posf.jpg,stim/negf.jpg,stim/5.jpg,stim/3.jpg,stim/latef.jpg,CD,2,4,,,,,,,,,,,,,0,5,5,32,,,,,,2,0,1.13297790844,,,,,,PLC_L_D1S1,P6,60.0253061177,01,C,2015_Jan_07_1438,X,
stim/posf.jpg,stim/negf.jpg,stim/6.jpg,stim/4.jpg,stim/latef.jpg,EF,1,2,,,,,,,,,,,,,0,6,6,43,,,,,,4,0,1.09964273953,,,,,,PLC_L_D1S1,P6,60.0253061177,01,C,2015_Jan_07_1438,X,
stim/posf.jpg,stim/negf.jpg,stim/3.jpg,stim/5.jpg,stim/latef.jpg,CD,1,2,,,,,,,,,,,,,0,7,7,21,,,,,,4,0,1.39949573913,,,,,,PLC_L_D1S1,P6,60.0253061177,01,C,2015_Jan_07_1438,X,
stim/posf.jpg,stim/negf.jpg,stim/3.jpg,stim/5.jpg,stim/latef.jpg,CD,1,2,,,,,,,,,,,,,0,8,8,20,,,,,,2,1,0.916355416876,,,,,,PLC_L_D1S1,P6,60.0253061177,01,C,2015_Jan_07_1438,X,
stim/posf.jpg,stim/negf.jpg,stim/4.jpg,stim/6.jpg,stim/latef.jpg,EF,2,4,,,,,,,,,,,,,0,9,9,53,,,,,,2,0,1.33287899489,,,,,,PLC_L_D1S1,P6,60.0253061177,01,C,2015_Jan_07_1438,X,
stim/posf.jpg,stim/negf.jpg,stim/1.jpg,stim/2.jpg,stim/latef.jpg,AB,1,2,,,,,,,,,,,,,0,10,10,0,,,,,,2,1,0.949652959,,,,,,PLC_L_D1S1,P6,60.0253061177,01,C,2015_Jan_07_1438,X,
stim/negf.jpg,stim/posf.jpg,stim/4.jpg,stim/6.jpg,stim/latef.jpg,EF,2,4,,,,,,,,,,,,,0,11,11,56,,,,,,2,0,1.33288201743,,,,,,PLC_L_D1S1,P6,60.0253061177,01,C,2015_Jan_07_1438,X,
stim/posf.jpg,stim/negf.jpg,stim/2.jpg,stim/1.jpg,stim/latef.jpg,AB,2,4,,,,,,,,,,,,,0,12,12,14,,,,,,4,1,0.916399711281,,,,,,PLC_L_D1S1,P6,60.0253061177,01,C,2015_Jan_07_1438,X,
stim/posf.jpg,stim/negf.jpg,stim/3.jpg,stim/5.jpg,stim/latef.jpg,CD,1,2,,,,,,,,,,,,,0,13,13,23,,,,,,2,1,1.116332596,,,,,,PLC_L_D1S1,P6,60.0253061177,01,C,2015_Jan_07_1438,X,
stim/posf.jpg,stim/negf.jpg,stim/4.jpg,stim/6.jpg,stim/latef.jpg,EF,2,4,,,,,,,,,,,,,0,14,14,52,,,,,,4,1,1.53277896256,,,,,,PLC_L_D1S1,P6,60.0253061177,01,C,2015_Jan_07_1438,X,
stim/posf.jpg,stim/negf.jpg,stim/1.jpg,stim/2.jpg,stim/latef.jpg,AB,1,2,,,,,,,,,,,,,0,15,15,4,,,,,,2,1,1.09961129616,,,,,,PLC_L_D1S1,P6,60.0253061177,01,C,2015_Jan_07_1438,X,
stim/negf.jpg,stim/posf.jpg,stim/6.jpg,stim/4.jpg,stim/latef.jpg,EF,1,2,,,,,,,,,,,,,0,16,16,49,,,,,,2,1,1.43284876956,,,,,,PLC_L_D1S1,P6,60.0253061177,01,C,2015_Jan_07_1438,X,
stim/negf.jpg,stim/posf.jpg,stim/6.jpg,stim/4.jpg,stim/latef.jpg,EF,1,2,,,,,,,,,,,,,0,17,17,46,,,,,,4,0,0.566489091059,,,,,,PLC_L_D1S1,P6,60.0253061177,01,C,2015_Jan_07_1438,X,
stim/posf.jpg,stim/negf.jpg,stim/3.jpg,stim/5.jpg,stim/latef.jpg,CD,1,2,,,,,,,,,,,,,0,18,18,24,,,,,,2,1,1.08295465748,,,,,,PLC_L_D1S1,P6,60.0253061177,01,C,2015_Jan_07_1438,X,
stim/posf.jpg,stim/negf.jpg,stim/1.jpg,stim/2.jpg,stim/latef.jpg,AB,1,2,,,,,,,,,,,,,0,19,19,2,,,,,,2,1,0.816386881302,,,,,,PLC_L_D1S1,P6,60.0253061177,01,C,2015_Jan_07_1438,X,
stim/posf.jpg,stim/negf.jpg,stim/3.jpg,stim/5.jpg,stim/latef.jpg,CD,1,2,,,,,,,,,,,,,0,20,20,25,,,,,,2,1,1.41621977278,,,,,,PLC_L_D1S1,P6,60.0253061177,01,C,2015_Jan_07_1438,X,
stim/posf.jpg,stim/negf.jpg,stim/5.jpg,stim/3.jpg,stim/latef.jpg,CD,2,4,,,,,,,,,,,,,0,21,21,34,,,,,,4,1,0.949638483921,,,,,,PLC_L_D1S1,P6,60.0253061177,01,C,2015_Jan_07_1438,X,
stim/negf.jpg,stim/posf.jpg,stim/5.jpg,stim/3.jpg,stim/latef.jpg,CD,2,4,,,,,,,,,,,,,0,22,22,37,,,,,,4,1,0.749793839144,,,,,,PLC_L_D1S1,P6,60.0253061177,01,C,2015_Jan_07_1438,X,
stim/posf.jpg,stim/negf.jpg,stim/6.jpg,stim/4.jpg,stim/latef.jpg,EF,1,2,,,,,,,,,,,,,0,23,23,40,,,,,,4,0,1.58281544049,,,,,,PLC_L_D1S1,P6,60.0253061177,01,C,2015_Jan_07_1438,X,
stim/negf.jpg,stim/posf.jpg,stim/1.jpg,stim/2.jpg,stim/latef.jpg,AB,1,2,,,,,,,,,,,,,0,24,24,9,,,,,,2,1,0.783104502973,,,,,,PLC_L_D1S1,P6,60.0253061177,01,C,2015_Jan_07_1438,X,
stim/negf.jpg,stim/posf.jpg,stim/5.jpg,stim/3.jpg,stim/latef.jpg,CD,2,4,,,,,,,,,,,,,0,25,25,39,,,,,,4,1,1.13294736731,,,,,,PLC_L_D1S1,P6,60.0253061177,01,C,2015_Jan_07_1438,X,
stim/posf.jpg,stim/negf.jpg,stim/5.jpg,stim/3.jpg,stim/latef.jpg,CD,2,4,,,,,,,,,,,,,0,26,26,33,,,,,,2,0,0.883018202871,,,,,,PLC_L_D1S1,P6,60.0253061177,01,C,2015_Jan_07_1438,X,
stim/posf.jpg,stim/negf.jpg,stim/6.jpg,stim/4.jpg,stim/latef.jpg,EF,1,2,,,,,,,,,,,,,0,27,27,42,,,,,,4,0,1.09962744942,,,,,,PLC_L_D1S1,P6,60.0253061177,01,C,2015_Jan_07_1438,X,
stim/posf.jpg,stim/negf.jpg,stim/2.jpg,stim/1.jpg,stim/latef.jpg,AB,2,4,,,,,,,,,,,,,0,28,28,13,,,,,,4,1,0.866321877279,,,,,,PLC_L_D1S1,P6,60.0253061177,01,C,2015_Jan_07_1438,X,
stim/posf.jpg,stim/negf.jpg,stim/2.jpg,stim/1.jpg,stim/latef.jpg,AB,2,4,,,,,,,,,,,,,0,29,29,10,,,,,,4,1,0.749751144728,,,,,,PLC_L_D1S1,P6,60.0253061177,01,C,2015_Jan_07_1438,X,
stim/posf.jpg,stim/negf.jpg,stim/1.jpg,stim/2.jpg,stim/latef.jpg,AB,1,2,,,,,,,,,,,,,0,30,30,5,,,,,,2,1,0.749737346336,,,,,,PLC_L_D1S1,P6,60.0253061177,01,C,2015_Jan_07_1438,X,
stim/negf.jpg,stim/posf.jpg,stim/4.jpg,stim/6.jpg,stim/latef.jpg,EF,2,4,,,,,,,,,,,,,0,31,31,58,,,,,,4,1,1.23291809836,,,,,,PLC_L_D1S1,P6,60.0253061177,01,C,2015_Jan_07_1438,X,
stim/negf.jpg,stim/posf.jpg,stim/6.jpg,stim/4.jpg,stim/latef.jpg,EF,1,2,,,,,,,,,,,,,0,32,32,47,,,,,,4,0,1.11628698431,,,,,,PLC_L_D1S1,P6,60.0253061177,01,C,2015_Jan_07_1438,X,
stim/posf.jpg,stim/negf.jpg,stim/4.jpg,stim/6.jpg,stim/latef.jpg,EF,2,4,,,,,,,,,,,,,0,33,33,54,,,,,,2,0,0.716425807325,,,,,,PLC_L_D1S1,P6,60.0253061177,01,C,2015_Jan_07_1438,X,
stim/posf.jpg,stim/negf.jpg,stim/6.jpg,stim/4.jpg,stim/latef.jpg,EF,1,2,,,,,,,,,,,,,0,34,34,45,,,,,,4,0,0.749716744987,,,,,,PLC_L_D1S1,P6,60.0253061177,01,C,2015_Jan_07_1438,X,
stim/negf.jpg,stim/posf.jpg,stim/3.jpg,stim/5.jpg,stim/latef.jpg,CD,1,2,,,,,,,,,,,,,0,35,35,28,,,,,,2,1,0.88297926181,,,,,,PLC_L_D1S1,P6,60.0253061177,01,C,2015_Jan_07_1438,X,
stim/posf.jpg,stim/negf.jpg,stim/2.jpg,stim/1.jpg,stim/latef.jpg,AB,2,4,,,,,,,,,,,,,0,36,36,17,,,,,,4,1,1.08300017594,,,,,,PLC_L_D1S1,P6,60.0253061177,01,C,2015_Jan_07_1438,X,
stim/posf.jpg,stim/negf.jpg,stim/4.jpg,stim/6.jpg,stim/latef.jpg,EF,2,4,,,,,,,,,,,,,0,37,37,51,,,,,,2,0,1.24956686942,,,,,,PLC_L_D1S1,P6,60.0253061177,01,C,2015_Jan_07_1438,X,
stim/posf.jpg,stim/negf.jpg,stim/4.jpg,stim/6.jpg,stim/latef.jpg,EF,2,4,,,,,,,,,,,,,0,38,38,50,,,,,,4,1,1.26626248524,,,,,,PLC_L_D1S1,P6,60.0253061177,01,C,2015_Jan_07_1438,X,
stim/posf.jpg,stim/negf.jpg,stim/4.jpg,stim/6.jpg,stim/latef.jpg,EF,2,4,,,,,,,,,,,,,0,39,39,55,,,,,,4,1,1.5827972331,,,,,,PLC_L_D1S1,P6,60.0253061177,01,C,2015_Jan_07_1438,X,
stim/posf.jpg,stim/negf.jpg,stim/2.jpg,stim/1.jpg,stim/latef.jpg,AB,2,4,,,,,,,,,,,,,0,40,40,16,,,,,,4,1,0.89969853159,,,,,,PLC_L_D1S1,P6,60.0253061177,01,C,2015_Jan_07_1438,X,
stim/posf.jpg,stim/negf.jpg,stim/5.jpg,stim/3.jpg,stim/latef.jpg,CD,2,4,,,,,,,,,,,,,0,41,41,30,,,,,,4,1,1.18294532522,,,,,,PLC_L_D1S1,P6,60.0253061177,01,C,2015_Jan_07_1438,X,
stim/negf.jpg,stim/posf.jpg,stim/6.jpg,stim/4.jpg,stim/latef.jpg,EF,1,2,,,,,,,,,,,,,0,42,42,48,,,,,,2,1,1.29951504726,,,,,,PLC_L_D1S1,P6,60.0253061177,01,C,2015_Jan_07_1438,X,
stim/posf.jpg,stim/negf.jpg,stim/1.jpg,stim/2.jpg,stim/latef.jpg,AB,1,2,,,,,,,,,,,,,0,43,43,6,,,,,,2,1,0.783059817595,,,,,,PLC_L_D1S1,P6,60.0253061177,01,C,2015_Jan_07_1438,X,
stim/negf.jpg,stim/posf.jpg,stim/5.jpg,stim/3.jpg,stim/latef.jpg,CD,2,4,,,,,,,,,,,,,0,44,44,38,,,,,,4,1,0.866383639221,,,,,,PLC_L_D1S1,P6,60.0253061177,01,C,2015_Jan_07_1438,X,
stim/posf.jpg,stim/negf.jpg,stim/5.jpg,stim/3.jpg,stim/latef.jpg,CD,2,4,,,,,,,,,,,,,0,45,45,31,,,,,,4,1,1.34955515823,,,,,,PLC_L_D1S1,P6,60.0253061177,01,C,2015_Jan_07_1438,X,
stim/posf.jpg,stim/negf.jpg,stim/1.jpg,stim/2.jpg,stim/latef.jpg,AB,1,2,,,,,,,,,,,,,0,46,46,3,,,,,,2,1,0.949659828121,,,,,,PLC_L_D1S1,P6,60.0253061177,01,C,2015_Jan_07_1438,X,
stim/posf.jpg,stim/negf.jpg,stim/1.jpg,stim/2.jpg,stim/latef.jpg,AB,1,2,,,,,,,,,,,,,0,47,47,7,,,,,,2,1,0.749664182976,,,,,,PLC_L_D1S1,P6,60.0253061177,01,C,2015_Jan_07_1438,X,
stim/posf.jpg,stim/negf.jpg,stim/5.jpg,stim/3.jpg,stim/latef.jpg,CD,2,4,,,,,,,,,,,,,0,48,48,36,,,,,,2,0,1.03299395644,,,,,,PLC_L_D1S1,P6,60.0253061177,01,C,2015_Jan_07_1438,X,
stim/posf.jpg,stim/negf.jpg,stim/3.jpg,stim/5.jpg,stim/latef.jpg,CD,1,2,,,,,,,,,,,,,0,49,49,26,,,,,,4,0,0.783071074654,,,,,,PLC_L_D1S1,P6,60.0253061177,01,C,2015_Jan_07_1438,X,
stim/negf.jpg,stim/posf.jpg,stim/3.jpg,stim/5.jpg,stim/latef.jpg,CD,1,2,,,,,,,,,,,,,0,50,50,29,,,,,,2,1,0.683060933376,,,,,,PLC_L_D1S1,P6,60.0253061177,01,C,2015_Jan_07_1438,X,
stim/negf.jpg,stim/posf.jpg,stim/4.jpg,stim/6.jpg,stim/latef.jpg,EF,2,4,,,,,,,,,,,,,0,51,51,57,,,,,,2,0,1.24956195517,,,,,,PLC_L_D1S1,P6,60.0253061177,01,C,2015_Jan_07_1438,X,
stim/negf.jpg,stim/posf.jpg,stim/2.jpg,stim/1.jpg,stim/latef.jpg,AB,2,4,,,,,,,,,,,,,0,52,52,19,,,,,,4,1,1.01632965166,,,,,,PLC_L_D1S1,P6,60.0253061177,01,C,2015_Jan_07_1438,X,
stim/posf.jpg,stim/negf.jpg,stim/2.jpg,stim/1.jpg,stim/latef.jpg,AB,2,4,,,,,,,,,,,,,0,53,53,15,,,,,,4,1,0.949688486553,,,,,,PLC_L_D1S1,P6,60.0253061177,01,C,2015_Jan_07_1438,X,
stim/posf.jpg,stim/negf.jpg,stim/1.jpg,stim/2.jpg,stim/latef.jpg,AB,1,2,,,,,,,,,,,,,0,54,54,1,,,,,,2,1,0.849695596274,,,,,,PLC_L_D1S1,P6,60.0253061177,01,C,2015_Jan_07_1438,X,
stim/negf.jpg,stim/posf.jpg,stim/4.jpg,stim/6.jpg,stim/latef.jpg,EF,2,4,,,,,,,,,,,,,0,55,55,59,,,,,,2,0,1.09959905865,,,,,,PLC_L_D1S1,P6,60.0253061177,01,C,2015_Jan_07_1438,X,
stim/negf.jpg,stim/posf.jpg,stim/1.jpg,stim/2.jpg,stim/latef.jpg,AB,1,2,,,,,,,,,,,,,0,56,56,8,,,,,,2,1,0.849716826189,,,,,,PLC_L_D1S1,P6,60.0253061177,01,C,2015_Jan_07_1438,X,
stim/negf.jpg,stim/posf.jpg,stim/3.jpg,stim/5.jpg,stim/latef.jpg,CD,1,2,,,,,,,,,,,,,0,57,57,27,,,,,,2,1,0.949661677731,,,,,,PLC_L_D1S1,P6,60.0253061177,01,C,2015_Jan_07_1438,X,
stim/posf.jpg,stim/negf.jpg,stim/5.jpg,stim/3.jpg,stim/latef.jpg,CD,2,4,,,,,,,,,,,,,0,58,58,35,,,,,,4,1,0.816370102481,,,,,,PLC_L_D1S1,P6,60.0253061177,01,C,2015_Jan_07_1438,X,
stim/posf.jpg,stim/negf.jpg,stim/2.jpg,stim/1.jpg,stim/latef.jpg,AB,2,4,,,,,,,,,,,,,0,59,59,11,,,,,,4,1,0.933022903587,,,,,,PLC_L_D1S1,P6,60.0253061177,01,C,2015_Jan_07_1438,X,
