symbol2,symbol1,decisionID,correct,block_01.thisRepN,block_01.thisTrialN,block_01.thisN,block_01.thisIndex,mouse.x,mouse.y,mouse.leftButton,mouse.midButton,mouse.rightButton,buttonBox_2.keys,buttonBox_2.corr,buttonBox_2.rt,date,Participant,expName,Group,frameRate,
,,,,,,,,-0.790625,0.7890625,1,0,0,,,,2016_Jun_27_0939,P1,PLC_T_D1S1,NHGX,60.0241607613,
stim/2.jpg,stim/4.jpg,4,4,0,0,0,20,,,,,,2,0,1.0163449538,2016_Jun_27_0939,P1,PLC_T_D1S1,NHGX,60.0241607613,
stim/3.jpg,stim/5.jpg,7,2,0,1,1,16,,,,,,4,0,1.24959941053,2016_Jun_27_0939,P1,PLC_T_D1S1,NHGX,60.0241607613,
stim/3.jpg,stim/2.jpg,1,2,0,2,2,0,,,,,,4,0,1.28291443824,2016_Jun_27_0939,P1,PLC_T_D1S1,NHGX,60.0241607613,
stim/3.jpg,stim/1.jpg,6,2,0,3,3,11,,,,,,2,1,1.66609790302,2016_Jun_27_0939,P1,PLC_T_D1S1,NHGX,60.0241607613,
stim/5.jpg,stim/4.jpg,13,2,0,4,4,23,,,,,,2,1,1.48284468237,2016_Jun_27_0939,P1,PLC_T_D1S1,NHGX,60.0241607613,
stim/4.jpg,stim/5.jpg,13,4,0,5,5,18,,,,,,4,1,1.29955658078,2016_Jun_27_0939,P1,PLC_T_D1S1,NHGX,60.0241607613,
stim/1.jpg,stim/6.jpg,12,4,0,6,6,27,,,,,,4,1,1.63278630086,2016_Jun_27_0939,P1,PLC_T_D1S1,NHGX,60.0241607613,
stim/6.jpg,stim/1.jpg,12,2,0,7,7,14,,,,,,None,0,,2016_Jun_27_0939,P1,PLC_T_D1S1,NHGX,60.0241607613,
stim/5.jpg,stim/6.jpg,14,2,0,8,8,28,,,,,,4,0,1.59946727318,2016_Jun_27_0939,P1,PLC_T_D1S1,NHGX,60.0241607613,
stim/6.jpg,stim/5.jpg,14,4,0,9,9,19,,,,,,4,1,1.41620607364,2016_Jun_27_0939,P1,PLC_T_D1S1,NHGX,60.0241607613,
stim/5.jpg,stim/3.jpg,7,4,0,10,10,7,,,,,,2,0,1.38288531665,2016_Jun_27_0939,P1,PLC_T_D1S1,NHGX,60.0241607613,
stim/3.jpg,stim/4.jpg,8,2,0,11,11,21,,,,,,2,1,1.08291761115,2016_Jun_27_0939,P1,PLC_T_D1S1,NHGX,60.0241607613,
stim/1.jpg,stim/4.jpg,11,4,0,12,12,22,,,,,,4,1,1.19957395208,2016_Jun_27_0939,P1,PLC_T_D1S1,NHGX,60.0241607613,
stim/6.jpg,stim/3.jpg,9,4,0,13,13,9,,,,,,2,0,1.41620398042,2016_Jun_27_0939,P1,PLC_T_D1S1,NHGX,60.0241607613,
stim/5.jpg,stim/1.jpg,10,2,0,14,14,12,,,,,,4,0,1.38288796325,2016_Jun_27_0939,P1,PLC_T_D1S1,NHGX,60.0241607613,
stim/4.jpg,stim/2.jpg,4,2,0,15,15,3,,,,,,4,0,0.916373645311,2016_Jun_27_0939,P1,PLC_T_D1S1,NHGX,60.0241607613,
stim/3.jpg,stim/6.jpg,9,2,0,16,16,26,,,,,,4,0,1.06636759423,2016_Jun_27_0939,P1,PLC_T_D1S1,NHGX,60.0241607613,
stim/6.jpg,stim/4.jpg,15,2,0,17,17,24,,,,,,2,1,1.09968985797,2016_Jun_27_0939,P1,PLC_T_D1S1,NHGX,60.0241607613,
stim/1.jpg,stim/5.jpg,10,4,0,18,18,17,,,,,,4,1,1.38294166811,2016_Jun_27_0939,P1,PLC_T_D1S1,NHGX,60.0241607613,
stim/2.jpg,stim/5.jpg,3,4,0,19,19,15,,,,,,4,1,1.38287465508,2016_Jun_27_0939,P1,PLC_T_D1S1,NHGX,60.0241607613,
stim/4.jpg,stim/6.jpg,15,4,0,20,20,29,,,,,,4,1,1.3495689085,2016_Jun_27_0939,P1,PLC_T_D1S1,NHGX,60.0241607613,
stim/2.jpg,stim/6.jpg,5,4,0,21,21,25,,,,,,4,1,1.29956901978,2016_Jun_27_0939,P1,PLC_T_D1S1,NHGX,60.0241607613,
stim/4.jpg,stim/3.jpg,8,4,0,22,22,8,,,,,,2,0,1.53281575326,2016_Jun_27_0939,P1,PLC_T_D1S1,NHGX,60.0241607613,
stim/1.jpg,stim/2.jpg,2,2,0,23,23,1,,,,,,4,0,1.19958031894,2016_Jun_27_0939,P1,PLC_T_D1S1,NHGX,60.0241607613,
stim/5.jpg,stim/2.jpg,3,2,0,24,24,2,,,,,,2,1,1.2995708724,2016_Jun_27_0939,P1,PLC_T_D1S1,NHGX,60.0241607613,
stim/4.jpg,stim/1.jpg,11,2,0,25,25,13,,,,,,2,1,1.29961396982,2016_Jun_27_0939,P1,PLC_T_D1S1,NHGX,60.0241607613,
stim/6.jpg,stim/2.jpg,5,2,0,26,26,4,,,,,,4,0,1.14959502861,2016_Jun_27_0939,P1,PLC_T_D1S1,NHGX,60.0241607613,
stim/2.jpg,stim/1.jpg,2,4,0,27,27,10,,,,,,4,1,0.983027739641,2016_Jun_27_0939,P1,PLC_T_D1S1,NHGX,60.0241607613,
stim/1.jpg,stim/3.jpg,6,4,0,28,28,6,,,,,,2,0,1.31620774881,2016_Jun_27_0939,P1,PLC_T_D1S1,NHGX,60.0241607613,
stim/2.jpg,stim/3.jpg,1,4,0,29,29,5,,,,,,2,0,0.98301535778,2016_Jun_27_0939,P1,PLC_T_D1S1,NHGX,60.0241607613,
stim/3.jpg,stim/2.jpg,1,2,1,0,30,0,,,,,,2,1,1.46618137307,2016_Jun_27_0939,P1,PLC_T_D1S1,NHGX,60.0241607613,
stim/4.jpg,stim/5.jpg,13,4,1,1,31,18,,,,,,4,1,1.54951284878,2016_Jun_27_0939,P1,PLC_T_D1S1,NHGX,60.0241607613,
stim/2.jpg,stim/1.jpg,2,4,1,2,32,10,,,,,,4,1,1.23293760799,2016_Jun_27_0939,P1,PLC_T_D1S1,NHGX,60.0241607613,
stim/3.jpg,stim/5.jpg,7,2,1,3,33,16,,,,,,4,0,1.26617536109,2016_Jun_27_0939,P1,PLC_T_D1S1,NHGX,60.0241607613,
stim/3.jpg,stim/1.jpg,6,2,1,4,34,11,,,,,,4,0,1.21628752566,2016_Jun_27_0939,P1,PLC_T_D1S1,NHGX,60.0241607613,
stim/6.jpg,stim/4.jpg,15,2,1,5,35,24,,,,,,2,1,1.16628099939,2016_Jun_27_0939,P1,PLC_T_D1S1,NHGX,60.0241607613,
stim/2.jpg,stim/3.jpg,1,4,1,6,36,5,,,,,,4,1,1.18294149067,2016_Jun_27_0939,P1,PLC_T_D1S1,NHGX,60.0241607613,
stim/4.jpg,stim/3.jpg,8,4,1,7,37,8,,,,,,4,1,1.06631474651,2016_Jun_27_0939,P1,PLC_T_D1S1,NHGX,60.0241607613,
stim/6.jpg,stim/2.jpg,5,2,1,8,38,4,,,,,,4,0,0.916377127992,2016_Jun_27_0939,P1,PLC_T_D1S1,NHGX,60.0241607613,
stim/4.jpg,stim/1.jpg,11,2,1,9,39,13,,,,,,2,1,1.29956936865,2016_Jun_27_0939,P1,PLC_T_D1S1,NHGX,60.0241607613,
stim/1.jpg,stim/3.jpg,6,4,1,10,40,6,,,,,,2,0,0.866367925053,2016_Jun_27_0939,P1,PLC_T_D1S1,NHGX,60.0241607613,
stim/3.jpg,stim/6.jpg,9,2,1,11,41,26,,,,,,2,1,1.18294177939,2016_Jun_27_0939,P1,PLC_T_D1S1,NHGX,60.0241607613,
stim/2.jpg,stim/5.jpg,3,4,1,12,42,15,,,,,,4,1,1.19961089014,2016_Jun_27_0939,P1,PLC_T_D1S1,NHGX,60.0241607613,
stim/5.jpg,stim/3.jpg,7,4,1,13,43,7,,,,,,4,1,1.23285938602,2016_Jun_27_0939,P1,PLC_T_D1S1,NHGX,60.0241607613,
stim/5.jpg,stim/4.jpg,13,2,1,14,44,23,,,,,,4,0,1.366193379,2016_Jun_27_0939,P1,PLC_T_D1S1,NHGX,60.0241607613,
stim/5.jpg,stim/1.jpg,10,2,1,15,45,12,,,,,,2,1,1.04965476651,2016_Jun_27_0939,P1,PLC_T_D1S1,NHGX,60.0241607613,
stim/6.jpg,stim/1.jpg,12,2,1,16,46,14,,,,,,2,1,1.29955909805,2016_Jun_27_0939,P1,PLC_T_D1S1,NHGX,60.0241607613,
stim/6.jpg,stim/3.jpg,9,4,1,17,47,9,,,,,,2,0,1.382886258,2016_Jun_27_0939,P1,PLC_T_D1S1,NHGX,60.0241607613,
stim/4.jpg,stim/6.jpg,15,4,1,18,48,29,,,,,,4,1,0.883037005737,2016_Jun_27_0939,P1,PLC_T_D1S1,NHGX,60.0241607613,
stim/2.jpg,stim/6.jpg,5,4,1,19,49,25,,,,,,4,1,1.41618878053,2016_Jun_27_0939,P1,PLC_T_D1S1,NHGX,60.0241607613,
stim/1.jpg,stim/5.jpg,10,4,1,20,50,17,,,,,,4,1,1.64945013647,2016_Jun_27_0939,P1,PLC_T_D1S1,NHGX,60.0241607613,
stim/1.jpg,stim/4.jpg,11,4,1,21,51,22,,,,,,2,0,1.23291901264,2016_Jun_27_0939,P1,PLC_T_D1S1,NHGX,60.0241607613,
stim/4.jpg,stim/2.jpg,4,2,1,22,52,3,,,,,,4,0,1.51617025135,2016_Jun_27_0939,P1,PLC_T_D1S1,NHGX,60.0241607613,
stim/1.jpg,stim/2.jpg,2,2,1,23,53,1,,,,,,2,1,1.43284877257,2016_Jun_27_0939,P1,PLC_T_D1S1,NHGX,60.0241607613,
stim/2.jpg,stim/4.jpg,4,4,1,24,54,20,,,,,,2,0,1.28289775265,2016_Jun_27_0939,P1,PLC_T_D1S1,NHGX,60.0241607613,
stim/3.jpg,stim/4.jpg,8,2,1,25,55,21,,,,,,2,1,1.23291638108,2016_Jun_27_0939,P1,PLC_T_D1S1,NHGX,60.0241607613,
stim/1.jpg,stim/6.jpg,12,4,1,26,56,27,,,,,,4,1,1.61622251562,2016_Jun_27_0939,P1,PLC_T_D1S1,NHGX,60.0241607613,
stim/6.jpg,stim/5.jpg,14,4,1,27,57,19,,,,,,4,1,1.53283602078,2016_Jun_27_0939,P1,PLC_T_D1S1,NHGX,60.0241607613,
stim/5.jpg,stim/2.jpg,3,2,1,28,58,2,,,,,,4,0,1.4162059383,2016_Jun_27_0939,P1,PLC_T_D1S1,NHGX,60.0241607613,
stim/5.jpg,stim/6.jpg,14,2,1,29,59,28,,,,,,2,1,1.23293382756,2016_Jun_27_0939,P1,PLC_T_D1S1,NHGX,60.0241607613,
stim/6.jpg,stim/1.jpg,12,2,2,0,60,14,,,,,,2,1,0.93301648559,2016_Jun_27_0939,P1,PLC_T_D1S1,NHGX,60.0241607613,
stim/1.jpg,stim/2.jpg,2,2,2,1,61,1,,,,,,4,0,1.18286841152,2016_Jun_27_0939,P1,PLC_T_D1S1,NHGX,60.0241607613,
stim/4.jpg,stim/2.jpg,4,2,2,2,62,3,,,,,,4,0,1.0163199615,2016_Jun_27_0939,P1,PLC_T_D1S1,NHGX,60.0241607613,
stim/3.jpg,stim/4.jpg,8,2,2,3,63,21,,,,,,4,0,1.16631710739,2016_Jun_27_0939,P1,PLC_T_D1S1,NHGX,60.0241607613,
stim/4.jpg,stim/1.jpg,11,2,2,4,64,13,,,,,,4,0,1.26624820265,2016_Jun_27_0939,P1,PLC_T_D1S1,NHGX,60.0241607613,
stim/3.jpg,stim/6.jpg,9,2,2,5,65,26,,,,,,None,0,,2016_Jun_27_0939,P1,PLC_T_D1S1,NHGX,60.0241607613,
stim/6.jpg,stim/4.jpg,15,2,2,6,66,24,,,,,,2,1,1.18294634176,2016_Jun_27_0939,P1,PLC_T_D1S1,NHGX,60.0241607613,
stim/2.jpg,stim/4.jpg,4,4,2,7,67,20,,,,,,2,0,0.799730793002,2016_Jun_27_0939,P1,PLC_T_D1S1,NHGX,60.0241607613,
stim/5.jpg,stim/6.jpg,14,2,2,8,68,28,,,,,,4,0,1.28290436012,2016_Jun_27_0939,P1,PLC_T_D1S1,NHGX,60.0241607613,
stim/6.jpg,stim/5.jpg,14,4,2,9,69,19,,,,,,2,0,1.2662538026,2016_Jun_27_0939,P1,PLC_T_D1S1,NHGX,60.0241607613,
stim/4.jpg,stim/3.jpg,8,4,2,10,70,8,,,,,,2,0,1.14963310953,2016_Jun_27_0939,P1,PLC_T_D1S1,NHGX,60.0241607613,
stim/1.jpg,stim/6.jpg,12,4,2,11,71,27,,,,,,4,1,1.03303318922,2016_Jun_27_0939,P1,PLC_T_D1S1,NHGX,60.0241607613,
stim/6.jpg,stim/2.jpg,5,2,2,12,72,4,,,,,,2,1,1.03298043173,2016_Jun_27_0939,P1,PLC_T_D1S1,NHGX,60.0241607613,
stim/2.jpg,stim/3.jpg,1,4,2,13,73,5,,,,,,4,1,1.11630645785,2016_Jun_27_0939,P1,PLC_T_D1S1,NHGX,60.0241607613,
stim/3.jpg,stim/2.jpg,1,2,2,14,74,0,,,,,,4,0,1.06630969692,2016_Jun_27_0939,P1,PLC_T_D1S1,NHGX,60.0241607613,
stim/2.jpg,stim/6.jpg,5,4,2,15,75,25,,,,,,4,1,1.08296687093,2016_Jun_27_0939,P1,PLC_T_D1S1,NHGX,60.0241607613,
stim/2.jpg,stim/5.jpg,3,4,2,16,76,15,,,,,,4,1,1.01628062947,2016_Jun_27_0939,P1,PLC_T_D1S1,NHGX,60.0241607613,
stim/5.jpg,stim/2.jpg,3,2,2,17,77,2,,,,,,4,0,1.28287891369,2016_Jun_27_0939,P1,PLC_T_D1S1,NHGX,60.0241607613,
stim/5.jpg,stim/1.jpg,10,2,2,18,78,12,,,,,,2,1,1.23291742468,2016_Jun_27_0939,P1,PLC_T_D1S1,NHGX,60.0241607613,
stim/1.jpg,stim/3.jpg,6,4,2,19,79,6,,,,,,2,0,1.13296923181,2016_Jun_27_0939,P1,PLC_T_D1S1,NHGX,60.0241607613,
stim/5.jpg,stim/3.jpg,7,4,2,20,80,7,,,,,,2,0,1.29955739882,2016_Jun_27_0939,P1,PLC_T_D1S1,NHGX,60.0241607613,
stim/3.jpg,stim/5.jpg,7,2,2,21,81,16,,,,,,2,1,1.11628058436,2016_Jun_27_0939,P1,PLC_T_D1S1,NHGX,60.0241607613,
stim/1.jpg,stim/4.jpg,11,4,2,22,82,22,,,,,,4,1,0.899729908798,2016_Jun_27_0939,P1,PLC_T_D1S1,NHGX,60.0241607613,
stim/4.jpg,stim/5.jpg,13,4,2,23,83,18,,,,,,2,0,0.933007535282,2016_Jun_27_0939,P1,PLC_T_D1S1,NHGX,60.0241607613,
stim/3.jpg,stim/1.jpg,6,2,2,24,84,11,,,,,,2,1,0.983012371335,2016_Jun_27_0939,P1,PLC_T_D1S1,NHGX,60.0241607613,
stim/2.jpg,stim/1.jpg,2,4,2,25,85,10,,,,,,4,1,0.999684997857,2016_Jun_27_0939,P1,PLC_T_D1S1,NHGX,60.0241607613,
stim/4.jpg,stim/6.jpg,15,4,2,26,86,29,,,,,,2,0,0.783084406885,2016_Jun_27_0939,P1,PLC_T_D1S1,NHGX,60.0241607613,
stim/1.jpg,stim/5.jpg,10,4,2,27,87,17,,,,,,2,0,1.63278861362,2016_Jun_27_0939,P1,PLC_T_D1S1,NHGX,60.0241607613,
stim/6.jpg,stim/3.jpg,9,4,2,28,88,9,,,,,,2,0,1.18288872114,2016_Jun_27_0939,P1,PLC_T_D1S1,NHGX,60.0241607613,
stim/5.jpg,stim/4.jpg,13,2,2,29,89,23,,,,,,2,1,1.44949756468,2016_Jun_27_0939,P1,PLC_T_D1S1,NHGX,60.0241607613,
stim/3.jpg,stim/4.jpg,8,2,3,0,90,21,,,,,,2,1,1.26628295426,2016_Jun_27_0939,P1,PLC_T_D1S1,NHGX,60.0241607613,
stim/2.jpg,stim/1.jpg,2,4,3,1,91,10,,,,,,4,1,0.966351104127,2016_Jun_27_0939,P1,PLC_T_D1S1,NHGX,60.0241607613,
stim/6.jpg,stim/5.jpg,14,4,3,2,92,19,,,,,,4,1,1.34961110067,2016_Jun_27_0939,P1,PLC_T_D1S1,NHGX,60.0241607613,
stim/4.jpg,stim/5.jpg,13,4,3,3,93,18,,,,,,2,0,1.51612779453,2016_Jun_27_0939,P1,PLC_T_D1S1,NHGX,60.0241607613,
stim/5.jpg,stim/6.jpg,14,2,3,4,94,28,,,,,,4,0,1.23296437771,2016_Jun_27_0939,P1,PLC_T_D1S1,NHGX,60.0241607613,
stim/1.jpg,stim/2.jpg,2,2,3,5,95,1,,,,,,2,1,1.38294401095,2016_Jun_27_0939,P1,PLC_T_D1S1,NHGX,60.0241607613,
stim/5.jpg,stim/4.jpg,13,2,3,6,96,23,,,,,,4,0,0.699696230856,2016_Jun_27_0939,P1,PLC_T_D1S1,NHGX,60.0241607613,
stim/3.jpg,stim/1.jpg,6,2,3,7,97,11,,,,,,4,0,0.899681951263,2016_Jun_27_0939,P1,PLC_T_D1S1,NHGX,60.0241607613,
stim/5.jpg,stim/1.jpg,10,2,3,8,98,12,,,,,,4,0,1.26625060563,2016_Jun_27_0939,P1,PLC_T_D1S1,NHGX,60.0241607613,
stim/5.jpg,stim/3.jpg,7,4,3,9,99,7,,,,,,2,0,1.1829451568,2016_Jun_27_0939,P1,PLC_T_D1S1,NHGX,60.0241607613,
stim/4.jpg,stim/1.jpg,11,2,3,10,100,13,,,,,,None,0,,2016_Jun_27_0939,P1,PLC_T_D1S1,NHGX,60.0241607613,
stim/6.jpg,stim/2.jpg,5,2,3,11,101,4,,,,,,2,1,1.43286921452,2016_Jun_27_0939,P1,PLC_T_D1S1,NHGX,60.0241607613,
stim/1.jpg,stim/5.jpg,10,4,3,12,102,17,,,,,,2,0,1.06630706536,2016_Jun_27_0939,P1,PLC_T_D1S1,NHGX,60.0241607613,
stim/2.jpg,stim/5.jpg,3,4,3,13,103,15,,,,,,2,0,1.19967029421,2016_Jun_27_0939,P1,PLC_T_D1S1,NHGX,60.0241607613,
stim/2.jpg,stim/4.jpg,4,4,3,14,104,20,,,,,,2,0,0.883068960384,2016_Jun_27_0939,P1,PLC_T_D1S1,NHGX,60.0241607613,
stim/3.jpg,stim/5.jpg,7,2,3,15,105,16,,,,,,4,0,0.983012350282,2016_Jun_27_0939,P1,PLC_T_D1S1,NHGX,60.0241607613,
stim/4.jpg,stim/2.jpg,4,2,3,16,106,3,,,,,,2,1,1.082974925,2016_Jun_27_0939,P1,PLC_T_D1S1,NHGX,60.0241607613,
stim/1.jpg,stim/3.jpg,6,4,3,17,107,6,,,,,,2,0,1.04961863445,2016_Jun_27_0939,P1,PLC_T_D1S1,NHGX,60.0241607613,
stim/6.jpg,stim/1.jpg,12,2,3,18,108,14,,,,,,2,1,1.08302188104,2016_Jun_27_0939,P1,PLC_T_D1S1,NHGX,60.0241607613,
stim/6.jpg,stim/4.jpg,15,2,3,19,109,24,,,,,,2,1,0.949651356005,2016_Jun_27_0939,P1,PLC_T_D1S1,NHGX,60.0241607613,
stim/3.jpg,stim/2.jpg,1,2,3,20,110,0,,,,,,2,1,0.81639394591,2016_Jun_27_0939,P1,PLC_T_D1S1,NHGX,60.0241607613,
stim/2.jpg,stim/6.jpg,5,4,3,21,111,25,,,,,,4,1,1.11629104744,2016_Jun_27_0939,P1,PLC_T_D1S1,NHGX,60.0241607613,
stim/4.jpg,stim/6.jpg,15,4,3,22,112,29,,,,,,4,1,1.11627278291,2016_Jun_27_0939,P1,PLC_T_D1S1,NHGX,60.0241607613,
stim/1.jpg,stim/6.jpg,12,4,3,23,113,27,,,,,,4,1,0.9163511733,2016_Jun_27_0939,P1,PLC_T_D1S1,NHGX,60.0241607613,
stim/1.jpg,stim/4.jpg,11,4,3,24,114,22,,,,,,4,1,0.832990696311,2016_Jun_27_0939,P1,PLC_T_D1S1,NHGX,60.0241607613,
stim/6.jpg,stim/3.jpg,9,4,3,25,115,9,,,,,,2,0,1.03299401358,2016_Jun_27_0939,P1,PLC_T_D1S1,NHGX,60.0241607613,
stim/3.jpg,stim/6.jpg,9,2,3,26,116,26,,,,,,2,1,1.06632977797,2016_Jun_27_0939,P1,PLC_T_D1S1,NHGX,60.0241607613,
stim/4.jpg,stim/3.jpg,8,4,3,27,117,8,,,,,,2,0,0.916378839256,2016_Jun_27_0939,P1,PLC_T_D1S1,NHGX,60.0241607613,
stim/5.jpg,stim/2.jpg,3,2,3,28,118,2,,,,,,4,0,0.883022109608,2016_Jun_27_0939,P1,PLC_T_D1S1,NHGX,60.0241607613,
stim/2.jpg,stim/3.jpg,1,4,3,29,119,5,,,,,,4,1,0.849711638259,2016_Jun_27_0939,P1,PLC_T_D1S1,NHGX,60.0241607613,
stim/3.jpg,stim/5.jpg,7,2,4,0,120,16,,,,,,2,1,0.933088121142,2016_Jun_27_0939,P1,PLC_T_D1S1,NHGX,60.0241607613,
stim/6.jpg,stim/2.jpg,5,2,4,1,121,4,,,,,,2,1,0.749684805378,2016_Jun_27_0939,P1,PLC_T_D1S1,NHGX,60.0241607613,
stim/5.jpg,stim/3.jpg,7,4,4,2,122,7,,,,,,2,0,1.13302167954,2016_Jun_27_0939,P1,PLC_T_D1S1,NHGX,60.0241607613,
stim/6.jpg,stim/1.jpg,12,2,4,3,123,14,,,,,,4,0,1.33289583687,2016_Jun_27_0939,P1,PLC_T_D1S1,NHGX,60.0241607613,
stim/2.jpg,stim/4.jpg,4,4,4,4,124,20,,,,,,4,1,1.08299754137,2016_Jun_27_0939,P1,PLC_T_D1S1,NHGX,60.0241607613,
stim/6.jpg,stim/3.jpg,9,4,4,5,125,9,,,,,,2,0,1.38287632424,2016_Jun_27_0939,P1,PLC_T_D1S1,NHGX,60.0241607613,
stim/1.jpg,stim/3.jpg,6,4,4,6,126,6,,,,,,2,0,1.13295189359,2016_Jun_27_0939,P1,PLC_T_D1S1,NHGX,60.0241607613,
stim/4.jpg,stim/5.jpg,13,4,4,7,127,18,,,,,,4,1,0.916372797196,2016_Jun_27_0939,P1,PLC_T_D1S1,NHGX,60.0241607613,
stim/2.jpg,stim/6.jpg,5,4,4,8,128,25,,,,,,4,1,1.06628356178,2016_Jun_27_0939,P1,PLC_T_D1S1,NHGX,60.0241607613,
stim/5.jpg,stim/2.jpg,3,2,4,9,129,2,,,,,,2,1,1.39951969083,2016_Jun_27_0939,P1,PLC_T_D1S1,NHGX,60.0241607613,
stim/4.jpg,stim/6.jpg,15,4,4,10,130,29,,,,,,4,1,1.11628540838,2016_Jun_27_0939,P1,PLC_T_D1S1,NHGX,60.0241607613,
stim/1.jpg,stim/2.jpg,2,2,4,11,131,1,,,,,,2,1,1.38286581003,2016_Jun_27_0939,P1,PLC_T_D1S1,NHGX,60.0241607613,
stim/3.jpg,stim/4.jpg,8,2,4,12,132,21,,,,,,4,0,1.48282671559,2016_Jun_27_0939,P1,PLC_T_D1S1,NHGX,60.0241607613,
stim/2.jpg,stim/5.jpg,3,4,4,13,133,15,,,,,,4,1,0.983011411944,2016_Jun_27_0939,P1,PLC_T_D1S1,NHGX,60.0241607613,
stim/5.jpg,stim/1.jpg,10,2,4,14,134,12,,,,,,2,1,1.4328449741,2016_Jun_27_0939,P1,PLC_T_D1S1,NHGX,60.0241607613,
stim/2.jpg,stim/1.jpg,2,4,4,15,135,10,,,,,,4,1,1.26620321652,2016_Jun_27_0939,P1,PLC_T_D1S1,NHGX,60.0241607613,
stim/1.jpg,stim/5.jpg,10,4,4,16,136,17,,,,,,None,0,,2016_Jun_27_0939,P1,PLC_T_D1S1,NHGX,60.0241607613,
stim/3.jpg,stim/2.jpg,1,2,4,17,137,0,,,,,,4,0,0.832984398613,2016_Jun_27_0939,P1,PLC_T_D1S1,NHGX,60.0241607613,
stim/2.jpg,stim/3.jpg,1,4,4,18,138,5,,,,,,4,1,0.866378120465,2016_Jun_27_0939,P1,PLC_T_D1S1,NHGX,60.0241607613,
stim/1.jpg,stim/6.jpg,12,4,4,19,139,27,,,,,,4,1,1.18294211622,2016_Jun_27_0939,P1,PLC_T_D1S1,NHGX,60.0241607613,
stim/4.jpg,stim/3.jpg,8,4,4,20,140,8,,,,,,2,0,1.21627113781,2016_Jun_27_0939,P1,PLC_T_D1S1,NHGX,60.0241607613,
stim/4.jpg,stim/2.jpg,4,2,4,21,141,3,,,,,,2,1,1.23292653138,2016_Jun_27_0939,P1,PLC_T_D1S1,NHGX,60.0241607613,
stim/5.jpg,stim/6.jpg,14,2,4,22,142,28,,,,,,4,0,0.949643692905,2016_Jun_27_0939,P1,PLC_T_D1S1,NHGX,60.0241607613,
stim/6.jpg,stim/5.jpg,14,4,4,23,143,19,,,,,,2,0,0.983057324381,2016_Jun_27_0939,P1,PLC_T_D1S1,NHGX,60.0241607613,
stim/1.jpg,stim/4.jpg,11,4,4,24,144,22,,,,,,2,0,1.13297038368,2016_Jun_27_0939,P1,PLC_T_D1S1,NHGX,60.0241607613,
stim/4.jpg,stim/1.jpg,11,2,4,25,145,13,,,,,,4,0,0.966354213878,2016_Jun_27_0939,P1,PLC_T_D1S1,NHGX,60.0241607613,
stim/3.jpg,stim/1.jpg,6,2,4,26,146,11,,,,,,2,1,1.09962695619,2016_Jun_27_0939,P1,PLC_T_D1S1,NHGX,60.0241607613,
stim/3.jpg,stim/6.jpg,9,2,4,27,147,26,,,,,,4,0,1.01636528748,2016_Jun_27_0939,P1,PLC_T_D1S1,NHGX,60.0241607613,
stim/5.jpg,stim/4.jpg,13,2,4,28,148,23,,,,,,2,1,1.19958911286,2016_Jun_27_0939,P1,PLC_T_D1S1,NHGX,60.0241607613,
stim/6.jpg,stim/4.jpg,15,2,4,29,149,24,,,,,,4,0,1.03298163172,2016_Jun_27_0939,P1,PLC_T_D1S1,NHGX,60.0241607613,
stim/6.jpg,stim/5.jpg,14,4,5,0,150,19,,,,,,4,1,0.899652155998,2016_Jun_27_0939,P1,PLC_T_D1S1,NHGX,60.0241607613,
stim/1.jpg,stim/5.jpg,10,4,5,1,151,17,,,,,,2,0,0.799710570597,2016_Jun_27_0939,P1,PLC_T_D1S1,NHGX,60.0241607613,
stim/6.jpg,stim/3.jpg,9,4,5,2,152,9,,,,,,2,0,0.783083273059,2016_Jun_27_0939,P1,PLC_T_D1S1,NHGX,60.0241607613,
stim/3.jpg,stim/2.jpg,1,2,5,3,153,0,,,,,,2,1,0.91635998827,2016_Jun_27_0939,P1,PLC_T_D1S1,NHGX,60.0241607613,
stim/6.jpg,stim/1.jpg,12,2,5,4,154,14,,,,,,2,1,0.866333236592,2016_Jun_27_0939,P1,PLC_T_D1S1,NHGX,60.0241607613,
stim/6.jpg,stim/4.jpg,15,2,5,5,155,24,,,,,,2,1,1.01634188314,2016_Jun_27_0939,P1,PLC_T_D1S1,NHGX,60.0241607613,
stim/6.jpg,stim/2.jpg,5,2,5,6,156,4,,,,,,2,1,1.08302359832,2016_Jun_27_0939,P1,PLC_T_D1S1,NHGX,60.0241607613,
stim/1.jpg,stim/6.jpg,12,4,5,7,157,27,,,,,,4,1,0.949705957099,2016_Jun_27_0939,P1,PLC_T_D1S1,NHGX,60.0241607613,
stim/1.jpg,stim/4.jpg,11,4,5,8,158,22,,,,,,4,1,0.966300680446,2016_Jun_27_0939,P1,PLC_T_D1S1,NHGX,60.0241607613,
stim/1.jpg,stim/2.jpg,2,2,5,9,159,1,,,,,,4,0,1.34957262878,2016_Jun_27_0939,P1,PLC_T_D1S1,NHGX,60.0241607613,
stim/4.jpg,stim/6.jpg,15,4,5,10,160,29,,,,,,4,1,1.34957449343,2016_Jun_27_0939,P1,PLC_T_D1S1,NHGX,60.0241607613,
stim/2.jpg,stim/3.jpg,1,4,5,11,161,5,,,,,,4,1,1.36616689198,2016_Jun_27_0939,P1,PLC_T_D1S1,NHGX,60.0241607613,
stim/3.jpg,stim/4.jpg,8,2,5,12,162,21,,,,,,2,1,1.03294897933,2016_Jun_27_0939,P1,PLC_T_D1S1,NHGX,60.0241607613,
stim/4.jpg,stim/3.jpg,8,4,5,13,163,8,,,,,,2,0,1.08297322877,2016_Jun_27_0939,P1,PLC_T_D1S1,NHGX,60.0241607613,
stim/2.jpg,stim/1.jpg,2,4,5,14,164,10,,,,,,4,1,1.09962811407,2016_Jun_27_0939,P1,PLC_T_D1S1,NHGX,60.0241607613,
stim/5.jpg,stim/2.jpg,3,2,5,15,165,2,,,,,,2,1,1.21620787212,2016_Jun_27_0939,P1,PLC_T_D1S1,NHGX,60.0241607613,
stim/5.jpg,stim/3.jpg,7,4,5,16,166,7,,,,,,4,1,1.39955563943,2016_Jun_27_0939,P1,PLC_T_D1S1,NHGX,60.0241607613,
stim/3.jpg,stim/6.jpg,9,2,5,17,167,26,,,,,,2,1,0.966367973173,2016_Jun_27_0939,P1,PLC_T_D1S1,NHGX,60.0241607613,
stim/2.jpg,stim/6.jpg,5,4,5,18,168,25,,,,,,2,0,1.09963701927,2016_Jun_27_0939,P1,PLC_T_D1S1,NHGX,60.0241607613,
stim/1.jpg,stim/3.jpg,6,4,5,19,169,6,,,,,,4,1,1.33291346982,2016_Jun_27_0939,P1,PLC_T_D1S1,NHGX,60.0241607613,
stim/2.jpg,stim/5.jpg,3,4,5,20,170,15,,,,,,4,1,1.38288991812,2016_Jun_27_0939,P1,PLC_T_D1S1,NHGX,60.0241607613,
stim/3.jpg,stim/1.jpg,6,2,5,21,171,11,,,,,,2,1,1.26624755603,2016_Jun_27_0939,P1,PLC_T_D1S1,NHGX,60.0241607613,
stim/3.jpg,stim/5.jpg,7,2,5,22,172,16,,,,,,2,1,1.23301435328,2016_Jun_27_0939,P1,PLC_T_D1S1,NHGX,60.0241607613,
stim/4.jpg,stim/2.jpg,4,2,5,23,173,3,,,,,,2,1,1.33289454365,2016_Jun_27_0939,P1,PLC_T_D1S1,NHGX,60.0241607613,
stim/4.jpg,stim/1.jpg,11,2,5,24,174,13,,,,,,4,0,0.766415088608,2016_Jun_27_0939,P1,PLC_T_D1S1,NHGX,60.0241607613,
stim/5.jpg,stim/6.jpg,14,2,5,25,175,28,,,,,,None,0,,2016_Jun_27_0939,P1,PLC_T_D1S1,NHGX,60.0241607613,
stim/5.jpg,stim/4.jpg,13,2,5,26,176,23,,,,,,4,0,1.63278523019,2016_Jun_27_0939,P1,PLC_T_D1S1,NHGX,60.0241607613,
stim/5.jpg,stim/1.jpg,10,2,5,27,177,12,,,,,,2,1,1.24958337757,2016_Jun_27_0939,P1,PLC_T_D1S1,NHGX,60.0241607613,
stim/4.jpg,stim/5.jpg,13,4,5,28,178,18,,,,,,4,1,1.24958454749,2016_Jun_27_0939,P1,PLC_T_D1S1,NHGX,60.0241607613,
stim/2.jpg,stim/4.jpg,4,4,5,29,179,20,,,,,,4,1,1.19957957609,2016_Jun_27_0939,P1,PLC_T_D1S1,NHGX,60.0241607613,
