symbol2,symbol1,decisionID,correct,block_01.thisRepN,block_01.thisTrialN,block_01.thisN,block_01.thisIndex,mouse.x,mouse.y,mouse.leftButton,mouse.midButton,mouse.rightButton,buttonBox_2.keys,buttonBox_2.corr,buttonBox_2.rt,date,Participant,expName,Group,frameRate,
,,,,,,,,-0.09375,0.8046875,1,0,0,,,,2016_Aug_22_1416,P6,PLC_T_D1S1,NHGX,60.0162390378,
stim/5.jpg,stim/2.jpg,13,4,0,0,0,18,,,,,,4,1,1.38288636745,2016_Aug_22_1416,P6,PLC_T_D1S1,NHGX,60.0162390378,
stim/3.jpg,stim/6.jpg,5,4,0,1,1,25,,,,,,4,1,1.41619437375,2016_Aug_22_1416,P6,PLC_T_D1S1,NHGX,60.0162390378,
stim/4.jpg,stim/2.jpg,10,4,0,2,2,17,,,,,,4,1,1.5495032853,2016_Aug_22_1416,P6,PLC_T_D1S1,NHGX,60.0162390378,
stim/1.jpg,stim/5.jpg,8,2,0,3,3,21,,,,,,2,1,1.31624034917,2016_Aug_22_1416,P6,PLC_T_D1S1,NHGX,60.0162390378,
stim/2.jpg,stim/4.jpg,10,2,0,4,4,12,,,,,,None,0,,2016_Aug_22_1416,P6,PLC_T_D1S1,NHGX,60.0162390378,
stim/1.jpg,stim/4.jpg,6,2,0,5,5,11,,,,,,2,1,1.09963799506,2016_Aug_22_1416,P6,PLC_T_D1S1,NHGX,60.0162390378,
stim/6.jpg,stim/3.jpg,5,2,0,6,6,4,,,,,,2,1,1.16628654564,2016_Aug_22_1416,P6,PLC_T_D1S1,NHGX,60.0162390378,
stim/1.jpg,stim/6.jpg,9,2,0,7,7,26,,,,,,2,1,1.38288193141,2016_Aug_22_1416,P6,PLC_T_D1S1,NHGX,60.0162390378,
stim/3.jpg,stim/2.jpg,3,4,0,8,8,15,,,,,,4,1,1.64936699812,2016_Aug_22_1416,P6,PLC_T_D1S1,NHGX,60.0162390378,
stim/2.jpg,stim/3.jpg,3,2,0,9,9,2,,,,,,None,0,,2016_Aug_22_1416,P6,PLC_T_D1S1,NHGX,60.0162390378,
stim/2.jpg,stim/5.jpg,13,2,0,10,10,23,,,,,,2,1,1.19960374281,2016_Aug_22_1416,P6,PLC_T_D1S1,NHGX,60.0162390378,
stim/6.jpg,stim/1.jpg,9,4,0,11,11,9,,,,,,4,1,1.29955946361,2016_Aug_22_1416,P6,PLC_T_D1S1,NHGX,60.0162390378,
stim/6.jpg,stim/5.jpg,15,2,0,12,12,24,,,,,,2,1,1.29956232975,2016_Aug_22_1416,P6,PLC_T_D1S1,NHGX,60.0162390378,
stim/6.jpg,stim/4.jpg,12,2,0,13,13,14,,,,,,2,1,1.01634944268,2016_Aug_22_1416,P6,PLC_T_D1S1,NHGX,60.0162390378,
stim/3.jpg,stim/4.jpg,2,4,0,14,14,10,,,,,,4,1,0.966328921102,2016_Aug_22_1416,P6,PLC_T_D1S1,NHGX,60.0162390378,
stim/4.jpg,stim/1.jpg,6,4,0,15,15,6,,,,,,4,1,1.03298766706,2016_Aug_22_1416,P6,PLC_T_D1S1,NHGX,60.0162390378,
stim/4.jpg,stim/3.jpg,2,2,0,16,16,1,,,,,,4,0,1.14960584054,2016_Aug_22_1416,P6,PLC_T_D1S1,NHGX,60.0162390378,
stim/5.jpg,stim/3.jpg,4,2,0,17,17,3,,,,,,2,1,1.44949893648,2016_Aug_22_1416,P6,PLC_T_D1S1,NHGX,60.0162390378,
stim/5.jpg,stim/4.jpg,11,2,0,18,18,13,,,,,,2,1,1.26624058225,2016_Aug_22_1416,P6,PLC_T_D1S1,NHGX,60.0162390378,
stim/3.jpg,stim/5.jpg,4,4,0,19,19,20,,,,,,4,1,1.26622663353,2016_Aug_22_1416,P6,PLC_T_D1S1,NHGX,60.0162390378,
stim/5.jpg,stim/1.jpg,8,4,0,20,20,8,,,,,,4,1,1.28289799739,2016_Aug_22_1416,P6,PLC_T_D1S1,NHGX,60.0162390378,
stim/3.jpg,stim/1.jpg,1,4,0,21,21,5,,,,,,4,1,0.966336857855,2016_Aug_22_1416,P6,PLC_T_D1S1,NHGX,60.0162390378,
stim/2.jpg,stim/1.jpg,7,4,0,22,22,7,,,,,,4,1,1.33290438679,2016_Aug_22_1416,P6,PLC_T_D1S1,NHGX,60.0162390378,
stim/4.jpg,stim/5.jpg,11,4,0,23,23,22,,,,,,4,1,0.933084727616,2016_Aug_22_1416,P6,PLC_T_D1S1,NHGX,60.0162390378,
stim/2.jpg,stim/6.jpg,14,2,0,24,24,28,,,,,,2,1,1.2995753672,2016_Aug_22_1416,P6,PLC_T_D1S1,NHGX,60.0162390378,
stim/1.jpg,stim/3.jpg,1,2,0,25,25,0,,,,,,2,1,1.13296018466,2016_Aug_22_1416,P6,PLC_T_D1S1,NHGX,60.0162390378,
stim/6.jpg,stim/2.jpg,14,4,0,26,26,19,,,,,,2,0,1.38284088525,2016_Aug_22_1416,P6,PLC_T_D1S1,NHGX,60.0162390378,
stim/4.jpg,stim/6.jpg,12,4,0,27,27,27,,,,,,4,1,1.11636893719,2016_Aug_22_1416,P6,PLC_T_D1S1,NHGX,60.0162390378,
stim/1.jpg,stim/2.jpg,7,2,0,28,28,16,,,,,,2,1,1.23282838765,2016_Aug_22_1416,P6,PLC_T_D1S1,NHGX,60.0162390378,
stim/5.jpg,stim/6.jpg,15,4,0,29,29,29,,,,,,4,1,1.29956841389,2016_Aug_22_1416,P6,PLC_T_D1S1,NHGX,60.0162390378,
stim/4.jpg,stim/5.jpg,11,4,1,0,30,22,,,,,,4,1,1.26627250971,2016_Aug_22_1416,P6,PLC_T_D1S1,NHGX,60.0162390378,
stim/1.jpg,stim/5.jpg,8,2,1,1,31,21,,,,,,2,1,1.53287495855,2016_Aug_22_1416,P6,PLC_T_D1S1,NHGX,60.0162390378,
stim/1.jpg,stim/4.jpg,6,2,1,2,32,11,,,,,,2,1,1.28288012992,2016_Aug_22_1416,P6,PLC_T_D1S1,NHGX,60.0162390378,
stim/6.jpg,stim/3.jpg,5,2,1,3,33,4,,,,,,2,1,0.932975540878,2016_Aug_22_1416,P6,PLC_T_D1S1,NHGX,60.0162390378,
stim/3.jpg,stim/4.jpg,2,4,1,4,34,10,,,,,,2,0,1.29958480468,2016_Aug_22_1416,P6,PLC_T_D1S1,NHGX,60.0162390378,
stim/5.jpg,stim/2.jpg,13,4,1,5,35,18,,,,,,4,1,1.08294893516,2016_Aug_22_1416,P6,PLC_T_D1S1,NHGX,60.0162390378,
stim/2.jpg,stim/6.jpg,14,2,1,6,36,28,,,,,,2,1,0.966284389274,2016_Aug_22_1416,P6,PLC_T_D1S1,NHGX,60.0162390378,
stim/3.jpg,stim/6.jpg,5,4,1,7,37,25,,,,,,4,1,0.849702119149,2016_Aug_22_1416,P6,PLC_T_D1S1,NHGX,60.0162390378,
stim/1.jpg,stim/2.jpg,7,2,1,8,38,16,,,,,,2,1,1.21621833739,2016_Aug_22_1416,P6,PLC_T_D1S1,NHGX,60.0162390378,
stim/6.jpg,stim/2.jpg,14,4,1,9,39,19,,,,,,4,1,1.48284983854,2016_Aug_22_1416,P6,PLC_T_D1S1,NHGX,60.0162390378,
stim/6.jpg,stim/1.jpg,9,4,1,10,40,9,,,,,,4,1,0.916338194682,2016_Aug_22_1416,P6,PLC_T_D1S1,NHGX,60.0162390378,
stim/1.jpg,stim/6.jpg,9,2,1,11,41,26,,,,,,2,1,1.19961924941,2016_Aug_22_1416,P6,PLC_T_D1S1,NHGX,60.0162390378,
stim/2.jpg,stim/4.jpg,10,2,1,12,42,12,,,,,,2,1,1.18295424939,2016_Aug_22_1416,P6,PLC_T_D1S1,NHGX,60.0162390378,
stim/3.jpg,stim/1.jpg,1,4,1,13,43,5,,,,,,4,1,1.3494567565,2016_Aug_22_1416,P6,PLC_T_D1S1,NHGX,60.0162390378,
stim/6.jpg,stim/5.jpg,15,2,1,14,44,24,,,,,,2,1,1.31620157367,2016_Aug_22_1416,P6,PLC_T_D1S1,NHGX,60.0162390378,
stim/5.jpg,stim/4.jpg,11,2,1,15,45,13,,,,,,2,1,1.26618095585,2016_Aug_22_1416,P6,PLC_T_D1S1,NHGX,60.0162390378,
stim/5.jpg,stim/3.jpg,4,2,1,16,46,3,,,,,,2,1,1.11629694703,2016_Aug_22_1416,P6,PLC_T_D1S1,NHGX,60.0162390378,
stim/5.jpg,stim/6.jpg,15,4,1,17,47,29,,,,,,4,1,1.36621051943,2016_Aug_22_1416,P6,PLC_T_D1S1,NHGX,60.0162390378,
stim/4.jpg,stim/1.jpg,6,4,1,18,48,6,,,,,,4,1,1.11628060135,2016_Aug_22_1416,P6,PLC_T_D1S1,NHGX,60.0162390378,
stim/6.jpg,stim/4.jpg,12,2,1,19,49,14,,,,,,2,1,1.06629518614,2016_Aug_22_1416,P6,PLC_T_D1S1,NHGX,60.0162390378,
stim/2.jpg,stim/5.jpg,13,2,1,20,50,23,,,,,,2,1,1.29955592681,2016_Aug_22_1416,P6,PLC_T_D1S1,NHGX,60.0162390378,
stim/4.jpg,stim/2.jpg,10,4,1,21,51,17,,,,,,4,1,1.43284534986,2016_Aug_22_1416,P6,PLC_T_D1S1,NHGX,60.0162390378,
stim/4.jpg,stim/6.jpg,12,4,1,22,52,27,,,,,,4,1,1.24958474303,2016_Aug_22_1416,P6,PLC_T_D1S1,NHGX,60.0162390378,
stim/4.jpg,stim/3.jpg,2,2,1,23,53,1,,,,,,4,0,1.19960066315,2016_Aug_22_1416,P6,PLC_T_D1S1,NHGX,60.0162390378,
stim/2.jpg,stim/1.jpg,7,4,1,24,54,7,,,,,,None,0,,2016_Aug_22_1416,P6,PLC_T_D1S1,NHGX,60.0162390378,
stim/1.jpg,stim/3.jpg,1,2,1,25,55,0,,,,,,2,1,1.06631119198,2016_Aug_22_1416,P6,PLC_T_D1S1,NHGX,60.0162390378,
stim/2.jpg,stim/3.jpg,3,2,1,26,56,2,,,,,,2,1,0.916335782679,2016_Aug_22_1416,P6,PLC_T_D1S1,NHGX,60.0162390378,
stim/5.jpg,stim/1.jpg,8,4,1,27,57,8,,,,,,4,1,0.899695032011,2016_Aug_22_1416,P6,PLC_T_D1S1,NHGX,60.0162390378,
stim/3.jpg,stim/5.jpg,4,4,1,28,58,20,,,,,,2,0,0.933023808002,2016_Aug_22_1416,P6,PLC_T_D1S1,NHGX,60.0162390378,
stim/3.jpg,stim/2.jpg,3,4,1,29,59,15,,,,,,4,1,0.866392785044,2016_Aug_22_1416,P6,PLC_T_D1S1,NHGX,60.0162390378,
stim/2.jpg,stim/1.jpg,7,4,2,0,60,7,,,,,,4,1,1.29957466044,2016_Aug_22_1416,P6,PLC_T_D1S1,NHGX,60.0162390378,
stim/1.jpg,stim/5.jpg,8,2,2,1,61,21,,,,,,2,1,1.06628341485,2016_Aug_22_1416,P6,PLC_T_D1S1,NHGX,60.0162390378,
stim/6.jpg,stim/3.jpg,5,2,2,2,62,4,,,,,,2,1,1.21632176479,2016_Aug_22_1416,P6,PLC_T_D1S1,NHGX,60.0162390378,
stim/1.jpg,stim/3.jpg,1,2,2,3,63,0,,,,,,2,1,0.982996862441,2016_Aug_22_1416,P6,PLC_T_D1S1,NHGX,60.0162390378,
stim/5.jpg,stim/4.jpg,11,2,2,4,64,13,,,,,,2,1,0.883023848603,2016_Aug_22_1416,P6,PLC_T_D1S1,NHGX,60.0162390378,
stim/4.jpg,stim/2.jpg,10,4,2,5,65,17,,,,,,4,1,0.949668585693,2016_Aug_22_1416,P6,PLC_T_D1S1,NHGX,60.0162390378,
stim/3.jpg,stim/5.jpg,4,4,2,6,66,20,,,,,,4,1,1.0163213678,2016_Aug_22_1416,P6,PLC_T_D1S1,NHGX,60.0162390378,
stim/2.jpg,stim/4.jpg,10,2,2,7,67,12,,,,,,2,1,0.966335245843,2016_Aug_22_1416,P6,PLC_T_D1S1,NHGX,60.0162390378,
stim/3.jpg,stim/1.jpg,1,4,2,8,68,5,,,,,,4,1,1.09961505697,2016_Aug_22_1416,P6,PLC_T_D1S1,NHGX,60.0162390378,
stim/3.jpg,stim/2.jpg,3,4,2,9,69,15,,,,,,4,1,1.54947965549,2016_Aug_22_1416,P6,PLC_T_D1S1,NHGX,60.0162390378,
stim/4.jpg,stim/1.jpg,6,4,2,10,70,6,,,,,,4,1,1.53281608102,2016_Aug_22_1416,P6,PLC_T_D1S1,NHGX,60.0162390378,
stim/2.jpg,stim/5.jpg,13,2,2,11,71,23,,,,,,2,1,1.48284782352,2016_Aug_22_1416,P6,PLC_T_D1S1,NHGX,60.0162390378,
stim/4.jpg,stim/5.jpg,11,4,2,12,72,22,,,,,,4,1,1.16627632621,2016_Aug_22_1416,P6,PLC_T_D1S1,NHGX,60.0162390378,
stim/3.jpg,stim/6.jpg,5,4,2,13,73,25,,,,,,4,1,1.01632670007,2016_Aug_22_1416,P6,PLC_T_D1S1,NHGX,60.0162390378,
stim/1.jpg,stim/2.jpg,7,2,2,14,74,16,,,,,,2,1,1.38286984432,2016_Aug_22_1416,P6,PLC_T_D1S1,NHGX,60.0162390378,
stim/4.jpg,stim/6.jpg,12,4,2,15,75,27,,,,,,4,1,1.41617824761,2016_Aug_22_1416,P6,PLC_T_D1S1,NHGX,60.0162390378,
stim/1.jpg,stim/6.jpg,9,2,2,16,76,26,,,,,,2,1,1.3828637271,2016_Aug_22_1416,P6,PLC_T_D1S1,NHGX,60.0162390378,
stim/5.jpg,stim/3.jpg,4,2,2,17,77,3,,,,,,2,1,1.34954316756,2016_Aug_22_1416,P6,PLC_T_D1S1,NHGX,60.0162390378,
stim/6.jpg,stim/4.jpg,12,2,2,18,78,14,,,,,,2,1,1.26623833867,2016_Aug_22_1416,P6,PLC_T_D1S1,NHGX,60.0162390378,
stim/1.jpg,stim/4.jpg,6,2,2,19,79,11,,,,,,2,1,1.24959069484,2016_Aug_22_1416,P6,PLC_T_D1S1,NHGX,60.0162390378,
stim/6.jpg,stim/5.jpg,15,2,2,20,80,24,,,,,,2,1,1.31624166645,2016_Aug_22_1416,P6,PLC_T_D1S1,NHGX,60.0162390378,
stim/2.jpg,stim/6.jpg,14,2,2,21,81,28,,,,,,2,1,1.28290358229,2016_Aug_22_1416,P6,PLC_T_D1S1,NHGX,60.0162390378,
stim/2.jpg,stim/3.jpg,3,2,2,22,82,2,,,,,,2,1,1.03300654504,2016_Aug_22_1416,P6,PLC_T_D1S1,NHGX,60.0162390378,
stim/5.jpg,stim/6.jpg,15,4,2,23,83,29,,,,,,4,1,1.14963334098,2016_Aug_22_1416,P6,PLC_T_D1S1,NHGX,60.0162390378,
stim/6.jpg,stim/2.jpg,14,4,2,24,84,19,,,,,,2,0,1.49950938598,2016_Aug_22_1416,P6,PLC_T_D1S1,NHGX,60.0162390378,
stim/6.jpg,stim/1.jpg,9,4,2,25,85,9,,,,,,4,1,1.31624317019,2016_Aug_22_1416,P6,PLC_T_D1S1,NHGX,60.0162390378,
stim/5.jpg,stim/1.jpg,8,4,2,26,86,8,,,,,,4,1,1.11629859212,2016_Aug_22_1416,P6,PLC_T_D1S1,NHGX,60.0162390378,
stim/4.jpg,stim/3.jpg,2,2,2,27,87,1,,,,,,4,0,1.09964260854,2016_Aug_22_1416,P6,PLC_T_D1S1,NHGX,60.0162390378,
stim/3.jpg,stim/4.jpg,2,4,2,28,88,10,,,,,,2,0,1.11628968997,2016_Aug_22_1416,P6,PLC_T_D1S1,NHGX,60.0162390378,
stim/5.jpg,stim/2.jpg,13,4,2,29,89,18,,,,,,4,1,1.33290650105,2016_Aug_22_1416,P6,PLC_T_D1S1,NHGX,60.0162390378,
stim/1.jpg,stim/6.jpg,9,2,3,0,90,26,,,,,,2,1,1.24960998485,2016_Aug_22_1416,P6,PLC_T_D1S1,NHGX,60.0162390378,
stim/4.jpg,stim/6.jpg,12,4,3,1,91,27,,,,,,4,1,1.16629042229,2016_Aug_22_1416,P6,PLC_T_D1S1,NHGX,60.0162390378,
stim/3.jpg,stim/6.jpg,5,4,3,2,92,25,,,,,,2,0,1.36620960515,2016_Aug_22_1416,P6,PLC_T_D1S1,NHGX,60.0162390378,
stim/5.jpg,stim/6.jpg,15,4,3,3,93,29,,,,,,4,1,1.18293707966,2016_Aug_22_1416,P6,PLC_T_D1S1,NHGX,60.0162390378,
stim/6.jpg,stim/3.jpg,5,2,3,4,94,4,,,,,,2,1,0.94968155096,2016_Aug_22_1416,P6,PLC_T_D1S1,NHGX,60.0162390378,
stim/2.jpg,stim/1.jpg,7,4,3,5,95,7,,,,,,4,1,0.966331245888,2016_Aug_22_1416,P6,PLC_T_D1S1,NHGX,60.0162390378,
stim/3.jpg,stim/2.jpg,3,4,3,6,96,15,,,,,,4,1,1.13289143957,2016_Aug_22_1416,P6,PLC_T_D1S1,NHGX,60.0162390378,
stim/1.jpg,stim/2.jpg,7,2,3,7,97,16,,,,,,2,1,1.13301688176,2016_Aug_22_1416,P6,PLC_T_D1S1,NHGX,60.0162390378,
stim/6.jpg,stim/1.jpg,9,4,3,8,98,9,,,,,,4,1,1.29958471747,2016_Aug_22_1416,P6,PLC_T_D1S1,NHGX,60.0162390378,
stim/6.jpg,stim/4.jpg,12,2,3,9,99,14,,,,,,2,1,1.41618042503,2016_Aug_22_1416,P6,PLC_T_D1S1,NHGX,60.0162390378,
stim/2.jpg,stim/4.jpg,10,2,3,10,100,12,,,,,,2,1,0.916371743176,2016_Aug_22_1416,P6,PLC_T_D1S1,NHGX,60.0162390378,
stim/6.jpg,stim/2.jpg,14,4,3,11,101,19,,,,,,4,1,0.93298900238,2016_Aug_22_1416,P6,PLC_T_D1S1,NHGX,60.0162390378,
stim/2.jpg,stim/6.jpg,14,2,3,12,102,28,,,,,,2,1,1.06629946279,2016_Aug_22_1416,P6,PLC_T_D1S1,NHGX,60.0162390378,
stim/2.jpg,stim/5.jpg,13,2,3,13,103,23,,,,,,2,1,1.16621053748,2016_Aug_22_1416,P6,PLC_T_D1S1,NHGX,60.0162390378,
stim/5.jpg,stim/3.jpg,4,2,3,14,104,3,,,,,,2,1,1.19960371575,2016_Aug_22_1416,P6,PLC_T_D1S1,NHGX,60.0162390378,
stim/4.jpg,stim/2.jpg,10,4,3,15,105,17,,,,,,4,1,0.833041272467,2016_Aug_22_1416,P6,PLC_T_D1S1,NHGX,60.0162390378,
stim/5.jpg,stim/4.jpg,11,2,3,16,106,13,,,,,,2,1,1.01637071762,2016_Aug_22_1416,P6,PLC_T_D1S1,NHGX,60.0162390378,
stim/2.jpg,stim/3.jpg,3,2,3,17,107,2,,,,,,2,1,1.03297062965,2016_Aug_22_1416,P6,PLC_T_D1S1,NHGX,60.0162390378,
stim/3.jpg,stim/1.jpg,1,4,3,18,108,5,,,,,,4,1,0.999635865761,2016_Aug_22_1416,P6,PLC_T_D1S1,NHGX,60.0162390378,
stim/3.jpg,stim/4.jpg,2,4,3,19,109,10,,,,,,4,1,0.883012311891,2016_Aug_22_1416,P6,PLC_T_D1S1,NHGX,60.0162390378,
stim/3.jpg,stim/5.jpg,4,4,3,20,110,20,,,,,,4,1,1.41620218719,2016_Aug_22_1416,P6,PLC_T_D1S1,NHGX,60.0162390378,
stim/6.jpg,stim/5.jpg,15,2,3,21,111,24,,,,,,2,1,1.56612372342,2016_Aug_22_1416,P6,PLC_T_D1S1,NHGX,60.0162390378,
stim/5.jpg,stim/2.jpg,13,4,3,22,112,18,,,,,,4,1,1.11628829449,2016_Aug_22_1416,P6,PLC_T_D1S1,NHGX,60.0162390378,
stim/1.jpg,stim/3.jpg,1,2,3,23,113,0,,,,,,2,1,0.983024723781,2016_Aug_22_1416,P6,PLC_T_D1S1,NHGX,60.0162390378,
stim/4.jpg,stim/3.jpg,2,2,3,24,114,1,,,,,,4,0,1.08296957553,2016_Aug_22_1416,P6,PLC_T_D1S1,NHGX,60.0162390378,
stim/1.jpg,stim/5.jpg,8,2,3,25,115,21,,,,,,2,1,1.13296836201,2016_Aug_22_1416,P6,PLC_T_D1S1,NHGX,60.0162390378,
stim/4.jpg,stim/5.jpg,11,4,3,26,116,22,,,,,,4,1,0.966356944847,2016_Aug_22_1416,P6,PLC_T_D1S1,NHGX,60.0162390378,
stim/5.jpg,stim/1.jpg,8,4,3,27,117,8,,,,,,4,1,1.21625955497,2016_Aug_22_1416,P6,PLC_T_D1S1,NHGX,60.0162390378,
stim/4.jpg,stim/1.jpg,6,4,3,28,118,6,,,,,,4,1,1.26624730999,2016_Aug_22_1416,P6,PLC_T_D1S1,NHGX,60.0162390378,
stim/1.jpg,stim/4.jpg,6,2,3,29,119,11,,,,,,2,1,1.19955534336,2016_Aug_22_1416,P6,PLC_T_D1S1,NHGX,60.0162390378,
stim/5.jpg,stim/6.jpg,15,4,4,0,120,29,,,,,,2,0,1.43285942189,2016_Aug_22_1416,P6,PLC_T_D1S1,NHGX,60.0162390378,
stim/2.jpg,stim/1.jpg,7,4,4,1,121,7,,,,,,None,0,,2016_Aug_22_1416,P6,PLC_T_D1S1,NHGX,60.0162390378,
stim/4.jpg,stim/3.jpg,2,2,4,2,122,1,,,,,,4,0,0.799756643346,2016_Aug_22_1416,P6,PLC_T_D1S1,NHGX,60.0162390378,
stim/6.jpg,stim/1.jpg,9,4,4,3,123,9,,,,,,4,1,1.3162007436,2016_Aug_22_1416,P6,PLC_T_D1S1,NHGX,60.0162390378,
stim/4.jpg,stim/2.jpg,10,4,4,4,124,17,,,,,,4,1,0.916271446562,2016_Aug_22_1416,P6,PLC_T_D1S1,NHGX,60.0162390378,
stim/5.jpg,stim/4.jpg,11,2,4,5,125,13,,,,,,2,1,0.982987879084,2016_Aug_22_1416,P6,PLC_T_D1S1,NHGX,60.0162390378,
stim/2.jpg,stim/5.jpg,13,2,4,6,126,23,,,,,,2,1,1.14961714567,2016_Aug_22_1416,P6,PLC_T_D1S1,NHGX,60.0162390378,
stim/5.jpg,stim/1.jpg,8,4,4,7,127,8,,,,,,4,1,1.11629867032,2016_Aug_22_1416,P6,PLC_T_D1S1,NHGX,60.0162390378,
stim/4.jpg,stim/1.jpg,6,4,4,8,128,6,,,,,,4,1,0.982981349835,2016_Aug_22_1416,P6,PLC_T_D1S1,NHGX,60.0162390378,
stim/6.jpg,stim/5.jpg,15,2,4,9,129,24,,,,,,2,1,1.54952096931,2016_Aug_22_1416,P6,PLC_T_D1S1,NHGX,60.0162390378,
stim/3.jpg,stim/1.jpg,1,4,4,10,130,5,,,,,,4,1,0.966332298508,2016_Aug_22_1416,P6,PLC_T_D1S1,NHGX,60.0162390378,
stim/2.jpg,stim/3.jpg,3,2,4,11,131,2,,,,,,2,1,1.18296175006,2016_Aug_22_1416,P6,PLC_T_D1S1,NHGX,60.0162390378,
stim/4.jpg,stim/6.jpg,12,4,4,12,132,27,,,,,,4,1,1.01632090465,2016_Aug_22_1416,P6,PLC_T_D1S1,NHGX,60.0162390378,
stim/1.jpg,stim/4.jpg,6,2,4,13,133,11,,,,,,2,1,0.966338045811,2016_Aug_22_1416,P6,PLC_T_D1S1,NHGX,60.0162390378,
stim/2.jpg,stim/4.jpg,10,2,4,14,134,12,,,,,,2,1,1.03299739025,2016_Aug_22_1416,P6,PLC_T_D1S1,NHGX,60.0162390378,
stim/1.jpg,stim/3.jpg,1,2,4,15,135,0,,,,,,2,1,1.11627566907,2016_Aug_22_1416,P6,PLC_T_D1S1,NHGX,60.0162390378,
stim/3.jpg,stim/4.jpg,2,4,4,16,136,10,,,,,,4,1,1.44954134803,2016_Aug_22_1416,P6,PLC_T_D1S1,NHGX,60.0162390378,
stim/6.jpg,stim/4.jpg,12,2,4,17,137,14,,,,,,2,1,0.883032386853,2016_Aug_22_1416,P6,PLC_T_D1S1,NHGX,60.0162390378,
stim/2.jpg,stim/6.jpg,14,2,4,18,138,28,,,,,,2,1,1.58279902106,2016_Aug_22_1416,P6,PLC_T_D1S1,NHGX,60.0162390378,
stim/1.jpg,stim/2.jpg,7,2,4,19,139,16,,,,,,2,1,1.38287952542,2016_Aug_22_1416,P6,PLC_T_D1S1,NHGX,60.0162390378,
stim/4.jpg,stim/5.jpg,11,4,4,20,140,22,,,,,,4,1,1.18289115837,2016_Aug_22_1416,P6,PLC_T_D1S1,NHGX,60.0162390378,
stim/5.jpg,stim/3.jpg,4,2,4,21,141,3,,,,,,2,1,1.49947498637,2016_Aug_22_1416,P6,PLC_T_D1S1,NHGX,60.0162390378,
stim/6.jpg,stim/2.jpg,14,4,4,22,142,19,,,,,,4,1,1.33290395973,2016_Aug_22_1416,P6,PLC_T_D1S1,NHGX,60.0162390378,
stim/6.jpg,stim/3.jpg,5,2,4,23,143,4,,,,,,2,1,1.0996333515,2016_Aug_22_1416,P6,PLC_T_D1S1,NHGX,60.0162390378,
stim/1.jpg,stim/5.jpg,8,2,4,24,144,21,,,,,,2,1,1.13296763721,2016_Aug_22_1416,P6,PLC_T_D1S1,NHGX,60.0162390378,
stim/1.jpg,stim/6.jpg,9,2,4,25,145,26,,,,,,2,1,1.26625003778,2016_Aug_22_1416,P6,PLC_T_D1S1,NHGX,60.0162390378,
stim/5.jpg,stim/2.jpg,13,4,4,26,146,18,,,,,,4,1,1.21627082401,2016_Aug_22_1416,P6,PLC_T_D1S1,NHGX,60.0162390378,
stim/3.jpg,stim/5.jpg,4,4,4,27,147,20,,,,,,2,0,1.14960043308,2016_Aug_22_1416,P6,PLC_T_D1S1,NHGX,60.0162390378,
stim/3.jpg,stim/2.jpg,3,4,4,28,148,15,,,,,,4,1,1.26623585148,2016_Aug_22_1416,P6,PLC_T_D1S1,NHGX,60.0162390378,
stim/3.jpg,stim/6.jpg,5,4,4,29,149,25,,,,,,4,1,1.2829668297,2016_Aug_22_1416,P6,PLC_T_D1S1,NHGX,60.0162390378,
stim/6.jpg,stim/2.jpg,14,4,5,0,150,19,,,,,,4,1,1.61611875656,2016_Aug_22_1416,P6,PLC_T_D1S1,NHGX,60.0162390378,
stim/1.jpg,stim/6.jpg,9,2,5,1,151,26,,,,,,2,1,1.13296364026,2016_Aug_22_1416,P6,PLC_T_D1S1,NHGX,60.0162390378,
stim/3.jpg,stim/2.jpg,3,4,5,2,152,15,,,,,,4,1,1.31613672929,2016_Aug_22_1416,P6,PLC_T_D1S1,NHGX,60.0162390378,
stim/4.jpg,stim/5.jpg,11,4,5,3,153,22,,,,,,4,1,1.09961598328,2016_Aug_22_1416,P6,PLC_T_D1S1,NHGX,60.0162390378,
stim/6.jpg,stim/1.jpg,9,4,5,4,154,9,,,,,,4,1,1.44951174836,2016_Aug_22_1416,P6,PLC_T_D1S1,NHGX,60.0162390378,
stim/1.jpg,stim/3.jpg,1,2,5,5,155,0,,,,,,2,1,1.09962283132,2016_Aug_22_1416,P6,PLC_T_D1S1,NHGX,60.0162390378,
stim/6.jpg,stim/4.jpg,12,2,5,6,156,14,,,,,,2,1,0.949688747871,2016_Aug_22_1416,P6,PLC_T_D1S1,NHGX,60.0162390378,
stim/2.jpg,stim/3.jpg,3,2,5,7,157,2,,,,,,2,1,1.03298101751,2016_Aug_22_1416,P6,PLC_T_D1S1,NHGX,60.0162390378,
stim/4.jpg,stim/6.jpg,12,4,5,8,158,27,,,,,,4,1,0.899680947959,2016_Aug_22_1416,P6,PLC_T_D1S1,NHGX,60.0162390378,
stim/4.jpg,stim/3.jpg,2,2,5,9,159,1,,,,,,4,0,0.966352105803,2016_Aug_22_1416,P6,PLC_T_D1S1,NHGX,60.0162390378,
stim/2.jpg,stim/6.jpg,14,2,5,10,160,28,,,,,,2,1,1.23289756281,2016_Aug_22_1416,P6,PLC_T_D1S1,NHGX,60.0162390378,
stim/1.jpg,stim/2.jpg,7,2,5,11,161,16,,,,,,2,1,0.933007639763,2016_Aug_22_1416,P6,PLC_T_D1S1,NHGX,60.0162390378,
stim/2.jpg,stim/5.jpg,13,2,5,12,162,23,,,,,,2,1,1.09961732462,2016_Aug_22_1416,P6,PLC_T_D1S1,NHGX,60.0162390378,
stim/6.jpg,stim/5.jpg,15,2,5,13,163,24,,,,,,2,1,1.54948154119,2016_Aug_22_1416,P6,PLC_T_D1S1,NHGX,60.0162390378,
stim/1.jpg,stim/5.jpg,8,2,5,14,164,21,,,,,,None,0,,2016_Aug_22_1416,P6,PLC_T_D1S1,NHGX,60.0162390378,
stim/3.jpg,stim/4.jpg,2,4,5,15,165,10,,,,,,2,0,1.14962365086,2016_Aug_22_1416,P6,PLC_T_D1S1,NHGX,60.0162390378,
stim/4.jpg,stim/1.jpg,6,4,5,16,166,6,,,,,,4,1,1.13295293662,2016_Aug_22_1416,P6,PLC_T_D1S1,NHGX,60.0162390378,
stim/3.jpg,stim/1.jpg,1,4,5,17,167,5,,,,,,4,1,1.31624024391,2016_Aug_22_1416,P6,PLC_T_D1S1,NHGX,60.0162390378,
stim/6.jpg,stim/3.jpg,5,2,5,18,168,4,,,,,,2,1,1.23286592708,2016_Aug_22_1416,P6,PLC_T_D1S1,NHGX,60.0162390378,
stim/5.jpg,stim/6.jpg,15,4,5,19,169,29,,,,,,4,1,1.24961481788,2016_Aug_22_1416,P6,PLC_T_D1S1,NHGX,60.0162390378,
stim/2.jpg,stim/4.jpg,10,2,5,20,170,12,,,,,,2,1,1.14960745856,2016_Aug_22_1416,P6,PLC_T_D1S1,NHGX,60.0162390378,
stim/4.jpg,stim/2.jpg,10,4,5,21,171,17,,,,,,4,1,1.08297420706,2016_Aug_22_1416,P6,PLC_T_D1S1,NHGX,60.0162390378,
stim/1.jpg,stim/4.jpg,6,2,5,22,172,11,,,,,,2,1,1.04965575275,2016_Aug_22_1416,P6,PLC_T_D1S1,NHGX,60.0162390378,
stim/5.jpg,stim/4.jpg,11,2,5,23,173,13,,,,,,2,1,0.766366851502,2016_Aug_22_1416,P6,PLC_T_D1S1,NHGX,60.0162390378,
stim/5.jpg,stim/3.jpg,4,2,5,24,174,3,,,,,,2,1,1.11629749138,2016_Aug_22_1416,P6,PLC_T_D1S1,NHGX,60.0162390378,
stim/3.jpg,stim/5.jpg,4,4,5,25,175,20,,,,,,4,1,0.883058173028,2016_Aug_22_1416,P6,PLC_T_D1S1,NHGX,60.0162390378,
stim/5.jpg,stim/2.jpg,13,4,5,26,176,18,,,,,,4,1,1.08298311824,2016_Aug_22_1416,P6,PLC_T_D1S1,NHGX,60.0162390378,
stim/2.jpg,stim/1.jpg,7,4,5,27,177,7,,,,,,2,0,1.28293088123,2016_Aug_22_1416,P6,PLC_T_D1S1,NHGX,60.0162390378,
stim/5.jpg,stim/1.jpg,8,4,5,28,178,8,,,,,,4,1,1.14960172028,2016_Aug_22_1416,P6,PLC_T_D1S1,NHGX,60.0162390378,
stim/3.jpg,stim/6.jpg,5,4,5,29,179,25,,,,,,4,1,1.08298813773,2016_Aug_22_1416,P6,PLC_T_D1S1,NHGX,60.0162390378,
