symbol2,symbol1,decisionID,correct,block_01.thisRepN,block_01.thisTrialN,block_01.thisN,block_01.thisIndex,mouse.x,mouse.y,mouse.leftButton,mouse.midButton,mouse.rightButton,buttonBox_2.keys,buttonBox_2.corr,buttonBox_2.rt,date,Participant,expName,Group,frameRate,
,,,,,,,,0.9984375,1.0,1,0,0,,,,2016_Aug_29_1556,P7,PLC_T_D1S1,NHGX,60.0135273985,
stim/6.jpg,stim/1.jpg,8,4,0,0,0,8,,,,,,4,1,0.834098672942,2016_Aug_29_1556,P7,PLC_T_D1S1,NHGX,60.0135273985,
stim/1.jpg,stim/3.jpg,9,2,0,1,1,26,,,,,,2,1,0.766429581732,2016_Aug_29_1556,P7,PLC_T_D1S1,NHGX,60.0135273985,
stim/4.jpg,stim/5.jpg,2,4,0,2,2,10,,,,,,4,1,0.649786774535,2016_Aug_29_1556,P7,PLC_T_D1S1,NHGX,60.0135273985,
stim/4.jpg,stim/2.jpg,3,4,0,3,3,15,,,,,,4,1,0.616371479914,2016_Aug_29_1556,P7,PLC_T_D1S1,NHGX,60.0135273985,
stim/6.jpg,stim/5.jpg,11,2,0,4,4,13,,,,,,4,0,0.833073363357,2016_Aug_29_1556,P7,PLC_T_D1S1,NHGX,60.0135273985,
stim/6.jpg,stim/2.jpg,13,4,0,5,5,18,,,,,,4,1,1.19958849332,2016_Aug_29_1556,P7,PLC_T_D1S1,NHGX,60.0135273985,
stim/2.jpg,stim/1.jpg,7,4,0,6,6,7,,,,,,2,0,0.749755848452,2016_Aug_29_1556,P7,PLC_T_D1S1,NHGX,60.0135273985,
stim/2.jpg,stim/6.jpg,13,2,0,7,7,23,,,,,,2,1,0.932998578958,2016_Aug_29_1556,P7,PLC_T_D1S1,NHGX,60.0135273985,
stim/6.jpg,stim/3.jpg,15,4,0,8,8,29,,,,,,4,1,0.79972805618,2016_Aug_29_1556,P7,PLC_T_D1S1,NHGX,60.0135273985,
stim/1.jpg,stim/6.jpg,8,2,0,9,9,21,,,,,,2,1,0.983004245081,2016_Aug_29_1556,P7,PLC_T_D1S1,NHGX,60.0135273985,
stim/5.jpg,stim/3.jpg,12,4,0,10,10,27,,,,,,4,1,0.816357323629,2016_Aug_29_1556,P7,PLC_T_D1S1,NHGX,60.0135273985,
stim/4.jpg,stim/1.jpg,1,4,0,11,11,5,,,,,,4,1,0.499817399869,2016_Aug_29_1556,P7,PLC_T_D1S1,NHGX,60.0135273985,
stim/5.jpg,stim/6.jpg,11,4,0,12,12,22,,,,,,2,0,0.816369461883,2016_Aug_29_1556,P7,PLC_T_D1S1,NHGX,60.0135273985,
stim/5.jpg,stim/1.jpg,6,4,0,13,13,6,,,,,,4,1,0.683085062518,2016_Aug_29_1556,P7,PLC_T_D1S1,NHGX,60.0135273985,
stim/1.jpg,stim/2.jpg,7,2,0,14,14,16,,,,,,2,1,0.74972393591,2016_Aug_29_1556,P7,PLC_T_D1S1,NHGX,60.0135273985,
stim/3.jpg,stim/5.jpg,12,2,0,15,15,14,,,,,,2,1,1.29956404538,2016_Aug_29_1556,P7,PLC_T_D1S1,NHGX,60.0135273985,
stim/5.jpg,stim/2.jpg,10,4,0,16,16,17,,,,,,4,1,0.666447704904,2016_Aug_29_1556,P7,PLC_T_D1S1,NHGX,60.0135273985,
stim/2.jpg,stim/3.jpg,14,2,0,17,17,28,,,,,,2,1,1.43289322937,2016_Aug_29_1556,P7,PLC_T_D1S1,NHGX,60.0135273985,
stim/3.jpg,stim/6.jpg,15,2,0,18,18,24,,,,,,2,1,0.816421635927,2016_Aug_29_1556,P7,PLC_T_D1S1,NHGX,60.0135273985,
stim/3.jpg,stim/2.jpg,14,4,0,19,19,19,,,,,,4,1,1.18299581206,2016_Aug_29_1556,P7,PLC_T_D1S1,NHGX,60.0135273985,
stim/2.jpg,stim/4.jpg,3,2,0,20,20,2,,,,,,2,1,0.749704955601,2016_Aug_29_1556,P7,PLC_T_D1S1,NHGX,60.0135273985,
stim/6.jpg,stim/4.jpg,4,2,0,21,21,3,,,,,,2,1,0.616436637319,2016_Aug_29_1556,P7,PLC_T_D1S1,NHGX,60.0135273985,
stim/3.jpg,stim/4.jpg,5,2,0,22,22,4,,,,,,2,1,0.533143077119,2016_Aug_29_1556,P7,PLC_T_D1S1,NHGX,60.0135273985,
stim/2.jpg,stim/5.jpg,10,2,0,23,23,12,,,,,,2,1,0.966355239435,2016_Aug_29_1556,P7,PLC_T_D1S1,NHGX,60.0135273985,
stim/1.jpg,stim/5.jpg,6,2,0,24,24,11,,,,,,2,1,0.633069255118,2016_Aug_29_1556,P7,PLC_T_D1S1,NHGX,60.0135273985,
stim/4.jpg,stim/3.jpg,5,4,0,25,25,25,,,,,,4,1,0.833046966564,2016_Aug_29_1556,P7,PLC_T_D1S1,NHGX,60.0135273985,
stim/3.jpg,stim/1.jpg,9,4,0,26,26,9,,,,,,4,1,1.63279822257,2016_Aug_29_1556,P7,PLC_T_D1S1,NHGX,60.0135273985,
stim/4.jpg,stim/6.jpg,4,4,0,27,27,20,,,,,,2,0,0.616455395073,2016_Aug_29_1556,P7,PLC_T_D1S1,NHGX,60.0135273985,
stim/5.jpg,stim/4.jpg,2,2,0,28,28,1,,,,,,2,1,0.616450171051,2016_Aug_29_1556,P7,PLC_T_D1S1,NHGX,60.0135273985,
stim/1.jpg,stim/4.jpg,1,2,0,29,29,0,,,,,,2,1,0.549813273585,2016_Aug_29_1556,P7,PLC_T_D1S1,NHGX,60.0135273985,
stim/1.jpg,stim/2.jpg,7,2,1,0,30,16,,,,,,4,0,1.36622883136,2016_Aug_29_1556,P7,PLC_T_D1S1,NHGX,60.0135273985,
stim/1.jpg,stim/6.jpg,8,2,1,1,31,21,,,,,,2,1,0.766408541289,2016_Aug_29_1556,P7,PLC_T_D1S1,NHGX,60.0135273985,
stim/3.jpg,stim/4.jpg,5,2,1,2,32,4,,,,,,2,1,0.633128908806,2016_Aug_29_1556,P7,PLC_T_D1S1,NHGX,60.0135273985,
stim/6.jpg,stim/4.jpg,4,2,1,3,33,3,,,,,,2,1,0.566416312659,2016_Aug_29_1556,P7,PLC_T_D1S1,NHGX,60.0135273985,
stim/2.jpg,stim/4.jpg,3,2,1,4,34,2,,,,,,2,1,0.54979162262,2016_Aug_29_1556,P7,PLC_T_D1S1,NHGX,60.0135273985,
stim/4.jpg,stim/1.jpg,1,4,1,5,35,5,,,,,,4,1,0.53316325742,2016_Aug_29_1556,P7,PLC_T_D1S1,NHGX,60.0135273985,
stim/6.jpg,stim/5.jpg,11,2,1,6,36,13,,,,,,4,0,1.33292436298,2016_Aug_29_1556,P7,PLC_T_D1S1,NHGX,60.0135273985,
stim/2.jpg,stim/5.jpg,10,2,1,7,37,12,,,,,,2,1,0.766407858588,2016_Aug_29_1556,P7,PLC_T_D1S1,NHGX,60.0135273985,
stim/3.jpg,stim/5.jpg,12,2,1,8,38,14,,,,,,2,1,0.899692294043,2016_Aug_29_1556,P7,PLC_T_D1S1,NHGX,60.0135273985,
stim/4.jpg,stim/3.jpg,5,4,1,9,39,25,,,,,,4,1,0.883088145201,2016_Aug_29_1556,P7,PLC_T_D1S1,NHGX,60.0135273985,
stim/2.jpg,stim/6.jpg,13,2,1,10,40,23,,,,,,2,1,0.766411840513,2016_Aug_29_1556,P7,PLC_T_D1S1,NHGX,60.0135273985,
stim/5.jpg,stim/2.jpg,10,4,1,11,41,17,,,,,,4,1,0.78308407606,2016_Aug_29_1556,P7,PLC_T_D1S1,NHGX,60.0135273985,
stim/6.jpg,stim/2.jpg,13,4,1,12,42,18,,,,,,4,1,0.983006380403,2016_Aug_29_1556,P7,PLC_T_D1S1,NHGX,60.0135273985,
stim/1.jpg,stim/5.jpg,6,2,1,13,43,11,,,,,,2,1,0.716425855445,2016_Aug_29_1556,P7,PLC_T_D1S1,NHGX,60.0135273985,
stim/3.jpg,stim/6.jpg,15,2,1,14,44,24,,,,,,2,1,0.833049892857,2016_Aug_29_1556,P7,PLC_T_D1S1,NHGX,60.0135273985,
stim/3.jpg,stim/2.jpg,14,4,1,15,45,19,,,,,,4,1,0.849704853346,2016_Aug_29_1556,P7,PLC_T_D1S1,NHGX,60.0135273985,
stim/2.jpg,stim/1.jpg,7,4,1,16,46,7,,,,,,2,0,1.28288828806,2016_Aug_29_1556,P7,PLC_T_D1S1,NHGX,60.0135273985,
stim/2.jpg,stim/3.jpg,14,2,1,17,47,28,,,,,,2,1,1.23289730152,2016_Aug_29_1556,P7,PLC_T_D1S1,NHGX,60.0135273985,
stim/6.jpg,stim/1.jpg,8,4,1,18,48,8,,,,,,4,1,1.48281301945,2016_Aug_29_1556,P7,PLC_T_D1S1,NHGX,60.0135273985,
stim/1.jpg,stim/4.jpg,1,2,1,19,49,0,,,,,,2,1,0.716272776896,2016_Aug_29_1556,P7,PLC_T_D1S1,NHGX,60.0135273985,
stim/4.jpg,stim/2.jpg,3,4,1,20,50,15,,,,,,4,1,0.666439999699,2016_Aug_29_1556,P7,PLC_T_D1S1,NHGX,60.0135273985,
stim/5.jpg,stim/1.jpg,6,4,1,21,51,6,,,,,,4,1,0.916373425764,2016_Aug_29_1556,P7,PLC_T_D1S1,NHGX,60.0135273985,
stim/5.jpg,stim/6.jpg,11,4,1,22,52,22,,,,,,2,0,1.31615921384,2016_Aug_29_1556,P7,PLC_T_D1S1,NHGX,60.0135273985,
stim/1.jpg,stim/3.jpg,9,2,1,23,53,26,,,,,,2,1,1.48283377418,2016_Aug_29_1556,P7,PLC_T_D1S1,NHGX,60.0135273985,
stim/5.jpg,stim/3.jpg,12,4,1,24,54,27,,,,,,4,1,0.866372794189,2016_Aug_29_1556,P7,PLC_T_D1S1,NHGX,60.0135273985,
stim/4.jpg,stim/5.jpg,2,4,1,25,55,10,,,,,,4,1,0.88305002218,2016_Aug_29_1556,P7,PLC_T_D1S1,NHGX,60.0135273985,
stim/5.jpg,stim/4.jpg,2,2,1,26,56,1,,,,,,2,1,1.16635262291,2016_Aug_29_1556,P7,PLC_T_D1S1,NHGX,60.0135273985,
stim/3.jpg,stim/1.jpg,9,4,1,27,57,9,,,,,,4,1,1.14960822249,2016_Aug_29_1556,P7,PLC_T_D1S1,NHGX,60.0135273985,
stim/4.jpg,stim/6.jpg,4,4,1,28,58,20,,,,,,4,1,0.766421545703,2016_Aug_29_1556,P7,PLC_T_D1S1,NHGX,60.0135273985,
stim/6.jpg,stim/3.jpg,15,4,1,29,59,29,,,,,,4,1,1.1328563695,2016_Aug_29_1556,P7,PLC_T_D1S1,NHGX,60.0135273985,
stim/1.jpg,stim/6.jpg,8,2,2,0,60,21,,,,,,2,1,1.19958842716,2016_Aug_29_1556,P7,PLC_T_D1S1,NHGX,60.0135273985,
stim/1.jpg,stim/3.jpg,9,2,2,1,61,26,,,,,,None,0,,2016_Aug_29_1556,P7,PLC_T_D1S1,NHGX,60.0135273985,
stim/2.jpg,stim/1.jpg,7,4,2,2,62,7,,,,,,2,0,1.08293827565,2016_Aug_29_1556,P7,PLC_T_D1S1,NHGX,60.0135273985,
stim/6.jpg,stim/4.jpg,4,2,2,3,63,3,,,,,,2,1,0.699770287441,2016_Aug_29_1556,P7,PLC_T_D1S1,NHGX,60.0135273985,
stim/6.jpg,stim/2.jpg,13,4,2,4,64,18,,,,,,4,1,0.916343035015,2016_Aug_29_1556,P7,PLC_T_D1S1,NHGX,60.0135273985,
stim/2.jpg,stim/4.jpg,3,2,2,5,65,2,,,,,,2,1,0.54981502094,2016_Aug_29_1556,P7,PLC_T_D1S1,NHGX,60.0135273985,
stim/6.jpg,stim/5.jpg,11,2,2,6,66,13,,,,,,4,0,1.11630779618,2016_Aug_29_1556,P7,PLC_T_D1S1,NHGX,60.0135273985,
stim/3.jpg,stim/4.jpg,5,2,2,7,67,4,,,,,,2,1,0.616455593567,2016_Aug_29_1556,P7,PLC_T_D1S1,NHGX,60.0135273985,
stim/2.jpg,stim/3.jpg,14,2,2,8,68,28,,,,,,4,0,1.43281525703,2016_Aug_29_1556,P7,PLC_T_D1S1,NHGX,60.0135273985,
stim/5.jpg,stim/3.jpg,12,4,2,9,69,27,,,,,,4,1,0.999672603965,2016_Aug_29_1556,P7,PLC_T_D1S1,NHGX,60.0135273985,
stim/2.jpg,stim/6.jpg,13,2,2,10,70,23,,,,,,2,1,0.933022326148,2016_Aug_29_1556,P7,PLC_T_D1S1,NHGX,60.0135273985,
stim/5.jpg,stim/2.jpg,10,4,2,11,71,17,,,,,,4,1,0.766400493229,2016_Aug_29_1556,P7,PLC_T_D1S1,NHGX,60.0135273985,
stim/6.jpg,stim/3.jpg,15,4,2,12,72,29,,,,,,4,1,0.933019408877,2016_Aug_29_1556,P7,PLC_T_D1S1,NHGX,60.0135273985,
stim/5.jpg,stim/6.jpg,11,4,2,13,73,22,,,,,,2,0,1.13297637762,2016_Aug_29_1556,P7,PLC_T_D1S1,NHGX,60.0135273985,
stim/1.jpg,stim/2.jpg,7,2,2,14,74,16,,,,,,4,0,0.599802308254,2016_Aug_29_1556,P7,PLC_T_D1S1,NHGX,60.0135273985,
stim/1.jpg,stim/5.jpg,6,2,2,15,75,11,,,,,,2,1,1.0828855783,2016_Aug_29_1556,P7,PLC_T_D1S1,NHGX,60.0135273985,
stim/4.jpg,stim/2.jpg,3,4,2,16,76,15,,,,,,4,1,0.549828079487,2016_Aug_29_1556,P7,PLC_T_D1S1,NHGX,60.0135273985,
stim/4.jpg,stim/3.jpg,5,4,2,17,77,25,,,,,,4,1,0.666453969518,2016_Aug_29_1556,P7,PLC_T_D1S1,NHGX,60.0135273985,
stim/4.jpg,stim/6.jpg,4,4,2,18,78,20,,,,,,4,1,0.466427449417,2016_Aug_29_1556,P7,PLC_T_D1S1,NHGX,60.0135273985,
stim/1.jpg,stim/4.jpg,1,2,2,19,79,0,,,,,,2,1,0.683100524056,2016_Aug_29_1556,P7,PLC_T_D1S1,NHGX,60.0135273985,
stim/5.jpg,stim/4.jpg,2,2,2,20,80,1,,,,,,2,1,0.699739027526,2016_Aug_29_1556,P7,PLC_T_D1S1,NHGX,60.0135273985,
stim/3.jpg,stim/1.jpg,9,4,2,21,81,9,,,,,,2,0,1.33289866091,2016_Aug_29_1556,P7,PLC_T_D1S1,NHGX,60.0135273985,
stim/3.jpg,stim/6.jpg,15,2,2,22,82,24,,,,,,2,1,1.14955030714,2016_Aug_29_1556,P7,PLC_T_D1S1,NHGX,60.0135273985,
stim/4.jpg,stim/5.jpg,2,4,2,23,83,10,,,,,,4,1,0.949688844445,2016_Aug_29_1556,P7,PLC_T_D1S1,NHGX,60.0135273985,
stim/5.jpg,stim/1.jpg,6,4,2,24,84,6,,,,,,4,1,0.749811420967,2016_Aug_29_1556,P7,PLC_T_D1S1,NHGX,60.0135273985,
stim/3.jpg,stim/2.jpg,14,4,2,25,85,19,,,,,,4,1,1.28286203562,2016_Aug_29_1556,P7,PLC_T_D1S1,NHGX,60.0135273985,
stim/4.jpg,stim/1.jpg,1,4,2,26,86,5,,,,,,4,1,0.749729256171,2016_Aug_29_1556,P7,PLC_T_D1S1,NHGX,60.0135273985,
stim/3.jpg,stim/5.jpg,12,2,2,27,87,14,,,,,,2,1,1.39953046067,2016_Aug_29_1556,P7,PLC_T_D1S1,NHGX,60.0135273985,
stim/6.jpg,stim/1.jpg,8,4,2,28,88,8,,,,,,4,1,0.89971216457,2016_Aug_29_1556,P7,PLC_T_D1S1,NHGX,60.0135273985,
stim/2.jpg,stim/5.jpg,10,2,2,29,89,12,,,,,,2,1,0.666402890203,2016_Aug_29_1556,P7,PLC_T_D1S1,NHGX,60.0135273985,
stim/6.jpg,stim/3.jpg,15,4,3,0,90,29,,,,,,4,1,1.08293522605,2016_Aug_29_1556,P7,PLC_T_D1S1,NHGX,60.0135273985,
stim/5.jpg,stim/6.jpg,11,4,3,1,91,22,,,,,,2,0,1.49951914948,2016_Aug_29_1556,P7,PLC_T_D1S1,NHGX,60.0135273985,
stim/6.jpg,stim/4.jpg,4,2,3,2,92,3,,,,,,2,1,0.616464375456,2016_Aug_29_1556,P7,PLC_T_D1S1,NHGX,60.0135273985,
stim/4.jpg,stim/3.jpg,5,4,3,3,93,25,,,,,,4,1,0.566506814234,2016_Aug_29_1556,P7,PLC_T_D1S1,NHGX,60.0135273985,
stim/1.jpg,stim/3.jpg,9,2,3,4,94,26,,,,,,2,1,1.34955761836,2016_Aug_29_1556,P7,PLC_T_D1S1,NHGX,60.0135273985,
stim/2.jpg,stim/1.jpg,7,4,3,5,95,7,,,,,,2,0,1.13295544846,2016_Aug_29_1556,P7,PLC_T_D1S1,NHGX,60.0135273985,
stim/6.jpg,stim/5.jpg,11,2,3,6,96,13,,,,,,4,0,1.01631627131,2016_Aug_29_1556,P7,PLC_T_D1S1,NHGX,60.0135273985,
stim/5.jpg,stim/2.jpg,10,4,3,7,97,17,,,,,,4,1,0.849710167593,2016_Aug_29_1556,P7,PLC_T_D1S1,NHGX,60.0135273985,
stim/1.jpg,stim/2.jpg,7,2,3,8,98,16,,,,,,2,1,1.09963710047,2016_Aug_29_1556,P7,PLC_T_D1S1,NHGX,60.0135273985,
stim/4.jpg,stim/2.jpg,3,4,3,9,99,15,,,,,,4,1,0.616453605612,2016_Aug_29_1556,P7,PLC_T_D1S1,NHGX,60.0135273985,
stim/3.jpg,stim/5.jpg,12,2,3,10,100,14,,,,,,2,1,1.08294784851,2016_Aug_29_1556,P7,PLC_T_D1S1,NHGX,60.0135273985,
stim/4.jpg,stim/6.jpg,4,4,3,11,101,20,,,,,,4,1,0.566525229134,2016_Aug_29_1556,P7,PLC_T_D1S1,NHGX,60.0135273985,
stim/3.jpg,stim/4.jpg,5,2,3,12,102,4,,,,,,2,1,0.599807550319,2016_Aug_29_1556,P7,PLC_T_D1S1,NHGX,60.0135273985,
stim/3.jpg,stim/1.jpg,9,4,3,13,103,9,,,,,,4,1,0.832980518943,2016_Aug_29_1556,P7,PLC_T_D1S1,NHGX,60.0135273985,
stim/4.jpg,stim/5.jpg,2,4,3,14,104,10,,,,,,2,0,0.99964160871,2016_Aug_29_1556,P7,PLC_T_D1S1,NHGX,60.0135273985,
stim/1.jpg,stim/6.jpg,8,2,3,15,105,21,,,,,,2,1,0.966339032037,2016_Aug_29_1556,P7,PLC_T_D1S1,NHGX,60.0135273985,
stim/6.jpg,stim/2.jpg,13,4,3,16,106,18,,,,,,4,1,0.683113754032,2016_Aug_29_1556,P7,PLC_T_D1S1,NHGX,60.0135273985,
stim/4.jpg,stim/1.jpg,1,4,3,17,107,5,,,,,,4,1,0.633119420155,2016_Aug_29_1556,P7,PLC_T_D1S1,NHGX,60.0135273985,
stim/6.jpg,stim/1.jpg,8,4,3,18,108,8,,,,,,4,1,0.6830895888,2016_Aug_29_1556,P7,PLC_T_D1S1,NHGX,60.0135273985,
stim/1.jpg,stim/4.jpg,1,2,3,19,109,0,,,,,,2,1,0.699764263426,2016_Aug_29_1556,P7,PLC_T_D1S1,NHGX,60.0135273985,
stim/5.jpg,stim/4.jpg,2,2,3,20,110,1,,,,,,2,1,0.466434035834,2016_Aug_29_1556,P7,PLC_T_D1S1,NHGX,60.0135273985,
stim/3.jpg,stim/2.jpg,14,4,3,21,111,19,,,,,,4,1,0.91639292637,2016_Aug_29_1556,P7,PLC_T_D1S1,NHGX,60.0135273985,
stim/1.jpg,stim/5.jpg,6,2,3,22,112,11,,,,,,2,1,0.966386141458,2016_Aug_29_1556,P7,PLC_T_D1S1,NHGX,60.0135273985,
stim/2.jpg,stim/3.jpg,14,2,3,23,113,28,,,,,,2,1,0.933008115729,2016_Aug_29_1556,P7,PLC_T_D1S1,NHGX,60.0135273985,
stim/2.jpg,stim/4.jpg,3,2,3,24,114,2,,,,,,2,1,0.516535120788,2016_Aug_29_1556,P7,PLC_T_D1S1,NHGX,60.0135273985,
stim/5.jpg,stim/1.jpg,6,4,3,25,115,6,,,,,,4,1,0.766396547394,2016_Aug_29_1556,P7,PLC_T_D1S1,NHGX,60.0135273985,
stim/2.jpg,stim/5.jpg,10,2,3,26,116,12,,,,,,2,1,0.649777911444,2016_Aug_29_1556,P7,PLC_T_D1S1,NHGX,60.0135273985,
stim/2.jpg,stim/6.jpg,13,2,3,27,117,23,,,,,,2,1,0.849699984211,2016_Aug_29_1556,P7,PLC_T_D1S1,NHGX,60.0135273985,
stim/3.jpg,stim/6.jpg,15,2,3,28,118,24,,,,,,2,1,0.633056764987,2016_Aug_29_1556,P7,PLC_T_D1S1,NHGX,60.0135273985,
stim/5.jpg,stim/3.jpg,12,4,3,29,119,27,,,,,,4,1,0.715353544711,2016_Aug_29_1556,P7,PLC_T_D1S1,NHGX,60.0135273985,
stim/6.jpg,stim/3.jpg,15,4,4,0,120,29,,,,,,4,1,0.883044933496,2016_Aug_29_1556,P7,PLC_T_D1S1,NHGX,60.0135273985,
stim/2.jpg,stim/4.jpg,3,2,4,1,121,2,,,,,,2,1,0.566496215818,2016_Aug_29_1556,P7,PLC_T_D1S1,NHGX,60.0135273985,
stim/4.jpg,stim/3.jpg,5,4,4,2,122,25,,,,,,4,1,0.566485791836,2016_Aug_29_1556,P7,PLC_T_D1S1,NHGX,60.0135273985,
stim/1.jpg,stim/6.jpg,8,2,4,3,123,21,,,,,,2,1,0.666444628236,2016_Aug_29_1556,P7,PLC_T_D1S1,NHGX,60.0135273985,
stim/1.jpg,stim/2.jpg,7,2,4,4,124,16,,,,,,4,0,1.03299280757,2016_Aug_29_1556,P7,PLC_T_D1S1,NHGX,60.0135273985,
stim/4.jpg,stim/6.jpg,4,4,4,5,125,20,,,,,,4,1,0.516502068405,2016_Aug_29_1556,P7,PLC_T_D1S1,NHGX,60.0135273985,
stim/2.jpg,stim/5.jpg,10,2,4,6,126,12,,,,,,2,1,0.583143254562,2016_Aug_29_1556,P7,PLC_T_D1S1,NHGX,60.0135273985,
stim/6.jpg,stim/4.jpg,4,2,4,7,127,3,,,,,,4,0,0.499816975812,2016_Aug_29_1556,P7,PLC_T_D1S1,NHGX,60.0135273985,
stim/6.jpg,stim/5.jpg,11,2,4,8,128,13,,,,,,2,1,0.699753872527,2016_Aug_29_1556,P7,PLC_T_D1S1,NHGX,60.0135273985,
stim/3.jpg,stim/5.jpg,12,2,4,9,129,14,,,,,,2,1,1.09961818332,2016_Aug_29_1556,P7,PLC_T_D1S1,NHGX,60.0135273985,
stim/3.jpg,stim/2.jpg,14,4,4,10,130,19,,,,,,4,1,0.983007144308,2016_Aug_29_1556,P7,PLC_T_D1S1,NHGX,60.0135273985,
stim/3.jpg,stim/1.jpg,9,4,4,11,131,9,,,,,,4,1,0.733102945091,2016_Aug_29_1556,P7,PLC_T_D1S1,NHGX,60.0135273985,
stim/2.jpg,stim/6.jpg,13,2,4,12,132,23,,,,,,2,1,0.949664564929,2016_Aug_29_1556,P7,PLC_T_D1S1,NHGX,60.0135273985,
stim/2.jpg,stim/1.jpg,7,4,4,13,133,7,,,,,,2,0,0.916373922001,2016_Aug_29_1556,P7,PLC_T_D1S1,NHGX,60.0135273985,
stim/4.jpg,stim/5.jpg,2,4,4,14,134,10,,,,,,4,1,1.09962777122,2016_Aug_29_1556,P7,PLC_T_D1S1,NHGX,60.0135273985,
stim/5.jpg,stim/3.jpg,12,4,4,15,135,27,,,,,,4,1,0.899713523959,2016_Aug_29_1556,P7,PLC_T_D1S1,NHGX,60.0135273985,
stim/1.jpg,stim/3.jpg,9,2,4,16,136,26,,,,,,2,1,1.34955017782,2016_Aug_29_1556,P7,PLC_T_D1S1,NHGX,60.0135273985,
stim/4.jpg,stim/1.jpg,1,4,4,17,137,5,,,,,,4,1,0.549818858504,2016_Aug_29_1556,P7,PLC_T_D1S1,NHGX,60.0135273985,
stim/3.jpg,stim/4.jpg,5,2,4,18,138,4,,,,,,2,1,0.516479695641,2016_Aug_29_1556,P7,PLC_T_D1S1,NHGX,60.0135273985,
stim/4.jpg,stim/2.jpg,3,4,4,19,139,15,,,,,,4,1,0.499843345538,2016_Aug_29_1556,P7,PLC_T_D1S1,NHGX,60.0135273985,
stim/5.jpg,stim/2.jpg,10,4,4,20,140,17,,,,,,4,1,0.649755965745,2016_Aug_29_1556,P7,PLC_T_D1S1,NHGX,60.0135273985,
stim/2.jpg,stim/3.jpg,14,2,4,21,141,28,,,,,,2,1,0.749741009466,2016_Aug_29_1556,P7,PLC_T_D1S1,NHGX,60.0135273985,
stim/5.jpg,stim/6.jpg,11,4,4,22,142,22,,,,,,4,1,0.599788209111,2016_Aug_29_1556,P7,PLC_T_D1S1,NHGX,60.0135273985,
stim/5.jpg,stim/1.jpg,6,4,4,23,143,6,,,,,,4,1,0.566438736551,2016_Aug_29_1556,P7,PLC_T_D1S1,NHGX,60.0135273985,
stim/6.jpg,stim/2.jpg,13,4,4,24,144,18,,,,,,4,1,0.799719310381,2016_Aug_29_1556,P7,PLC_T_D1S1,NHGX,60.0135273985,
stim/5.jpg,stim/4.jpg,2,2,4,25,145,1,,,,,,2,1,0.566483494109,2016_Aug_29_1556,P7,PLC_T_D1S1,NHGX,60.0135273985,
stim/3.jpg,stim/6.jpg,15,2,4,26,146,24,,,,,,2,1,1.03300199547,2016_Aug_29_1556,P7,PLC_T_D1S1,NHGX,60.0135273985,
stim/1.jpg,stim/4.jpg,1,2,4,27,147,0,,,,,,2,1,0.766395527853,2016_Aug_29_1556,P7,PLC_T_D1S1,NHGX,60.0135273985,
stim/1.jpg,stim/5.jpg,6,2,4,28,148,11,,,,,,2,1,0.766417542725,2016_Aug_29_1556,P7,PLC_T_D1S1,NHGX,60.0135273985,
stim/6.jpg,stim/1.jpg,8,4,4,29,149,8,,,,,,4,1,0.716427365208,2016_Aug_29_1556,P7,PLC_T_D1S1,NHGX,60.0135273985,
stim/6.jpg,stim/2.jpg,13,4,5,0,150,18,,,,,,4,1,0.516582398628,2016_Aug_29_1556,P7,PLC_T_D1S1,NHGX,60.0135273985,
stim/5.jpg,stim/6.jpg,11,4,5,1,151,22,,,,,,2,0,1.24957304983,2016_Aug_29_1556,P7,PLC_T_D1S1,NHGX,60.0135273985,
stim/5.jpg,stim/4.jpg,2,2,5,2,152,1,,,,,,2,1,0.5831212036,2016_Aug_29_1556,P7,PLC_T_D1S1,NHGX,60.0135273985,
stim/6.jpg,stim/3.jpg,15,4,5,3,153,29,,,,,,4,1,0.699765126577,2016_Aug_29_1556,P7,PLC_T_D1S1,NHGX,60.0135273985,
stim/4.jpg,stim/2.jpg,3,4,5,4,154,15,,,,,,4,1,0.716411620965,2016_Aug_29_1556,P7,PLC_T_D1S1,NHGX,60.0135273985,
stim/3.jpg,stim/2.jpg,14,4,5,5,155,19,,,,,,4,1,1.11631769084,2016_Aug_29_1556,P7,PLC_T_D1S1,NHGX,60.0135273985,
stim/4.jpg,stim/3.jpg,5,4,5,6,156,25,,,,,,4,1,0.53316756716,2016_Aug_29_1556,P7,PLC_T_D1S1,NHGX,60.0135273985,
stim/5.jpg,stim/2.jpg,10,4,5,7,157,17,,,,,,4,1,0.68303508094,2016_Aug_29_1556,P7,PLC_T_D1S1,NHGX,60.0135273985,
stim/1.jpg,stim/3.jpg,9,2,5,8,158,26,,,,,,4,0,0.982981908406,2016_Aug_29_1556,P7,PLC_T_D1S1,NHGX,60.0135273985,
stim/3.jpg,stim/1.jpg,9,4,5,9,159,9,,,,,,2,0,1.16632130586,2016_Aug_29_1556,P7,PLC_T_D1S1,NHGX,60.0135273985,
stim/1.jpg,stim/6.jpg,8,2,5,10,160,21,,,,,,2,1,0.966329128352,2016_Aug_29_1556,P7,PLC_T_D1S1,NHGX,60.0135273985,
stim/5.jpg,stim/1.jpg,6,4,5,11,161,6,,,,,,4,1,0.699733102759,2016_Aug_29_1556,P7,PLC_T_D1S1,NHGX,60.0135273985,
stim/2.jpg,stim/4.jpg,3,2,5,12,162,2,,,,,,2,1,0.599780371576,2016_Aug_29_1556,P7,PLC_T_D1S1,NHGX,60.0135273985,
stim/1.jpg,stim/2.jpg,7,2,5,13,163,16,,,,,,4,0,1.03299323163,2016_Aug_29_1556,P7,PLC_T_D1S1,NHGX,60.0135273985,
stim/2.jpg,stim/5.jpg,10,2,5,14,164,12,,,,,,2,1,0.533156980774,2016_Aug_29_1556,P7,PLC_T_D1S1,NHGX,60.0135273985,
stim/5.jpg,stim/3.jpg,12,4,5,15,165,27,,,,,,4,1,0.54980458192,2016_Aug_29_1556,P7,PLC_T_D1S1,NHGX,60.0135273985,
stim/6.jpg,stim/5.jpg,11,2,5,16,166,13,,,,,,2,1,0.666440279397,2016_Aug_29_1556,P7,PLC_T_D1S1,NHGX,60.0135273985,
stim/3.jpg,stim/6.jpg,15,2,5,17,167,24,,,,,,2,1,0.866379729476,2016_Aug_29_1556,P7,PLC_T_D1S1,NHGX,60.0135273985,
stim/1.jpg,stim/5.jpg,6,2,5,18,168,11,,,,,,2,1,0.649754266509,2016_Aug_29_1556,P7,PLC_T_D1S1,NHGX,60.0135273985,
stim/6.jpg,stim/4.jpg,4,2,5,19,169,3,,,,,,2,1,0.883048948504,2016_Aug_29_1556,P7,PLC_T_D1S1,NHGX,60.0135273985,
stim/2.jpg,stim/1.jpg,7,4,5,20,170,7,,,,,,2,0,0.933045604168,2016_Aug_29_1556,P7,PLC_T_D1S1,NHGX,60.0135273985,
stim/2.jpg,stim/6.jpg,13,2,5,21,171,23,,,,,,2,1,0.599798548883,2016_Aug_29_1556,P7,PLC_T_D1S1,NHGX,60.0135273985,
stim/4.jpg,stim/1.jpg,1,4,5,22,172,5,,,,,,4,1,0.549834933572,2016_Aug_29_1556,P7,PLC_T_D1S1,NHGX,60.0135273985,
stim/4.jpg,stim/5.jpg,2,4,5,23,173,10,,,,,,4,1,0.73303425087,2016_Aug_29_1556,P7,PLC_T_D1S1,NHGX,60.0135273985,
stim/3.jpg,stim/4.jpg,5,2,5,24,174,4,,,,,,2,1,0.549798651138,2016_Aug_29_1556,P7,PLC_T_D1S1,NHGX,60.0135273985,
stim/1.jpg,stim/4.jpg,1,2,5,25,175,0,,,,,,2,1,0.483090361727,2016_Aug_29_1556,P7,PLC_T_D1S1,NHGX,60.0135273985,
stim/6.jpg,stim/1.jpg,8,4,5,26,176,8,,,,,,4,1,0.816388505349,2016_Aug_29_1556,P7,PLC_T_D1S1,NHGX,60.0135273985,
stim/4.jpg,stim/6.jpg,4,4,5,27,177,20,,,,,,4,1,0.516527620093,2016_Aug_29_1556,P7,PLC_T_D1S1,NHGX,60.0135273985,
stim/3.jpg,stim/5.jpg,12,2,5,28,178,14,,,,,,2,1,0.916374024256,2016_Aug_29_1556,P7,PLC_T_D1S1,NHGX,60.0135273985,
stim/2.jpg,stim/3.jpg,14,2,5,29,179,28,,,,,,2,1,0.733064235607,2016_Aug_29_1556,P7,PLC_T_D1S1,NHGX,60.0135273985,
