fb_corr,fb_incorr,symbol2,symbol1,fb_late,pair,position,correct,block_01.thisRepN,block_01.thisTrialN,block_01.thisN,block_01.thisIndex,block_02.thisRepN,block_02.thisTrialN,block_02.thisN,block_02.thisIndex,block_03.thisRepN,block_03.thisTrialN,block_03.thisN,block_03.thisIndex,block_04.thisRepN,block_04.thisTrialN,block_04.thisN,block_04.thisIndex,mouse.x,mouse.y,mouse.leftButton,mouse.midButton,mouse.rightButton,buttonBox_2.keys,buttonBox_2.corr,buttonBox_2.rt,mouse_2.x,mouse_2.y,mouse_2.leftButton,mouse_2.midButton,mouse_2.rightButton,date,Participant,expName,Group,frameRate,
,,,,,,,,,,,,,,,,,,,,,,,,-0.03125,-0.068359375,1,0,0,,,,,,,,,2016_Aug_30_1425,P10,PLC_L_D1S1,NHGX,60.0216794871,
stim/negf.jpg,stim/posf.jpg,stim/3.jpg,stim/6.jpg,stim/latef.jpg,CD,1,2,0,0,0,27,,,,,,,,,,,,,,,,,,4,0,0.916355224397,,,,,,2016_Aug_30_1425,P10,PLC_L_D1S1,NHGX,60.0216794871,
stim/posf.jpg,stim/negf.jpg,stim/2.jpg,stim/4.jpg,stim/latef.jpg,AB,2,4,0,1,1,16,,,,,,,,,,,,,,,,,,4,1,1.14961011722,,,,,,2016_Aug_30_1425,P10,PLC_L_D1S1,NHGX,60.0216794871,
stim/posf.jpg,stim/negf.jpg,stim/6.jpg,stim/3.jpg,stim/latef.jpg,CD,2,4,0,2,2,35,,,,,,,,,,,,,,,,,,2,0,0.833080166315,,,,,,2016_Aug_30_1425,P10,PLC_L_D1S1,NHGX,60.0216794871,
stim/negf.jpg,stim/posf.jpg,stim/4.jpg,stim/2.jpg,stim/latef.jpg,AB,1,2,0,3,3,9,,,,,,,,,,,,,,,,,,2,1,1.21627058142,,,,,,2016_Aug_30_1425,P10,PLC_L_D1S1,NHGX,60.0216794871,
stim/posf.jpg,stim/negf.jpg,stim/4.jpg,stim/2.jpg,stim/latef.jpg,AB,1,2,0,4,4,1,,,,,,,,,,,,,,,,,,4,0,1.13298546026,,,,,,2016_Aug_30_1425,P10,PLC_L_D1S1,NHGX,60.0216794871,
stim/posf.jpg,stim/negf.jpg,stim/5.jpg,stim/1.jpg,stim/latef.jpg,EF,1,2,0,5,5,44,,,,,,,,,,,,,,,,,,4,0,0.883047965053,,,,,,2016_Aug_30_1425,P10,PLC_L_D1S1,NHGX,60.0216794871,
stim/posf.jpg,stim/negf.jpg,stim/3.jpg,stim/6.jpg,stim/latef.jpg,CD,1,2,0,6,6,24,,,,,,,,,,,,,,,,,,2,1,1.44952125172,,,,,,2016_Aug_30_1425,P10,PLC_L_D1S1,NHGX,60.0216794871,
stim/posf.jpg,stim/negf.jpg,stim/6.jpg,stim/3.jpg,stim/latef.jpg,CD,2,4,0,7,7,32,,,,,,,,,,,,,,,,,,2,0,1.28290448042,,,,,,2016_Aug_30_1425,P10,PLC_L_D1S1,NHGX,60.0216794871,
stim/posf.jpg,stim/negf.jpg,stim/3.jpg,stim/6.jpg,stim/latef.jpg,CD,1,2,0,8,8,20,,,,,,,,,,,,,,,,,,4,0,1.26624928534,,,,,,2016_Aug_30_1425,P10,PLC_L_D1S1,NHGX,60.0216794871,
stim/posf.jpg,stim/negf.jpg,stim/6.jpg,stim/3.jpg,stim/latef.jpg,CD,2,4,0,9,9,33,,,,,,,,,,,,,,,,,,2,0,1.48284047188,,,,,,2016_Aug_30_1425,P10,PLC_L_D1S1,NHGX,60.0216794871,
stim/posf.jpg,stim/negf.jpg,stim/5.jpg,stim/1.jpg,stim/latef.jpg,EF,1,2,0,10,10,40,,,,,,,,,,,,,,,,,,4,0,1.56617117165,,,,,,2016_Aug_30_1425,P10,PLC_L_D1S1,NHGX,60.0216794871,
stim/posf.jpg,stim/negf.jpg,stim/4.jpg,stim/2.jpg,stim/latef.jpg,AB,1,2,0,11,11,7,,,,,,,,,,,,,,,,,,4,0,1.11629579928,,,,,,2016_Aug_30_1425,P10,PLC_L_D1S1,NHGX,60.0216794871,
stim/negf.jpg,stim/posf.jpg,stim/1.jpg,stim/5.jpg,stim/latef.jpg,EF,2,4,0,12,12,57,,,,,,,,,,,,,,,,,,2,0,1.08293184262,,,,,,2016_Aug_30_1425,P10,PLC_L_D1S1,NHGX,60.0216794871,
stim/posf.jpg,stim/negf.jpg,stim/5.jpg,stim/1.jpg,stim/latef.jpg,EF,1,2,0,13,13,41,,,,,,,,,,,,,,,,,,4,0,1.04964387035,,,,,,2016_Aug_30_1425,P10,PLC_L_D1S1,NHGX,60.0216794871,
stim/posf.jpg,stim/negf.jpg,stim/2.jpg,stim/4.jpg,stim/latef.jpg,AB,2,4,0,14,14,12,,,,,,,,,,,,,,,,,,4,1,1.16623325539,,,,,,2016_Aug_30_1425,P10,PLC_L_D1S1,NHGX,60.0216794871,
stim/posf.jpg,stim/negf.jpg,stim/2.jpg,stim/4.jpg,stim/latef.jpg,AB,2,4,0,15,15,14,,,,,,,,,,,,,,,,,,4,1,1.26624395005,,,,,,2016_Aug_30_1425,P10,PLC_L_D1S1,NHGX,60.0216794871,
stim/posf.jpg,stim/negf.jpg,stim/5.jpg,stim/1.jpg,stim/latef.jpg,EF,1,2,0,16,16,45,,,,,,,,,,,,,,,,,,2,1,1.44953494485,,,,,,2016_Aug_30_1425,P10,PLC_L_D1S1,NHGX,60.0216794871,
stim/posf.jpg,stim/negf.jpg,stim/5.jpg,stim/1.jpg,stim/latef.jpg,EF,1,2,0,17,17,43,,,,,,,,,,,,,,,,,,2,1,0.949665993489,,,,,,2016_Aug_30_1425,P10,PLC_L_D1S1,NHGX,60.0216794871,
stim/negf.jpg,stim/posf.jpg,stim/2.jpg,stim/4.jpg,stim/latef.jpg,AB,2,4,0,18,18,19,,,,,,,,,,,,,,,,,,2,0,1.09964493199,,,,,,2016_Aug_30_1425,P10,PLC_L_D1S1,NHGX,60.0216794871,
stim/negf.jpg,stim/posf.jpg,stim/4.jpg,stim/2.jpg,stim/latef.jpg,AB,1,2,0,19,19,8,,,,,,,,,,,,,,,,,,4,0,1.14962107353,,,,,,2016_Aug_30_1425,P10,PLC_L_D1S1,NHGX,60.0216794871,
stim/posf.jpg,stim/negf.jpg,stim/4.jpg,stim/2.jpg,stim/latef.jpg,AB,1,2,0,20,20,4,,,,,,,,,,,,,,,,,,None,0,,,,,,,2016_Aug_30_1425,P10,PLC_L_D1S1,NHGX,60.0216794871,
stim/negf.jpg,stim/posf.jpg,stim/3.jpg,stim/6.jpg,stim/latef.jpg,CD,1,2,0,21,21,29,,,,,,,,,,,,,,,,,,2,1,0.982942895166,,,,,,2016_Aug_30_1425,P10,PLC_L_D1S1,NHGX,60.0216794871,
stim/negf.jpg,stim/posf.jpg,stim/5.jpg,stim/1.jpg,stim/latef.jpg,EF,1,2,0,22,22,47,,,,,,,,,,,,,,,,,,2,1,0.766412781859,,,,,,2016_Aug_30_1425,P10,PLC_L_D1S1,NHGX,60.0216794871,
stim/negf.jpg,stim/posf.jpg,stim/3.jpg,stim/6.jpg,stim/latef.jpg,CD,1,2,0,23,23,28,,,,,,,,,,,,,,,,,,2,1,1.38293011331,,,,,,2016_Aug_30_1425,P10,PLC_L_D1S1,NHGX,60.0216794871,
stim/negf.jpg,stim/posf.jpg,stim/6.jpg,stim/3.jpg,stim/latef.jpg,CD,2,4,0,24,24,38,,,,,,,,,,,,,,,,,,4,1,1.06633121555,,,,,,2016_Aug_30_1425,P10,PLC_L_D1S1,NHGX,60.0216794871,
stim/posf.jpg,stim/negf.jpg,stim/4.jpg,stim/2.jpg,stim/latef.jpg,AB,1,2,0,25,25,3,,,,,,,,,,,,,,,,,,2,1,1.18293503658,,,,,,2016_Aug_30_1425,P10,PLC_L_D1S1,NHGX,60.0216794871,
stim/negf.jpg,stim/posf.jpg,stim/1.jpg,stim/5.jpg,stim/latef.jpg,EF,2,4,0,26,26,59,,,,,,,,,,,,,,,,,,4,1,1.01638584071,,,,,,2016_Aug_30_1425,P10,PLC_L_D1S1,NHGX,60.0216794871,
stim/posf.jpg,stim/negf.jpg,stim/1.jpg,stim/5.jpg,stim/latef.jpg,EF,2,4,0,27,27,53,,,,,,,,,,,,,,,,,,4,1,1.04964967782,,,,,,2016_Aug_30_1425,P10,PLC_L_D1S1,NHGX,60.0216794871,
stim/negf.jpg,stim/posf.jpg,stim/6.jpg,stim/3.jpg,stim/latef.jpg,CD,2,4,0,28,28,39,,,,,,,,,,,,,,,,,,4,1,1.29951409388,,,,,,2016_Aug_30_1425,P10,PLC_L_D1S1,NHGX,60.0216794871,
stim/posf.jpg,stim/negf.jpg,stim/6.jpg,stim/3.jpg,stim/latef.jpg,CD,2,4,0,29,29,30,,,,,,,,,,,,,,,,,,2,0,0.783019571282,,,,,,2016_Aug_30_1425,P10,PLC_L_D1S1,NHGX,60.0216794871,
stim/negf.jpg,stim/posf.jpg,stim/6.jpg,stim/3.jpg,stim/latef.jpg,CD,2,4,0,30,30,37,,,,,,,,,,,,,,,,,,2,0,0.999662465696,,,,,,2016_Aug_30_1425,P10,PLC_L_D1S1,NHGX,60.0216794871,
stim/posf.jpg,stim/negf.jpg,stim/2.jpg,stim/4.jpg,stim/latef.jpg,AB,2,4,0,31,31,15,,,,,,,,,,,,,,,,,,2,0,0.699777806182,,,,,,2016_Aug_30_1425,P10,PLC_L_D1S1,NHGX,60.0216794871,
stim/negf.jpg,stim/posf.jpg,stim/2.jpg,stim/4.jpg,stim/latef.jpg,AB,2,4,0,32,32,18,,,,,,,,,,,,,,,,,,4,1,0.849729716318,,,,,,2016_Aug_30_1425,P10,PLC_L_D1S1,NHGX,60.0216794871,
stim/posf.jpg,stim/negf.jpg,stim/2.jpg,stim/4.jpg,stim/latef.jpg,AB,2,4,0,33,33,10,,,,,,,,,,,,,,,,,,4,1,0.866372150585,,,,,,2016_Aug_30_1425,P10,PLC_L_D1S1,NHGX,60.0216794871,
stim/posf.jpg,stim/negf.jpg,stim/2.jpg,stim/4.jpg,stim/latef.jpg,AB,2,4,0,34,34,17,,,,,,,,,,,,,,,,,,2,0,1.13296369501,,,,,,2016_Aug_30_1425,P10,PLC_L_D1S1,NHGX,60.0216794871,
stim/posf.jpg,stim/negf.jpg,stim/4.jpg,stim/2.jpg,stim/latef.jpg,AB,1,2,0,35,35,5,,,,,,,,,,,,,,,,,,2,1,1.19959411132,,,,,,2016_Aug_30_1425,P10,PLC_L_D1S1,NHGX,60.0216794871,
stim/posf.jpg,stim/negf.jpg,stim/2.jpg,stim/4.jpg,stim/latef.jpg,AB,2,4,0,36,36,13,,,,,,,,,,,,,,,,,,2,0,1.19962826144,,,,,,2016_Aug_30_1425,P10,PLC_L_D1S1,NHGX,60.0216794871,
stim/posf.jpg,stim/negf.jpg,stim/5.jpg,stim/1.jpg,stim/latef.jpg,EF,1,2,0,37,37,42,,,,,,,,,,,,,,,,,,2,1,1.23285639055,,,,,,2016_Aug_30_1425,P10,PLC_L_D1S1,NHGX,60.0216794871,
stim/posf.jpg,stim/negf.jpg,stim/6.jpg,stim/3.jpg,stim/latef.jpg,CD,2,4,0,38,38,31,,,,,,,,,,,,,,,,,,2,0,1.13296210705,,,,,,2016_Aug_30_1425,P10,PLC_L_D1S1,NHGX,60.0216794871,
stim/negf.jpg,stim/posf.jpg,stim/1.jpg,stim/5.jpg,stim/latef.jpg,EF,2,4,0,39,39,58,,,,,,,,,,,,,,,,,,2,0,1.13299477448,,,,,,2016_Aug_30_1425,P10,PLC_L_D1S1,NHGX,60.0216794871,
stim/posf.jpg,stim/negf.jpg,stim/6.jpg,stim/3.jpg,stim/latef.jpg,CD,2,4,0,40,40,36,,,,,,,,,,,,,,,,,,4,1,0.999663996511,,,,,,2016_Aug_30_1425,P10,PLC_L_D1S1,NHGX,60.0216794871,
stim/posf.jpg,stim/negf.jpg,stim/4.jpg,stim/2.jpg,stim/latef.jpg,AB,1,2,0,41,41,2,,,,,,,,,,,,,,,,,,2,1,1.5661883234,,,,,,2016_Aug_30_1425,P10,PLC_L_D1S1,NHGX,60.0216794871,
stim/posf.jpg,stim/negf.jpg,stim/4.jpg,stim/2.jpg,stim/latef.jpg,AB,1,2,0,42,42,6,,,,,,,,,,,,,,,,,,4,0,1.29953758543,,,,,,2016_Aug_30_1425,P10,PLC_L_D1S1,NHGX,60.0216794871,
stim/posf.jpg,stim/negf.jpg,stim/3.jpg,stim/6.jpg,stim/latef.jpg,CD,1,2,0,43,43,26,,,,,,,,,,,,,,,,,,4,0,1.14962827949,,,,,,2016_Aug_30_1425,P10,PLC_L_D1S1,NHGX,60.0216794871,
stim/negf.jpg,stim/posf.jpg,stim/5.jpg,stim/1.jpg,stim/latef.jpg,EF,1,2,0,44,44,48,,,,,,,,,,,,,,,,,,4,0,1.26625417553,,,,,,2016_Aug_30_1425,P10,PLC_L_D1S1,NHGX,60.0216794871,
stim/posf.jpg,stim/negf.jpg,stim/6.jpg,stim/3.jpg,stim/latef.jpg,CD,2,4,0,45,45,34,,,,,,,,,,,,,,,,,,2,0,1.16627501748,,,,,,2016_Aug_30_1425,P10,PLC_L_D1S1,NHGX,60.0216794871,
stim/posf.jpg,stim/negf.jpg,stim/3.jpg,stim/6.jpg,stim/latef.jpg,CD,1,2,0,46,46,21,,,,,,,,,,,,,,,,,,4,0,0.949685593341,,,,,,2016_Aug_30_1425,P10,PLC_L_D1S1,NHGX,60.0216794871,
stim/negf.jpg,stim/posf.jpg,stim/5.jpg,stim/1.jpg,stim/latef.jpg,EF,1,2,0,47,47,49,,,,,,,,,,,,,,,,,,4,0,1.1996045353,,,,,,2016_Aug_30_1425,P10,PLC_L_D1S1,NHGX,60.0216794871,
stim/posf.jpg,stim/negf.jpg,stim/1.jpg,stim/5.jpg,stim/latef.jpg,EF,2,4,0,48,48,52,,,,,,,,,,,,,,,,,,2,0,1.56616063939,,,,,,2016_Aug_30_1425,P10,PLC_L_D1S1,NHGX,60.0216794871,
stim/posf.jpg,stim/negf.jpg,stim/1.jpg,stim/5.jpg,stim/latef.jpg,EF,2,4,0,49,49,51,,,,,,,,,,,,,,,,,,4,1,0.516565430335,,,,,,2016_Aug_30_1425,P10,PLC_L_D1S1,NHGX,60.0216794871,
stim/posf.jpg,stim/negf.jpg,stim/1.jpg,stim/5.jpg,stim/latef.jpg,EF,2,4,0,50,50,50,,,,,,,,,,,,,,,,,,4,1,0.833059363463,,,,,,2016_Aug_30_1425,P10,PLC_L_D1S1,NHGX,60.0216794871,
stim/posf.jpg,stim/negf.jpg,stim/3.jpg,stim/6.jpg,stim/latef.jpg,CD,1,2,0,51,51,25,,,,,,,,,,,,,,,,,,2,1,1.26624678611,,,,,,2016_Aug_30_1425,P10,PLC_L_D1S1,NHGX,60.0216794871,
stim/posf.jpg,stim/negf.jpg,stim/4.jpg,stim/2.jpg,stim/latef.jpg,AB,1,2,0,52,52,0,,,,,,,,,,,,,,,,,,4,0,0.849724323877,,,,,,2016_Aug_30_1425,P10,PLC_L_D1S1,NHGX,60.0216794871,
stim/negf.jpg,stim/posf.jpg,stim/1.jpg,stim/5.jpg,stim/latef.jpg,EF,2,4,0,53,53,56,,,,,,,,,,,,,,,,,,4,1,0.466453407117,,,,,,2016_Aug_30_1425,P10,PLC_L_D1S1,NHGX,60.0216794871,
stim/negf.jpg,stim/posf.jpg,stim/5.jpg,stim/1.jpg,stim/latef.jpg,EF,1,2,0,54,54,46,,,,,,,,,,,,,,,,,,4,0,0.299866301757,,,,,,2016_Aug_30_1425,P10,PLC_L_D1S1,NHGX,60.0216794871,
stim/posf.jpg,stim/negf.jpg,stim/3.jpg,stim/6.jpg,stim/latef.jpg,CD,1,2,0,55,55,22,,,,,,,,,,,,,,,,,,2,1,0.399864253652,,,,,,2016_Aug_30_1425,P10,PLC_L_D1S1,NHGX,60.0216794871,
stim/posf.jpg,stim/negf.jpg,stim/2.jpg,stim/4.jpg,stim/latef.jpg,AB,2,4,0,56,56,11,,,,,,,,,,,,,,,,,,2,0,0.666393702303,,,,,,2016_Aug_30_1425,P10,PLC_L_D1S1,NHGX,60.0216794871,
stim/posf.jpg,stim/negf.jpg,stim/1.jpg,stim/5.jpg,stim/latef.jpg,EF,2,4,0,57,57,55,,,,,,,,,,,,,,,,,,2,0,0.316555102593,,,,,,2016_Aug_30_1425,P10,PLC_L_D1S1,NHGX,60.0216794871,
stim/posf.jpg,stim/negf.jpg,stim/1.jpg,stim/5.jpg,stim/latef.jpg,EF,2,4,0,58,58,54,,,,,,,,,,,,,,,,,,2,0,0.299887062503,,,,,,2016_Aug_30_1425,P10,PLC_L_D1S1,NHGX,60.0216794871,
stim/posf.jpg,stim/negf.jpg,stim/3.jpg,stim/6.jpg,stim/latef.jpg,CD,1,2,0,59,59,23,,,,,,,,,,,,,,,,,,2,1,0.466514738987,,,,,,2016_Aug_30_1425,P10,PLC_L_D1S1,NHGX,60.0216794871,
,,,,,,,,,,,,,,,,,,,,,,,,,,,,,,,,0.9984375,0.998046875,1,0,0,2016_Aug_30_1425,P10,PLC_L_D1S1,NHGX,60.0216794871,
stim/posf.jpg,stim/negf.jpg,stim/3.jpg,stim/6.jpg,stim/latef.jpg,CD,1,2,,,,,0,0,0,22,,,,,,,,,,,,,,4,0,1.01627713777,,,,,,2016_Aug_30_1425,P10,PLC_L_D1S1,NHGX,60.0216794871,
stim/posf.jpg,stim/negf.jpg,stim/4.jpg,stim/2.jpg,stim/latef.jpg,AB,1,2,,,,,0,1,1,1,,,,,,,,,,,,,,2,1,1.06632275848,,,,,,2016_Aug_30_1425,P10,PLC_L_D1S1,NHGX,60.0216794871,
stim/negf.jpg,stim/posf.jpg,stim/3.jpg,stim/6.jpg,stim/latef.jpg,CD,1,2,,,,,0,2,2,28,,,,,,,,,,,,,,4,0,1.19959753085,,,,,,2016_Aug_30_1425,P10,PLC_L_D1S1,NHGX,60.0216794871,
stim/posf.jpg,stim/negf.jpg,stim/5.jpg,stim/1.jpg,stim/latef.jpg,EF,1,2,,,,,0,3,3,40,,,,,,,,,,,,,,2,1,1.21624608537,,,,,,2016_Aug_30_1425,P10,PLC_L_D1S1,NHGX,60.0216794871,
stim/negf.jpg,stim/posf.jpg,stim/2.jpg,stim/4.jpg,stim/latef.jpg,AB,2,4,,,,,0,4,4,19,,,,,,,,,,,,,,4,1,1.21619211886,,,,,,2016_Aug_30_1425,P10,PLC_L_D1S1,NHGX,60.0216794871,
stim/negf.jpg,stim/posf.jpg,stim/1.jpg,stim/5.jpg,stim/latef.jpg,EF,2,4,,,,,0,5,5,59,,,,,,,,,,,,,,2,0,0.916358210841,,,,,,2016_Aug_30_1425,P10,PLC_L_D1S1,NHGX,60.0216794871,
stim/posf.jpg,stim/negf.jpg,stim/6.jpg,stim/3.jpg,stim/latef.jpg,CD,2,4,,,,,0,6,6,30,,,,,,,,,,,,,,2,0,1.04965299509,,,,,,2016_Aug_30_1425,P10,PLC_L_D1S1,NHGX,60.0216794871,
stim/posf.jpg,stim/negf.jpg,stim/6.jpg,stim/3.jpg,stim/latef.jpg,CD,2,4,,,,,0,7,7,31,,,,,,,,,,,,,,2,0,0.733040729017,,,,,,2016_Aug_30_1425,P10,PLC_L_D1S1,NHGX,60.0216794871,
stim/negf.jpg,stim/posf.jpg,stim/5.jpg,stim/1.jpg,stim/latef.jpg,EF,1,2,,,,,0,8,8,48,,,,,,,,,,,,,,2,1,0.982994203051,,,,,,2016_Aug_30_1425,P10,PLC_L_D1S1,NHGX,60.0216794871,
stim/posf.jpg,stim/negf.jpg,stim/1.jpg,stim/5.jpg,stim/latef.jpg,EF,2,4,,,,,0,9,9,50,,,,,,,,,,,,,,4,1,0.949751532695,,,,,,2016_Aug_30_1425,P10,PLC_L_D1S1,NHGX,60.0216794871,
stim/posf.jpg,stim/negf.jpg,stim/2.jpg,stim/4.jpg,stim/latef.jpg,AB,2,4,,,,,0,10,10,11,,,,,,,,,,,,,,2,0,1.0163173931,,,,,,2016_Aug_30_1425,P10,PLC_L_D1S1,NHGX,60.0216794871,
stim/negf.jpg,stim/posf.jpg,stim/6.jpg,stim/3.jpg,stim/latef.jpg,CD,2,4,,,,,0,11,11,37,,,,,,,,,,,,,,2,0,1.13299991429,,,,,,2016_Aug_30_1425,P10,PLC_L_D1S1,NHGX,60.0216794871,
stim/negf.jpg,stim/posf.jpg,stim/4.jpg,stim/2.jpg,stim/latef.jpg,AB,1,2,,,,,0,12,12,9,,,,,,,,,,,,,,4,0,1.03299164066,,,,,,2016_Aug_30_1425,P10,PLC_L_D1S1,NHGX,60.0216794871,
stim/negf.jpg,stim/posf.jpg,stim/6.jpg,stim/3.jpg,stim/latef.jpg,CD,2,4,,,,,0,13,13,38,,,,,,,,,,,,,,4,1,1.24958116405,,,,,,2016_Aug_30_1425,P10,PLC_L_D1S1,NHGX,60.0216794871,
stim/posf.jpg,stim/negf.jpg,stim/5.jpg,stim/1.jpg,stim/latef.jpg,EF,1,2,,,,,0,14,14,44,,,,,,,,,,,,,,2,1,0.633068614522,,,,,,2016_Aug_30_1425,P10,PLC_L_D1S1,NHGX,60.0216794871,
stim/posf.jpg,stim/negf.jpg,stim/3.jpg,stim/6.jpg,stim/latef.jpg,CD,1,2,,,,,0,15,15,24,,,,,,,,,,,,,,2,1,1.34953669521,,,,,,2016_Aug_30_1425,P10,PLC_L_D1S1,NHGX,60.0216794871,
stim/negf.jpg,stim/posf.jpg,stim/6.jpg,stim/3.jpg,stim/latef.jpg,CD,2,4,,,,,0,16,16,39,,,,,,,,,,,,,,4,1,1.13295443493,,,,,,2016_Aug_30_1425,P10,PLC_L_D1S1,NHGX,60.0216794871,
stim/posf.jpg,stim/negf.jpg,stim/5.jpg,stim/1.jpg,stim/latef.jpg,EF,1,2,,,,,0,17,17,41,,,,,,,,,,,,,,2,1,1.14967125661,,,,,,2016_Aug_30_1425,P10,PLC_L_D1S1,NHGX,60.0216794871,
stim/posf.jpg,stim/negf.jpg,stim/3.jpg,stim/6.jpg,stim/latef.jpg,CD,1,2,,,,,0,18,18,25,,,,,,,,,,,,,,2,1,0.983004888685,,,,,,2016_Aug_30_1425,P10,PLC_L_D1S1,NHGX,60.0216794871,
stim/posf.jpg,stim/negf.jpg,stim/6.jpg,stim/3.jpg,stim/latef.jpg,CD,2,4,,,,,0,19,19,32,,,,,,,,,,,,,,2,0,1.33295213119,,,,,,2016_Aug_30_1425,P10,PLC_L_D1S1,NHGX,60.0216794871,
stim/posf.jpg,stim/negf.jpg,stim/2.jpg,stim/4.jpg,stim/latef.jpg,AB,2,4,,,,,0,20,20,17,,,,,,,,,,,,,,2,0,1.18295501237,,,,,,2016_Aug_30_1425,P10,PLC_L_D1S1,NHGX,60.0216794871,
stim/posf.jpg,stim/negf.jpg,stim/5.jpg,stim/1.jpg,stim/latef.jpg,EF,1,2,,,,,0,21,21,45,,,,,,,,,,,,,,2,1,0.799688727152,,,,,,2016_Aug_30_1425,P10,PLC_L_D1S1,NHGX,60.0216794871,
stim/posf.jpg,stim/negf.jpg,stim/1.jpg,stim/5.jpg,stim/latef.jpg,EF,2,4,,,,,0,22,22,53,,,,,,,,,,,,,,4,1,0.749766257396,,,,,,2016_Aug_30_1425,P10,PLC_L_D1S1,NHGX,60.0216794871,
stim/negf.jpg,stim/posf.jpg,stim/5.jpg,stim/1.jpg,stim/latef.jpg,EF,1,2,,,,,0,23,23,46,,,,,,,,,,,,,,4,0,1.09964517259,,,,,,2016_Aug_30_1425,P10,PLC_L_D1S1,NHGX,60.0216794871,
stim/negf.jpg,stim/posf.jpg,stim/3.jpg,stim/6.jpg,stim/latef.jpg,CD,1,2,,,,,0,24,24,29,,,,,,,,,,,,,,4,0,1.09964775603,,,,,,2016_Aug_30_1425,P10,PLC_L_D1S1,NHGX,60.0216794871,
stim/posf.jpg,stim/negf.jpg,stim/4.jpg,stim/2.jpg,stim/latef.jpg,AB,1,2,,,,,0,25,25,0,,,,,,,,,,,,,,2,1,1.33288304599,,,,,,2016_Aug_30_1425,P10,PLC_L_D1S1,NHGX,60.0216794871,
stim/posf.jpg,stim/negf.jpg,stim/5.jpg,stim/1.jpg,stim/latef.jpg,EF,1,2,,,,,0,26,26,43,,,,,,,,,,,,,,4,0,1.56618872339,,,,,,2016_Aug_30_1425,P10,PLC_L_D1S1,NHGX,60.0216794871,
stim/posf.jpg,stim/negf.jpg,stim/4.jpg,stim/2.jpg,stim/latef.jpg,AB,1,2,,,,,0,27,27,6,,,,,,,,,,,,,,2,1,1.31629302637,,,,,,2016_Aug_30_1425,P10,PLC_L_D1S1,NHGX,60.0216794871,
stim/posf.jpg,stim/negf.jpg,stim/3.jpg,stim/6.jpg,stim/latef.jpg,CD,1,2,,,,,0,28,28,20,,,,,,,,,,,,,,4,0,1.01631993444,,,,,,2016_Aug_30_1425,P10,PLC_L_D1S1,NHGX,60.0216794871,
stim/negf.jpg,stim/posf.jpg,stim/5.jpg,stim/1.jpg,stim/latef.jpg,EF,1,2,,,,,0,29,29,47,,,,,,,,,,,,,,4,0,0.966361699536,,,,,,2016_Aug_30_1425,P10,PLC_L_D1S1,NHGX,60.0216794871,
stim/posf.jpg,stim/negf.jpg,stim/1.jpg,stim/5.jpg,stim/latef.jpg,EF,2,4,,,,,0,30,30,52,,,,,,,,,,,,,,2,0,0.966346983857,,,,,,2016_Aug_30_1425,P10,PLC_L_D1S1,NHGX,60.0216794871,
stim/posf.jpg,stim/negf.jpg,stim/6.jpg,stim/3.jpg,stim/latef.jpg,CD,2,4,,,,,0,31,31,35,,,,,,,,,,,,,,2,0,1.01637225585,,,,,,2016_Aug_30_1425,P10,PLC_L_D1S1,NHGX,60.0216794871,
stim/posf.jpg,stim/negf.jpg,stim/2.jpg,stim/4.jpg,stim/latef.jpg,AB,2,4,,,,,0,32,32,14,,,,,,,,,,,,,,2,0,0.98299932181,,,,,,2016_Aug_30_1425,P10,PLC_L_D1S1,NHGX,60.0216794871,
stim/posf.jpg,stim/negf.jpg,stim/2.jpg,stim/4.jpg,stim/latef.jpg,AB,2,4,,,,,0,33,33,16,,,,,,,,,,,,,,4,1,0.633110987136,,,,,,2016_Aug_30_1425,P10,PLC_L_D1S1,NHGX,60.0216794871,
stim/negf.jpg,stim/posf.jpg,stim/3.jpg,stim/6.jpg,stim/latef.jpg,CD,1,2,,,,,0,34,34,27,,,,,,,,,,,,,,2,1,1.43286453485,,,,,,2016_Aug_30_1425,P10,PLC_L_D1S1,NHGX,60.0216794871,
stim/posf.jpg,stim/negf.jpg,stim/2.jpg,stim/4.jpg,stim/latef.jpg,AB,2,4,,,,,0,35,35,10,,,,,,,,,,,,,,2,0,1.36617757761,,,,,,2016_Aug_30_1425,P10,PLC_L_D1S1,NHGX,60.0216794871,
stim/negf.jpg,stim/posf.jpg,stim/5.jpg,stim/1.jpg,stim/latef.jpg,EF,1,2,,,,,0,36,36,49,,,,,,,,,,,,,,None,0,,,,,,,2016_Aug_30_1425,P10,PLC_L_D1S1,NHGX,60.0216794871,
stim/posf.jpg,stim/negf.jpg,stim/4.jpg,stim/2.jpg,stim/latef.jpg,AB,1,2,,,,,0,37,37,4,,,,,,,,,,,,,,2,1,0.832990203081,,,,,,2016_Aug_30_1425,P10,PLC_L_D1S1,NHGX,60.0216794871,
stim/posf.jpg,stim/negf.jpg,stim/2.jpg,stim/4.jpg,stim/latef.jpg,AB,2,4,,,,,0,38,38,12,,,,,,,,,,,,,,2,0,0.983018834445,,,,,,2016_Aug_30_1425,P10,PLC_L_D1S1,NHGX,60.0216794871,
stim/posf.jpg,stim/negf.jpg,stim/6.jpg,stim/3.jpg,stim/latef.jpg,CD,2,4,,,,,0,39,39,33,,,,,,,,,,,,,,4,1,1.16628055729,,,,,,2016_Aug_30_1425,P10,PLC_L_D1S1,NHGX,60.0216794871,
stim/posf.jpg,stim/negf.jpg,stim/3.jpg,stim/6.jpg,stim/latef.jpg,CD,1,2,,,,,0,40,40,21,,,,,,,,,,,,,,4,0,1.18295071165,,,,,,2016_Aug_30_1425,P10,PLC_L_D1S1,NHGX,60.0216794871,
stim/negf.jpg,stim/posf.jpg,stim/1.jpg,stim/5.jpg,stim/latef.jpg,EF,2,4,,,,,0,41,41,57,,,,,,,,,,,,,,4,1,1.39954162751,,,,,,2016_Aug_30_1425,P10,PLC_L_D1S1,NHGX,60.0216794871,
stim/posf.jpg,stim/negf.jpg,stim/6.jpg,stim/3.jpg,stim/latef.jpg,CD,2,4,,,,,0,42,42,36,,,,,,,,,,,,,,4,1,1.08295060037,,,,,,2016_Aug_30_1425,P10,PLC_L_D1S1,NHGX,60.0216794871,
stim/negf.jpg,stim/posf.jpg,stim/1.jpg,stim/5.jpg,stim/latef.jpg,EF,2,4,,,,,0,43,43,58,,,,,,,,,,,,,,4,1,0.933025288532,,,,,,2016_Aug_30_1425,P10,PLC_L_D1S1,NHGX,60.0216794871,
stim/negf.jpg,stim/posf.jpg,stim/4.jpg,stim/2.jpg,stim/latef.jpg,AB,1,2,,,,,0,44,44,8,,,,,,,,,,,,,,2,1,0.933074473124,,,,,,2016_Aug_30_1425,P10,PLC_L_D1S1,NHGX,60.0216794871,
stim/posf.jpg,stim/negf.jpg,stim/5.jpg,stim/1.jpg,stim/latef.jpg,EF,1,2,,,,,0,45,45,42,,,,,,,,,,,,,,2,1,0.899683821926,,,,,,2016_Aug_30_1425,P10,PLC_L_D1S1,NHGX,60.0216794871,
stim/negf.jpg,stim/posf.jpg,stim/2.jpg,stim/4.jpg,stim/latef.jpg,AB,2,4,,,,,0,46,46,18,,,,,,,,,,,,,,4,1,0.98301093676,,,,,,2016_Aug_30_1425,P10,PLC_L_D1S1,NHGX,60.0216794871,
stim/posf.jpg,stim/negf.jpg,stim/2.jpg,stim/4.jpg,stim/latef.jpg,AB,2,4,,,,,0,47,47,15,,,,,,,,,,,,,,2,0,0.633136328298,,,,,,2016_Aug_30_1425,P10,PLC_L_D1S1,NHGX,60.0216794871,
stim/posf.jpg,stim/negf.jpg,stim/4.jpg,stim/2.jpg,stim/latef.jpg,AB,1,2,,,,,0,48,48,7,,,,,,,,,,,,,,2,1,0.766401344351,,,,,,2016_Aug_30_1425,P10,PLC_L_D1S1,NHGX,60.0216794871,
stim/posf.jpg,stim/negf.jpg,stim/1.jpg,stim/5.jpg,stim/latef.jpg,EF,2,4,,,,,0,49,49,51,,,,,,,,,,,,,,4,1,0.283191642168,,,,,,2016_Aug_30_1425,P10,PLC_L_D1S1,NHGX,60.0216794871,
stim/posf.jpg,stim/negf.jpg,stim/3.jpg,stim/6.jpg,stim/latef.jpg,CD,1,2,,,,,0,50,50,26,,,,,,,,,,,,,,4,0,0.399870145337,,,,,,2016_Aug_30_1425,P10,PLC_L_D1S1,NHGX,60.0216794871,
stim/posf.jpg,stim/negf.jpg,stim/6.jpg,stim/3.jpg,stim/latef.jpg,CD,2,4,,,,,0,51,51,34,,,,,,,,,,,,,,4,1,0.416517030699,,,,,,2016_Aug_30_1425,P10,PLC_L_D1S1,NHGX,60.0216794871,
stim/posf.jpg,stim/negf.jpg,stim/4.jpg,stim/2.jpg,stim/latef.jpg,AB,1,2,,,,,0,52,52,3,,,,,,,,,,,,,,2,1,0.366533686213,,,,,,2016_Aug_30_1425,P10,PLC_L_D1S1,NHGX,60.0216794871,
stim/posf.jpg,stim/negf.jpg,stim/4.jpg,stim/2.jpg,stim/latef.jpg,AB,1,2,,,,,0,53,53,2,,,,,,,,,,,,,,2,1,0.433184761017,,,,,,2016_Aug_30_1425,P10,PLC_L_D1S1,NHGX,60.0216794871,
stim/posf.jpg,stim/negf.jpg,stim/3.jpg,stim/6.jpg,stim/latef.jpg,CD,1,2,,,,,0,54,54,23,,,,,,,,,,,,,,4,0,0.266564152149,,,,,,2016_Aug_30_1425,P10,PLC_L_D1S1,NHGX,60.0216794871,
stim/posf.jpg,stim/negf.jpg,stim/4.jpg,stim/2.jpg,stim/latef.jpg,AB,1,2,,,,,0,55,55,5,,,,,,,,,,,,,,4,0,0.249912917948,,,,,,2016_Aug_30_1425,P10,PLC_L_D1S1,NHGX,60.0216794871,
stim/posf.jpg,stim/negf.jpg,stim/2.jpg,stim/4.jpg,stim/latef.jpg,AB,2,4,,,,,0,56,56,13,,,,,,,,,,,,,,4,1,0.283174496432,,,,,,2016_Aug_30_1425,P10,PLC_L_D1S1,NHGX,60.0216794871,
stim/negf.jpg,stim/posf.jpg,stim/1.jpg,stim/5.jpg,stim/latef.jpg,EF,2,4,,,,,0,57,57,56,,,,,,,,,,,,,,2,0,0.283248907903,,,,,,2016_Aug_30_1425,P10,PLC_L_D1S1,NHGX,60.0216794871,
stim/posf.jpg,stim/negf.jpg,stim/1.jpg,stim/5.jpg,stim/latef.jpg,EF,2,4,,,,,0,58,58,54,,,,,,,,,,,,,,2,0,0.716435536575,,,,,,2016_Aug_30_1425,P10,PLC_L_D1S1,NHGX,60.0216794871,
stim/posf.jpg,stim/negf.jpg,stim/1.jpg,stim/5.jpg,stim/latef.jpg,EF,2,4,,,,,0,59,59,55,,,,,,,,,,,,,,2,0,0.483175179134,,,,,,2016_Aug_30_1425,P10,PLC_L_D1S1,NHGX,60.0216794871,
,,,,,,,,,,,,,,,,,,,,,,,,,,,,,,,,0.9984375,0.986328125,1,0,0,2016_Aug_30_1425,P10,PLC_L_D1S1,NHGX,60.0216794871,
stim/posf.jpg,stim/negf.jpg,stim/5.jpg,stim/1.jpg,stim/latef.jpg,EF,1,2,,,,,,,,,0,0,0,45,,,,,,,,,,4,0,0.916388709859,,,,,,2016_Aug_30_1425,P10,PLC_L_D1S1,NHGX,60.0216794871,
stim/negf.jpg,stim/posf.jpg,stim/5.jpg,stim/1.jpg,stim/latef.jpg,EF,1,2,,,,,,,,,0,1,1,47,,,,,,,,,,4,0,0.599864491244,,,,,,2016_Aug_30_1425,P10,PLC_L_D1S1,NHGX,60.0216794871,
stim/posf.jpg,stim/negf.jpg,stim/4.jpg,stim/2.jpg,stim/latef.jpg,AB,1,2,,,,,,,,,0,2,2,0,,,,,,,,,,2,1,0.498827133631,,,,,,2016_Aug_30_1425,P10,PLC_L_D1S1,NHGX,60.0216794871,
stim/posf.jpg,stim/negf.jpg,stim/1.jpg,stim/5.jpg,stim/latef.jpg,EF,2,4,,,,,,,,,0,3,3,50,,,,,,,,,,2,0,0.982948480087,,,,,,2016_Aug_30_1425,P10,PLC_L_D1S1,NHGX,60.0216794871,
stim/posf.jpg,stim/negf.jpg,stim/3.jpg,stim/6.jpg,stim/latef.jpg,CD,1,2,,,,,,,,,0,4,4,26,,,,,,,,,,2,1,0.316504733047,,,,,,2016_Aug_30_1425,P10,PLC_L_D1S1,NHGX,60.0216794871,
stim/posf.jpg,stim/negf.jpg,stim/2.jpg,stim/4.jpg,stim/latef.jpg,AB,2,4,,,,,,,,,0,5,5,10,,,,,,,,,,4,1,0.233243551552,,,,,,2016_Aug_30_1425,P10,PLC_L_D1S1,NHGX,60.0216794871,
stim/posf.jpg,stim/negf.jpg,stim/2.jpg,stim/4.jpg,stim/latef.jpg,AB,2,4,,,,,,,,,0,6,6,14,,,,,,,,,,4,1,0.233250125939,,,,,,2016_Aug_30_1425,P10,PLC_L_D1S1,NHGX,60.0216794871,
stim/negf.jpg,stim/posf.jpg,stim/4.jpg,stim/2.jpg,stim/latef.jpg,AB,1,2,,,,,,,,,0,7,7,8,,,,,,,,,,2,1,0.266576888896,,,,,,2016_Aug_30_1425,P10,PLC_L_D1S1,NHGX,60.0216794871,
stim/negf.jpg,stim/posf.jpg,stim/5.jpg,stim/1.jpg,stim/latef.jpg,EF,1,2,,,,,,,,,0,8,8,49,,,,,,,,,,2,1,0.216584404629,,,,,,2016_Aug_30_1425,P10,PLC_L_D1S1,NHGX,60.0216794871,
stim/posf.jpg,stim/negf.jpg,stim/6.jpg,stim/3.jpg,stim/latef.jpg,CD,2,4,,,,,,,,,0,9,9,35,,,,,,,,,,2,0,0.249957519116,,,,,,2016_Aug_30_1425,P10,PLC_L_D1S1,NHGX,60.0216794871,
stim/posf.jpg,stim/negf.jpg,stim/6.jpg,stim/3.jpg,stim/latef.jpg,CD,2,4,,,,,,,,,0,10,10,36,,,,,,,,,,2,0,0.249901943594,,,,,,2016_Aug_30_1425,P10,PLC_L_D1S1,NHGX,60.0216794871,
stim/negf.jpg,stim/posf.jpg,stim/4.jpg,stim/2.jpg,stim/latef.jpg,AB,1,2,,,,,,,,,0,11,11,9,,,,,,,,,,2,1,0.316533235088,,,,,,2016_Aug_30_1425,P10,PLC_L_D1S1,NHGX,60.0216794871,
stim/negf.jpg,stim/posf.jpg,stim/5.jpg,stim/1.jpg,stim/latef.jpg,EF,1,2,,,,,,,,,0,12,12,46,,,,,,,,,,4,0,0.766390225637,,,,,,2016_Aug_30_1425,P10,PLC_L_D1S1,NHGX,60.0216794871,
stim/negf.jpg,stim/posf.jpg,stim/6.jpg,stim/3.jpg,stim/latef.jpg,CD,2,4,,,,,,,,,0,13,13,37,,,,,,,,,,4,1,0.749765240863,,,,,,2016_Aug_30_1425,P10,PLC_L_D1S1,NHGX,60.0216794871,
stim/negf.jpg,stim/posf.jpg,stim/6.jpg,stim/3.jpg,stim/latef.jpg,CD,2,4,,,,,,,,,0,14,14,39,,,,,,,,,,2,0,0.483171161119,,,,,,2016_Aug_30_1425,P10,PLC_L_D1S1,NHGX,60.0216794871,
stim/negf.jpg,stim/posf.jpg,stim/3.jpg,stim/6.jpg,stim/latef.jpg,CD,1,2,,,,,,,,,0,15,15,28,,,,,,,,,,4,0,0.31659296697,,,,,,2016_Aug_30_1425,P10,PLC_L_D1S1,NHGX,60.0216794871,
stim/posf.jpg,stim/negf.jpg,stim/5.jpg,stim/1.jpg,stim/latef.jpg,EF,1,2,,,,,,,,,0,16,16,44,,,,,,,,,,2,1,0.249875652063,,,,,,2016_Aug_30_1425,P10,PLC_L_D1S1,NHGX,60.0216794871,
stim/posf.jpg,stim/negf.jpg,stim/4.jpg,stim/2.jpg,stim/latef.jpg,AB,1,2,,,,,,,,,0,17,17,2,,,,,,,,,,4,0,0.249930045639,,,,,,2016_Aug_30_1425,P10,PLC_L_D1S1,NHGX,60.0216794871,
stim/posf.jpg,stim/negf.jpg,stim/4.jpg,stim/2.jpg,stim/latef.jpg,AB,1,2,,,,,,,,,0,18,18,4,,,,,,,,,,2,1,0.599817631446,,,,,,2016_Aug_30_1425,P10,PLC_L_D1S1,NHGX,60.0216794871,
stim/posf.jpg,stim/negf.jpg,stim/4.jpg,stim/2.jpg,stim/latef.jpg,AB,1,2,,,,,,,,,0,19,19,7,,,,,,,,,,4,0,0.233250995105,,,,,,2016_Aug_30_1425,P10,PLC_L_D1S1,NHGX,60.0216794871,
stim/posf.jpg,stim/negf.jpg,stim/6.jpg,stim/3.jpg,stim/latef.jpg,CD,2,4,,,,,,,,,0,20,20,32,,,,,,,,,,2,0,0.783069032564,,,,,,2016_Aug_30_1425,P10,PLC_L_D1S1,NHGX,60.0216794871,
stim/negf.jpg,stim/posf.jpg,stim/1.jpg,stim/5.jpg,stim/latef.jpg,EF,2,4,,,,,,,,,0,21,21,59,,,,,,,,,,2,0,0.349939555342,,,,,,2016_Aug_30_1425,P10,PLC_L_D1S1,NHGX,60.0216794871,
stim/negf.jpg,stim/posf.jpg,stim/5.jpg,stim/1.jpg,stim/latef.jpg,EF,1,2,,,,,,,,,0,22,22,48,,,,,,,,,,4,0,0.233238486928,,,,,,2016_Aug_30_1425,P10,PLC_L_D1S1,NHGX,60.0216794871,
stim/posf.jpg,stim/negf.jpg,stim/6.jpg,stim/3.jpg,stim/latef.jpg,CD,2,4,,,,,,,,,0,23,23,31,,,,,,,,,,4,1,0.316555105601,,,,,,2016_Aug_30_1425,P10,PLC_L_D1S1,NHGX,60.0216794871,
stim/negf.jpg,stim/posf.jpg,stim/3.jpg,stim/6.jpg,stim/latef.jpg,CD,1,2,,,,,,,,,0,24,24,29,,,,,,,,,,4,0,0.433154821392,,,,,,2016_Aug_30_1425,P10,PLC_L_D1S1,NHGX,60.0216794871,
stim/posf.jpg,stim/negf.jpg,stim/5.jpg,stim/1.jpg,stim/latef.jpg,EF,1,2,,,,,,,,,0,25,25,41,,,,,,,,,,2,1,0.233187034684,,,,,,2016_Aug_30_1425,P10,PLC_L_D1S1,NHGX,60.0216794871,
stim/posf.jpg,stim/negf.jpg,stim/3.jpg,stim/6.jpg,stim/latef.jpg,CD,1,2,,,,,,,,,0,26,26,21,,,,,,,,,,4,0,0.666423825385,,,,,,2016_Aug_30_1425,P10,PLC_L_D1S1,NHGX,60.0216794871,
stim/posf.jpg,stim/negf.jpg,stim/3.jpg,stim/6.jpg,stim/latef.jpg,CD,1,2,,,,,,,,,0,27,27,20,,,,,,,,,,4,0,0.483165988226,,,,,,2016_Aug_30_1425,P10,PLC_L_D1S1,NHGX,60.0216794871,
stim/posf.jpg,stim/negf.jpg,stim/3.jpg,stim/6.jpg,stim/latef.jpg,CD,1,2,,,,,,,,,0,28,28,24,,,,,,,,,,None,0,,,,,,,2016_Aug_30_1425,P10,PLC_L_D1S1,NHGX,60.0216794871,
stim/posf.jpg,stim/negf.jpg,stim/1.jpg,stim/5.jpg,stim/latef.jpg,EF,2,4,,,,,,,,,0,29,29,55,,,,,,,,,,2,0,0.84970650747,,,,,,2016_Aug_30_1425,P10,PLC_L_D1S1,NHGX,60.0216794871,
stim/posf.jpg,stim/negf.jpg,stim/4.jpg,stim/2.jpg,stim/latef.jpg,AB,1,2,,,,,,,,,0,30,30,5,,,,,,,,,,2,1,0.966362159683,,,,,,2016_Aug_30_1425,P10,PLC_L_D1S1,NHGX,60.0216794871,
stim/posf.jpg,stim/negf.jpg,stim/2.jpg,stim/4.jpg,stim/latef.jpg,AB,2,4,,,,,,,,,0,31,31,12,,,,,,,,,,2,0,1.29955897474,,,,,,2016_Aug_30_1425,P10,PLC_L_D1S1,NHGX,60.0216794871,
stim/posf.jpg,stim/negf.jpg,stim/2.jpg,stim/4.jpg,stim/latef.jpg,AB,2,4,,,,,,,,,0,32,32,17,,,,,,,,,,4,1,0.666388767002,,,,,,2016_Aug_30_1425,P10,PLC_L_D1S1,NHGX,60.0216794871,
stim/posf.jpg,stim/negf.jpg,stim/6.jpg,stim/3.jpg,stim/latef.jpg,CD,2,4,,,,,,,,,0,33,33,33,,,,,,,,,,2,0,0.299910878866,,,,,,2016_Aug_30_1425,P10,PLC_L_D1S1,NHGX,60.0216794871,
stim/posf.jpg,stim/negf.jpg,stim/1.jpg,stim/5.jpg,stim/latef.jpg,EF,2,4,,,,,,,,,0,34,34,54,,,,,,,,,,2,0,0.366516074315,,,,,,2016_Aug_30_1425,P10,PLC_L_D1S1,NHGX,60.0216794871,
stim/posf.jpg,stim/negf.jpg,stim/6.jpg,stim/3.jpg,stim/latef.jpg,CD,2,4,,,,,,,,,0,35,35,30,,,,,,,,,,4,1,1.21626246419,,,,,,2016_Aug_30_1425,P10,PLC_L_D1S1,NHGX,60.0216794871,
stim/posf.jpg,stim/negf.jpg,stim/5.jpg,stim/1.jpg,stim/latef.jpg,EF,1,2,,,,,,,,,0,36,36,40,,,,,,,,,,2,1,1.16621228412,,,,,,2016_Aug_30_1425,P10,PLC_L_D1S1,NHGX,60.0216794871,
stim/posf.jpg,stim/negf.jpg,stim/5.jpg,stim/1.jpg,stim/latef.jpg,EF,1,2,,,,,,,,,0,37,37,42,,,,,,,,,,2,1,1.38288029413,,,,,,2016_Aug_30_1425,P10,PLC_L_D1S1,NHGX,60.0216794871,
stim/posf.jpg,stim/negf.jpg,stim/4.jpg,stim/2.jpg,stim/latef.jpg,AB,1,2,,,,,,,,,0,38,38,3,,,,,,,,,,4,0,1.11638027082,,,,,,2016_Aug_30_1425,P10,PLC_L_D1S1,NHGX,60.0216794871,
stim/posf.jpg,stim/negf.jpg,stim/6.jpg,stim/3.jpg,stim/latef.jpg,CD,2,4,,,,,,,,,0,39,39,34,,,,,,,,,,4,1,1.54943173961,,,,,,2016_Aug_30_1425,P10,PLC_L_D1S1,NHGX,60.0216794871,
stim/posf.jpg,stim/negf.jpg,stim/4.jpg,stim/2.jpg,stim/latef.jpg,AB,1,2,,,,,,,,,0,40,40,1,,,,,,,,,,4,0,1.5162012827,,,,,,2016_Aug_30_1425,P10,PLC_L_D1S1,NHGX,60.0216794871,
stim/posf.jpg,stim/negf.jpg,stim/5.jpg,stim/1.jpg,stim/latef.jpg,EF,1,2,,,,,,,,,0,41,41,43,,,,,,,,,,2,1,0.849749625943,,,,,,2016_Aug_30_1425,P10,PLC_L_D1S1,NHGX,60.0216794871,
stim/negf.jpg,stim/posf.jpg,stim/1.jpg,stim/5.jpg,stim/latef.jpg,EF,2,4,,,,,,,,,0,42,42,58,,,,,,,,,,4,1,0.983024347185,,,,,,2016_Aug_30_1425,P10,PLC_L_D1S1,NHGX,60.0216794871,
stim/negf.jpg,stim/posf.jpg,stim/1.jpg,stim/5.jpg,stim/latef.jpg,EF,2,4,,,,,,,,,0,43,43,56,,,,,,,,,,4,1,1.53282294118,,,,,,2016_Aug_30_1425,P10,PLC_L_D1S1,NHGX,60.0216794871,
stim/posf.jpg,stim/negf.jpg,stim/1.jpg,stim/5.jpg,stim/latef.jpg,EF,2,4,,,,,,,,,0,44,44,53,,,,,,,,,,2,0,1.08297466636,,,,,,2016_Aug_30_1425,P10,PLC_L_D1S1,NHGX,60.0216794871,
stim/negf.jpg,stim/posf.jpg,stim/3.jpg,stim/6.jpg,stim/latef.jpg,CD,1,2,,,,,,,,,0,45,45,27,,,,,,,,,,None,0,,,,,,,2016_Aug_30_1425,P10,PLC_L_D1S1,NHGX,60.0216794871,
stim/negf.jpg,stim/posf.jpg,stim/2.jpg,stim/4.jpg,stim/latef.jpg,AB,2,4,,,,,,,,,0,46,46,18,,,,,,,,,,2,0,0.816376977617,,,,,,2016_Aug_30_1425,P10,PLC_L_D1S1,NHGX,60.0216794871,
stim/posf.jpg,stim/negf.jpg,stim/2.jpg,stim/4.jpg,stim/latef.jpg,AB,2,4,,,,,,,,,0,47,47,13,,,,,,,,,,2,0,0.666394670717,,,,,,2016_Aug_30_1425,P10,PLC_L_D1S1,NHGX,60.0216794871,
stim/posf.jpg,stim/negf.jpg,stim/3.jpg,stim/6.jpg,stim/latef.jpg,CD,1,2,,,,,,,,,0,48,48,23,,,,,,,,,,4,0,1.18293655236,,,,,,2016_Aug_30_1425,P10,PLC_L_D1S1,NHGX,60.0216794871,
stim/posf.jpg,stim/negf.jpg,stim/3.jpg,stim/6.jpg,stim/latef.jpg,CD,1,2,,,,,,,,,0,49,49,22,,,,,,,,,,4,0,1.28293104864,,,,,,2016_Aug_30_1425,P10,PLC_L_D1S1,NHGX,60.0216794871,
stim/negf.jpg,stim/posf.jpg,stim/2.jpg,stim/4.jpg,stim/latef.jpg,AB,2,4,,,,,,,,,0,50,50,19,,,,,,,,,,2,0,1.28292178254,,,,,,2016_Aug_30_1425,P10,PLC_L_D1S1,NHGX,60.0216794871,
stim/posf.jpg,stim/negf.jpg,stim/2.jpg,stim/4.jpg,stim/latef.jpg,AB,2,4,,,,,,,,,0,51,51,16,,,,,,,,,,2,0,0.883029114067,,,,,,2016_Aug_30_1425,P10,PLC_L_D1S1,NHGX,60.0216794871,
stim/posf.jpg,stim/negf.jpg,stim/1.jpg,stim/5.jpg,stim/latef.jpg,EF,2,4,,,,,,,,,0,52,52,52,,,,,,,,,,4,1,1.16626554387,,,,,,2016_Aug_30_1425,P10,PLC_L_D1S1,NHGX,60.0216794871,
stim/posf.jpg,stim/negf.jpg,stim/1.jpg,stim/5.jpg,stim/latef.jpg,EF,2,4,,,,,,,,,0,53,53,51,,,,,,,,,,2,0,0.666504594702,,,,,,2016_Aug_30_1425,P10,PLC_L_D1S1,NHGX,60.0216794871,
stim/posf.jpg,stim/negf.jpg,stim/2.jpg,stim/4.jpg,stim/latef.jpg,AB,2,4,,,,,,,,,0,54,54,11,,,,,,,,,,2,0,1.14961807806,,,,,,2016_Aug_30_1425,P10,PLC_L_D1S1,NHGX,60.0216794871,
stim/posf.jpg,stim/negf.jpg,stim/3.jpg,stim/6.jpg,stim/latef.jpg,CD,1,2,,,,,,,,,0,55,55,25,,,,,,,,,,4,0,1.04965326276,,,,,,2016_Aug_30_1425,P10,PLC_L_D1S1,NHGX,60.0216794871,
stim/negf.jpg,stim/posf.jpg,stim/6.jpg,stim/3.jpg,stim/latef.jpg,CD,2,4,,,,,,,,,0,56,56,38,,,,,,,,,,2,0,1.06632584717,,,,,,2016_Aug_30_1425,P10,PLC_L_D1S1,NHGX,60.0216794871,
stim/negf.jpg,stim/posf.jpg,stim/1.jpg,stim/5.jpg,stim/latef.jpg,EF,2,4,,,,,,,,,0,57,57,57,,,,,,,,,,2,0,0.799683879069,,,,,,2016_Aug_30_1425,P10,PLC_L_D1S1,NHGX,60.0216794871,
stim/posf.jpg,stim/negf.jpg,stim/2.jpg,stim/4.jpg,stim/latef.jpg,AB,2,4,,,,,,,,,0,58,58,15,,,,,,,,,,4,1,0.533160042406,,,,,,2016_Aug_30_1425,P10,PLC_L_D1S1,NHGX,60.0216794871,
stim/posf.jpg,stim/negf.jpg,stim/4.jpg,stim/2.jpg,stim/latef.jpg,AB,1,2,,,,,,,,,0,59,59,6,,,,,,,,,,2,1,0.966339032037,,,,,,2016_Aug_30_1425,P10,PLC_L_D1S1,NHGX,60.0216794871,
,,,,,,,,,,,,,,,,,,,,,,,,,,,,,,,,0.9984375,0.986328125,1,0,0,2016_Aug_30_1425,P10,PLC_L_D1S1,NHGX,60.0216794871,
stim/posf.jpg,stim/negf.jpg,stim/2.jpg,stim/4.jpg,stim/latef.jpg,AB,2,4,,,,,,,,,,,,,0,0,0,16,,,,,,4,1,0.91632349832,,,,,,2016_Aug_30_1425,P10,PLC_L_D1S1,NHGX,60.0216794871,
stim/posf.jpg,stim/negf.jpg,stim/5.jpg,stim/1.jpg,stim/latef.jpg,EF,1,2,,,,,,,,,,,,,0,1,1,41,,,,,,2,1,0.866398694747,,,,,,2016_Aug_30_1425,P10,PLC_L_D1S1,NHGX,60.0216794871,
stim/posf.jpg,stim/negf.jpg,stim/5.jpg,stim/1.jpg,stim/latef.jpg,EF,1,2,,,,,,,,,,,,,0,2,2,43,,,,,,4,0,0.666415822437,,,,,,2016_Aug_30_1425,P10,PLC_L_D1S1,NHGX,60.0216794871,
stim/negf.jpg,stim/posf.jpg,stim/4.jpg,stim/2.jpg,stim/latef.jpg,AB,1,2,,,,,,,,,,,,,0,3,3,8,,,,,,2,1,1.16629225043,,,,,,2016_Aug_30_1425,P10,PLC_L_D1S1,NHGX,60.0216794871,
stim/posf.jpg,stim/negf.jpg,stim/3.jpg,stim/6.jpg,stim/latef.jpg,CD,1,2,,,,,,,,,,,,,0,4,4,23,,,,,,4,0,1.4162306539,,,,,,2016_Aug_30_1425,P10,PLC_L_D1S1,NHGX,60.0216794871,
stim/posf.jpg,stim/negf.jpg,stim/6.jpg,stim/3.jpg,stim/latef.jpg,CD,2,4,,,,,,,,,,,,,0,5,5,34,,,,,,2,0,0.733082262539,,,,,,2016_Aug_30_1425,P10,PLC_L_D1S1,NHGX,60.0216794871,
stim/posf.jpg,stim/negf.jpg,stim/4.jpg,stim/2.jpg,stim/latef.jpg,AB,1,2,,,,,,,,,,,,,0,6,6,3,,,,,,2,1,1.09962682085,,,,,,2016_Aug_30_1425,P10,PLC_L_D1S1,NHGX,60.0216794871,
stim/negf.jpg,stim/posf.jpg,stim/5.jpg,stim/1.jpg,stim/latef.jpg,EF,1,2,,,,,,,,,,,,,0,7,7,47,,,,,,2,1,1.0329711536,,,,,,2016_Aug_30_1425,P10,PLC_L_D1S1,NHGX,60.0216794871,
stim/negf.jpg,stim/posf.jpg,stim/1.jpg,stim/5.jpg,stim/latef.jpg,EF,2,4,,,,,,,,,,,,,0,8,8,59,,,,,,2,0,0.599784497861,,,,,,2016_Aug_30_1425,P10,PLC_L_D1S1,NHGX,60.0216794871,
stim/posf.jpg,stim/negf.jpg,stim/3.jpg,stim/6.jpg,stim/latef.jpg,CD,1,2,,,,,,,,,,,,,0,9,9,20,,,,,,4,0,0.283239741055,,,,,,2016_Aug_30_1425,P10,PLC_L_D1S1,NHGX,60.0216794871,
stim/negf.jpg,stim/posf.jpg,stim/3.jpg,stim/6.jpg,stim/latef.jpg,CD,1,2,,,,,,,,,,,,,0,10,10,27,,,,,,4,0,0.216604001474,,,,,,2016_Aug_30_1425,P10,PLC_L_D1S1,NHGX,60.0216794871,
stim/negf.jpg,stim/posf.jpg,stim/5.jpg,stim/1.jpg,stim/latef.jpg,EF,1,2,,,,,,,,,,,,,0,11,11,49,,,,,,4,0,0.316561475478,,,,,,2016_Aug_30_1425,P10,PLC_L_D1S1,NHGX,60.0216794871,
stim/posf.jpg,stim/negf.jpg,stim/6.jpg,stim/3.jpg,stim/latef.jpg,CD,2,4,,,,,,,,,,,,,0,12,12,33,,,,,,4,1,0.716500859392,,,,,,2016_Aug_30_1425,P10,PLC_L_D1S1,NHGX,60.0216794871,
stim/negf.jpg,stim/posf.jpg,stim/6.jpg,stim/3.jpg,stim/latef.jpg,CD,2,4,,,,,,,,,,,,,0,13,13,39,,,,,,4,1,0.599778404674,,,,,,2016_Aug_30_1425,P10,PLC_L_D1S1,NHGX,60.0216794871,
stim/posf.jpg,stim/negf.jpg,stim/4.jpg,stim/2.jpg,stim/latef.jpg,AB,1,2,,,,,,,,,,,,,0,14,14,0,,,,,,4,0,0.983013411929,,,,,,2016_Aug_30_1425,P10,PLC_L_D1S1,NHGX,60.0216794871,
stim/posf.jpg,stim/negf.jpg,stim/4.jpg,stim/2.jpg,stim/latef.jpg,AB,1,2,,,,,,,,,,,,,0,15,15,5,,,,,,4,0,0.299895050413,,,,,,2016_Aug_30_1425,P10,PLC_L_D1S1,NHGX,60.0216794871,
stim/posf.jpg,stim/negf.jpg,stim/6.jpg,stim/3.jpg,stim/latef.jpg,CD,2,4,,,,,,,,,,,,,0,16,16,32,,,,,,2,0,0.749766744611,,,,,,2016_Aug_30_1425,P10,PLC_L_D1S1,NHGX,60.0216794871,
stim/negf.jpg,stim/posf.jpg,stim/1.jpg,stim/5.jpg,stim/latef.jpg,EF,2,4,,,,,,,,,,,,,0,17,17,58,,,,,,2,0,0.316552756746,,,,,,2016_Aug_30_1425,P10,PLC_L_D1S1,NHGX,60.0216794871,
stim/posf.jpg,stim/negf.jpg,stim/5.jpg,stim/1.jpg,stim/latef.jpg,EF,1,2,,,,,,,,,,,,,0,18,18,45,,,,,,2,1,0.816391657205,,,,,,2016_Aug_30_1425,P10,PLC_L_D1S1,NHGX,60.0216794871,
stim/negf.jpg,stim/posf.jpg,stim/6.jpg,stim/3.jpg,stim/latef.jpg,CD,2,4,,,,,,,,,,,,,0,19,19,38,,,,,,2,0,0.933029339629,,,,,,2016_Aug_30_1425,P10,PLC_L_D1S1,NHGX,60.0216794871,
stim/posf.jpg,stim/negf.jpg,stim/6.jpg,stim/3.jpg,stim/latef.jpg,CD,2,4,,,,,,,,,,,,,0,20,20,35,,,,,,4,1,1.16631631642,,,,,,2016_Aug_30_1425,P10,PLC_L_D1S1,NHGX,60.0216794871,
stim/posf.jpg,stim/negf.jpg,stim/6.jpg,stim/3.jpg,stim/latef.jpg,CD,2,4,,,,,,,,,,,,,0,21,21,31,,,,,,2,0,0.78307223254,,,,,,2016_Aug_30_1425,P10,PLC_L_D1S1,NHGX,60.0216794871,
stim/posf.jpg,stim/negf.jpg,stim/4.jpg,stim/2.jpg,stim/latef.jpg,AB,1,2,,,,,,,,,,,,,0,22,22,7,,,,,,4,0,1.26626426568,,,,,,2016_Aug_30_1425,P10,PLC_L_D1S1,NHGX,60.0216794871,
stim/posf.jpg,stim/negf.jpg,stim/1.jpg,stim/5.jpg,stim/latef.jpg,EF,2,4,,,,,,,,,,,,,0,23,23,51,,,,,,4,1,1.38284817708,,,,,,2016_Aug_30_1425,P10,PLC_L_D1S1,NHGX,60.0216794871,
stim/posf.jpg,stim/negf.jpg,stim/1.jpg,stim/5.jpg,stim/latef.jpg,EF,2,4,,,,,,,,,,,,,0,24,24,52,,,,,,2,0,0.533172153593,,,,,,2016_Aug_30_1425,P10,PLC_L_D1S1,NHGX,60.0216794871,
stim/negf.jpg,stim/posf.jpg,stim/3.jpg,stim/6.jpg,stim/latef.jpg,CD,1,2,,,,,,,,,,,,,0,25,25,28,,,,,,4,0,0.983010990895,,,,,,2016_Aug_30_1425,P10,PLC_L_D1S1,NHGX,60.0216794871,
stim/posf.jpg,stim/negf.jpg,stim/5.jpg,stim/1.jpg,stim/latef.jpg,EF,1,2,,,,,,,,,,,,,0,26,26,44,,,,,,4,0,0.883048768055,,,,,,2016_Aug_30_1425,P10,PLC_L_D1S1,NHGX,60.0216794871,
stim/posf.jpg,stim/negf.jpg,stim/2.jpg,stim/4.jpg,stim/latef.jpg,AB,2,4,,,,,,,,,,,,,0,27,27,11,,,,,,None,0,,,,,,,2016_Aug_30_1425,P10,PLC_L_D1S1,NHGX,60.0216794871,
stim/negf.jpg,stim/posf.jpg,stim/6.jpg,stim/3.jpg,stim/latef.jpg,CD,2,4,,,,,,,,,,,,,0,28,28,37,,,,,,4,1,0.483149624439,,,,,,2016_Aug_30_1425,P10,PLC_L_D1S1,NHGX,60.0216794871,
stim/negf.jpg,stim/posf.jpg,stim/3.jpg,stim/6.jpg,stim/latef.jpg,CD,1,2,,,,,,,,,,,,,0,29,29,29,,,,,,4,0,0.649797069195,,,,,,2016_Aug_30_1425,P10,PLC_L_D1S1,NHGX,60.0216794871,
stim/posf.jpg,stim/negf.jpg,stim/5.jpg,stim/1.jpg,stim/latef.jpg,EF,1,2,,,,,,,,,,,,,0,30,30,40,,,,,,2,1,0.649772046827,,,,,,2016_Aug_30_1425,P10,PLC_L_D1S1,NHGX,60.0216794871,
stim/posf.jpg,stim/negf.jpg,stim/1.jpg,stim/5.jpg,stim/latef.jpg,EF,2,4,,,,,,,,,,,,,0,31,31,53,,,,,,2,0,0.833085880557,,,,,,2016_Aug_30_1425,P10,PLC_L_D1S1,NHGX,60.0216794871,
stim/posf.jpg,stim/negf.jpg,stim/2.jpg,stim/4.jpg,stim/latef.jpg,AB,2,4,,,,,,,,,,,,,0,32,32,10,,,,,,4,1,0.866340072631,,,,,,2016_Aug_30_1425,P10,PLC_L_D1S1,NHGX,60.0216794871,
stim/posf.jpg,stim/negf.jpg,stim/3.jpg,stim/6.jpg,stim/latef.jpg,CD,1,2,,,,,,,,,,,,,0,33,33,22,,,,,,4,0,0.866389780528,,,,,,2016_Aug_30_1425,P10,PLC_L_D1S1,NHGX,60.0216794871,
stim/posf.jpg,stim/negf.jpg,stim/3.jpg,stim/6.jpg,stim/latef.jpg,CD,1,2,,,,,,,,,,,,,0,34,34,26,,,,,,4,0,0.78308196179,,,,,,2016_Aug_30_1425,P10,PLC_L_D1S1,NHGX,60.0216794871,
stim/posf.jpg,stim/negf.jpg,stim/5.jpg,stim/1.jpg,stim/latef.jpg,EF,1,2,,,,,,,,,,,,,0,35,35,42,,,,,,4,0,0.699767697987,,,,,,2016_Aug_30_1425,P10,PLC_L_D1S1,NHGX,60.0216794871,
stim/negf.jpg,stim/posf.jpg,stim/2.jpg,stim/4.jpg,stim/latef.jpg,AB,2,4,,,,,,,,,,,,,0,36,36,19,,,,,,4,1,1.0162878234,,,,,,2016_Aug_30_1425,P10,PLC_L_D1S1,NHGX,60.0216794871,
stim/posf.jpg,stim/negf.jpg,stim/3.jpg,stim/6.jpg,stim/latef.jpg,CD,1,2,,,,,,,,,,,,,0,37,37,24,,,,,,4,0,0.616456204089,,,,,,2016_Aug_30_1425,P10,PLC_L_D1S1,NHGX,60.0216794871,
stim/posf.jpg,stim/negf.jpg,stim/4.jpg,stim/2.jpg,stim/latef.jpg,AB,1,2,,,,,,,,,,,,,0,38,38,2,,,,,,4,0,0.449855555973,,,,,,2016_Aug_30_1425,P10,PLC_L_D1S1,NHGX,60.0216794871,
stim/posf.jpg,stim/negf.jpg,stim/2.jpg,stim/4.jpg,stim/latef.jpg,AB,2,4,,,,,,,,,,,,,0,39,39,13,,,,,,2,0,0.99966135593,,,,,,2016_Aug_30_1425,P10,PLC_L_D1S1,NHGX,60.0216794871,
stim/posf.jpg,stim/negf.jpg,stim/4.jpg,stim/2.jpg,stim/latef.jpg,AB,1,2,,,,,,,,,,,,,0,40,40,6,,,,,,4,0,1.04964808385,,,,,,2016_Aug_30_1425,P10,PLC_L_D1S1,NHGX,60.0216794871,
stim/posf.jpg,stim/negf.jpg,stim/3.jpg,stim/6.jpg,stim/latef.jpg,CD,1,2,,,,,,,,,,,,,0,41,41,21,,,,,,None,0,,,,,,,2016_Aug_30_1425,P10,PLC_L_D1S1,NHGX,60.0216794871,
stim/posf.jpg,stim/negf.jpg,stim/1.jpg,stim/5.jpg,stim/latef.jpg,EF,2,4,,,,,,,,,,,,,0,42,42,54,,,,,,4,1,0.59980706912,,,,,,2016_Aug_30_1425,P10,PLC_L_D1S1,NHGX,60.0216794871,
stim/posf.jpg,stim/negf.jpg,stim/1.jpg,stim/5.jpg,stim/latef.jpg,EF,2,4,,,,,,,,,,,,,0,43,43,55,,,,,,2,0,1.01642947647,,,,,,2016_Aug_30_1425,P10,PLC_L_D1S1,NHGX,60.0216794871,
stim/posf.jpg,stim/negf.jpg,stim/2.jpg,stim/4.jpg,stim/latef.jpg,AB,2,4,,,,,,,,,,,,,0,44,44,12,,,,,,4,1,0.916389404591,,,,,,2016_Aug_30_1425,P10,PLC_L_D1S1,NHGX,60.0216794871,
stim/posf.jpg,stim/negf.jpg,stim/6.jpg,stim/3.jpg,stim/latef.jpg,CD,2,4,,,,,,,,,,,,,0,45,45,36,,,,,,4,1,1.04963512756,,,,,,2016_Aug_30_1425,P10,PLC_L_D1S1,NHGX,60.0216794871,
stim/posf.jpg,stim/negf.jpg,stim/3.jpg,stim/6.jpg,stim/latef.jpg,CD,1,2,,,,,,,,,,,,,0,46,46,25,,,,,,2,1,0.583087910617,,,,,,2016_Aug_30_1425,P10,PLC_L_D1S1,NHGX,60.0216794871,
stim/posf.jpg,stim/negf.jpg,stim/1.jpg,stim/5.jpg,stim/latef.jpg,EF,2,4,,,,,,,,,,,,,0,47,47,50,,,,,,2,0,1.49952291186,,,,,,2016_Aug_30_1425,P10,PLC_L_D1S1,NHGX,60.0216794871,
stim/posf.jpg,stim/negf.jpg,stim/4.jpg,stim/2.jpg,stim/latef.jpg,AB,1,2,,,,,,,,,,,,,0,48,48,4,,,,,,2,1,1.36621478936,,,,,,2016_Aug_30_1425,P10,PLC_L_D1S1,NHGX,60.0216794871,
stim/posf.jpg,stim/negf.jpg,stim/2.jpg,stim/4.jpg,stim/latef.jpg,AB,2,4,,,,,,,,,,,,,0,49,49,17,,,,,,4,1,0.899723701326,,,,,,2016_Aug_30_1425,P10,PLC_L_D1S1,NHGX,60.0216794871,
stim/posf.jpg,stim/negf.jpg,stim/2.jpg,stim/4.jpg,stim/latef.jpg,AB,2,4,,,,,,,,,,,,,0,50,50,14,,,,,,4,1,1.11623983278,,,,,,2016_Aug_30_1425,P10,PLC_L_D1S1,NHGX,60.0216794871,
stim/posf.jpg,stim/negf.jpg,stim/2.jpg,stim/4.jpg,stim/latef.jpg,AB,2,4,,,,,,,,,,,,,0,51,51,15,,,,,,2,0,0.716413317193,,,,,,2016_Aug_30_1425,P10,PLC_L_D1S1,NHGX,60.0216794871,
stim/negf.jpg,stim/posf.jpg,stim/1.jpg,stim/5.jpg,stim/latef.jpg,EF,2,4,,,,,,,,,,,,,0,52,52,57,,,,,,2,0,0.999656267246,,,,,,2016_Aug_30_1425,P10,PLC_L_D1S1,NHGX,60.0216794871,
stim/negf.jpg,stim/posf.jpg,stim/2.jpg,stim/4.jpg,stim/latef.jpg,AB,2,4,,,,,,,,,,,,,0,53,53,18,,,,,,4,1,0.799724790039,,,,,,2016_Aug_30_1425,P10,PLC_L_D1S1,NHGX,60.0216794871,
stim/negf.jpg,stim/posf.jpg,stim/5.jpg,stim/1.jpg,stim/latef.jpg,EF,1,2,,,,,,,,,,,,,0,54,54,48,,,,,,4,0,0.316554988308,,,,,,2016_Aug_30_1425,P10,PLC_L_D1S1,NHGX,60.0216794871,
stim/negf.jpg,stim/posf.jpg,stim/1.jpg,stim/5.jpg,stim/latef.jpg,EF,2,4,,,,,,,,,,,,,0,55,55,56,,,,,,4,1,0.883044596657,,,,,,2016_Aug_30_1425,P10,PLC_L_D1S1,NHGX,60.0216794871,
stim/negf.jpg,stim/posf.jpg,stim/4.jpg,stim/2.jpg,stim/latef.jpg,AB,1,2,,,,,,,,,,,,,0,56,56,9,,,,,,4,0,0.48322186149,,,,,,2016_Aug_30_1425,P10,PLC_L_D1S1,NHGX,60.0216794871,
stim/posf.jpg,stim/negf.jpg,stim/6.jpg,stim/3.jpg,stim/latef.jpg,CD,2,4,,,,,,,,,,,,,0,57,57,30,,,,,,2,0,0.533193046669,,,,,,2016_Aug_30_1425,P10,PLC_L_D1S1,NHGX,60.0216794871,
stim/negf.jpg,stim/posf.jpg,stim/5.jpg,stim/1.jpg,stim/latef.jpg,EF,1,2,,,,,,,,,,,,,0,58,58,46,,,,,,2,1,0.883023285539,,,,,,2016_Aug_30_1425,P10,PLC_L_D1S1,NHGX,60.0216794871,
stim/posf.jpg,stim/negf.jpg,stim/4.jpg,stim/2.jpg,stim/latef.jpg,AB,1,2,,,,,,,,,,,,,0,59,59,1,,,,,,2,1,0.89968477831,,,,,,2016_Aug_30_1425,P10,PLC_L_D1S1,NHGX,60.0216794871,
