fb_corr,fb_incorr,symbol2,symbol1,fb_late,pair,position,correct,block_01.thisRepN,block_01.thisTrialN,block_01.thisN,block_01.thisIndex,block_02.thisRepN,block_02.thisTrialN,block_02.thisN,block_02.thisIndex,block_03.thisRepN,block_03.thisTrialN,block_03.thisN,block_03.thisIndex,block_04.thisRepN,block_04.thisTrialN,block_04.thisN,block_04.thisIndex,mouse.x,mouse.y,mouse.leftButton,mouse.midButton,mouse.rightButton,buttonBox_2.keys,buttonBox_2.corr,buttonBox_2.rt,mouse_2.x,mouse_2.y,mouse_2.leftButton,mouse_2.midButton,mouse_2.rightButton,date,Participant,expName,Group,frameRate,
,,,,,,,,,,,,,,,,,,,,,,,,0.9984375,1.0,1,0,0,,,,,,,,,2016_Sep_01_0845,P11,PLC_L_D1S1,NHGX,60.015476418,
stim/posf.jpg,stim/negf.jpg,stim/2.jpg,stim/4.jpg,stim/latef.jpg,AB,2,4,0,0,0,15,,,,,,,,,,,,,,,,,,4,1,0.733060757962,,,,,,2016_Sep_01_0845,P11,PLC_L_D1S1,NHGX,60.015476418,
stim/posf.jpg,stim/negf.jpg,stim/6.jpg,stim/5.jpg,stim/latef.jpg,CD,1,2,0,1,1,21,,,,,,,,,,,,,,,,,,2,1,0.816302071781,,,,,,2016_Sep_01_0845,P11,PLC_L_D1S1,NHGX,60.015476418,
stim/posf.jpg,stim/negf.jpg,stim/1.jpg,stim/3.jpg,stim/latef.jpg,EF,1,2,0,2,2,44,,,,,,,,,,,,,,,,,,2,1,1.04963883264,,,,,,2016_Sep_01_0845,P11,PLC_L_D1S1,NHGX,60.015476418,
stim/posf.jpg,stim/negf.jpg,stim/6.jpg,stim/5.jpg,stim/latef.jpg,CD,1,2,0,3,3,23,,,,,,,,,,,,,,,,,,2,1,0.999657922655,,,,,,2016_Sep_01_0845,P11,PLC_L_D1S1,NHGX,60.015476418,
stim/negf.jpg,stim/posf.jpg,stim/5.jpg,stim/6.jpg,stim/latef.jpg,CD,2,4,0,4,4,38,,,,,,,,,,,,,,,,,,4,1,0.816410981831,,,,,,2016_Sep_01_0845,P11,PLC_L_D1S1,NHGX,60.015476418,
stim/negf.jpg,stim/posf.jpg,stim/2.jpg,stim/4.jpg,stim/latef.jpg,AB,2,4,0,5,5,18,,,,,,,,,,,,,,,,,,4,1,1.06621846821,,,,,,2016_Sep_01_0845,P11,PLC_L_D1S1,NHGX,60.015476418,
stim/negf.jpg,stim/posf.jpg,stim/1.jpg,stim/3.jpg,stim/latef.jpg,EF,1,2,0,6,6,49,,,,,,,,,,,,,,,,,,2,1,1.0496613978,,,,,,2016_Sep_01_0845,P11,PLC_L_D1S1,NHGX,60.015476418,
stim/posf.jpg,stim/negf.jpg,stim/5.jpg,stim/6.jpg,stim/latef.jpg,CD,2,4,0,7,7,34,,,,,,,,,,,,,,,,,,2,0,1.08297603561,,,,,,2016_Sep_01_0845,P11,PLC_L_D1S1,NHGX,60.015476418,
stim/negf.jpg,stim/posf.jpg,stim/5.jpg,stim/6.jpg,stim/latef.jpg,CD,2,4,0,8,8,37,,,,,,,,,,,,,,,,,,4,1,1.23287029695,,,,,,2016_Sep_01_0845,P11,PLC_L_D1S1,NHGX,60.015476418,
stim/posf.jpg,stim/negf.jpg,stim/4.jpg,stim/2.jpg,stim/latef.jpg,AB,1,2,0,9,9,5,,,,,,,,,,,,,,,,,,2,1,1.0662923561,,,,,,2016_Sep_01_0845,P11,PLC_L_D1S1,NHGX,60.015476418,
stim/negf.jpg,stim/posf.jpg,stim/6.jpg,stim/5.jpg,stim/latef.jpg,CD,1,2,0,10,10,29,,,,,,,,,,,,,,,,,,4,0,1.04965619485,,,,,,2016_Sep_01_0845,P11,PLC_L_D1S1,NHGX,60.015476418,
stim/posf.jpg,stim/negf.jpg,stim/1.jpg,stim/3.jpg,stim/latef.jpg,EF,1,2,0,11,11,43,,,,,,,,,,,,,,,,,,4,0,1.34955016297,,,,,,2016_Sep_01_0845,P11,PLC_L_D1S1,NHGX,60.015476418,
stim/posf.jpg,stim/negf.jpg,stim/4.jpg,stim/2.jpg,stim/latef.jpg,AB,1,2,0,12,12,7,,,,,,,,,,,,,,,,,,2,1,1.31623631613,,,,,,2016_Sep_01_0845,P11,PLC_L_D1S1,NHGX,60.015476418,
stim/posf.jpg,stim/negf.jpg,stim/4.jpg,stim/2.jpg,stim/latef.jpg,AB,1,2,0,13,13,1,,,,,,,,,,,,,,,,,,2,1,1.1829415157,,,,,,2016_Sep_01_0845,P11,PLC_L_D1S1,NHGX,60.015476418,
stim/posf.jpg,stim/negf.jpg,stim/6.jpg,stim/5.jpg,stim/latef.jpg,CD,1,2,0,14,14,26,,,,,,,,,,,,,,,,,,None,0,,,,,,,2016_Sep_01_0845,P11,PLC_L_D1S1,NHGX,60.015476418,
stim/negf.jpg,stim/posf.jpg,stim/2.jpg,stim/4.jpg,stim/latef.jpg,AB,2,4,0,15,15,19,,,,,,,,,,,,,,,,,,4,1,0.766402944328,,,,,,2016_Sep_01_0845,P11,PLC_L_D1S1,NHGX,60.015476418,
stim/posf.jpg,stim/negf.jpg,stim/6.jpg,stim/5.jpg,stim/latef.jpg,CD,1,2,0,16,16,20,,,,,,,,,,,,,,,,,,2,1,1.24957870099,,,,,,2016_Sep_01_0845,P11,PLC_L_D1S1,NHGX,60.015476418,
stim/posf.jpg,stim/negf.jpg,stim/4.jpg,stim/2.jpg,stim/latef.jpg,AB,1,2,0,17,17,2,,,,,,,,,,,,,,,,,,4,0,1.09962114112,,,,,,2016_Sep_01_0845,P11,PLC_L_D1S1,NHGX,60.015476418,
stim/negf.jpg,stim/posf.jpg,stim/3.jpg,stim/1.jpg,stim/latef.jpg,EF,2,4,0,18,18,58,,,,,,,,,,,,,,,,,,4,1,1.11628908546,,,,,,2016_Sep_01_0845,P11,PLC_L_D1S1,NHGX,60.015476418,
stim/posf.jpg,stim/negf.jpg,stim/4.jpg,stim/2.jpg,stim/latef.jpg,AB,1,2,0,19,19,3,,,,,,,,,,,,,,,,,,2,1,0.999660987282,,,,,,2016_Sep_01_0845,P11,PLC_L_D1S1,NHGX,60.015476418,
stim/posf.jpg,stim/negf.jpg,stim/1.jpg,stim/3.jpg,stim/latef.jpg,EF,1,2,0,20,20,45,,,,,,,,,,,,,,,,,,2,1,0.999671221753,,,,,,2016_Sep_01_0845,P11,PLC_L_D1S1,NHGX,60.015476418,
stim/posf.jpg,stim/negf.jpg,stim/5.jpg,stim/6.jpg,stim/latef.jpg,CD,2,4,0,21,21,35,,,,,,,,,,,,,,,,,,2,0,0.949660663977,,,,,,2016_Sep_01_0845,P11,PLC_L_D1S1,NHGX,60.015476418,
stim/posf.jpg,stim/negf.jpg,stim/5.jpg,stim/6.jpg,stim/latef.jpg,CD,2,4,0,22,22,33,,,,,,,,,,,,,,,,,,4,1,0.74979691808,,,,,,2016_Sep_01_0845,P11,PLC_L_D1S1,NHGX,60.015476418,
stim/posf.jpg,stim/negf.jpg,stim/2.jpg,stim/4.jpg,stim/latef.jpg,AB,2,4,0,23,23,17,,,,,,,,,,,,,,,,,,4,1,0.966367840964,,,,,,2016_Sep_01_0845,P11,PLC_L_D1S1,NHGX,60.015476418,
stim/posf.jpg,stim/negf.jpg,stim/6.jpg,stim/5.jpg,stim/latef.jpg,CD,1,2,0,24,24,24,,,,,,,,,,,,,,,,,,4,0,1.16628414266,,,,,,2016_Sep_01_0845,P11,PLC_L_D1S1,NHGX,60.015476418,
stim/posf.jpg,stim/negf.jpg,stim/1.jpg,stim/3.jpg,stim/latef.jpg,EF,1,2,0,25,25,41,,,,,,,,,,,,,,,,,,2,1,1.14967804122,,,,,,2016_Sep_01_0845,P11,PLC_L_D1S1,NHGX,60.015476418,
stim/negf.jpg,stim/posf.jpg,stim/4.jpg,stim/2.jpg,stim/latef.jpg,AB,1,2,0,26,26,9,,,,,,,,,,,,,,,,,,2,1,1.16627816378,,,,,,2016_Sep_01_0845,P11,PLC_L_D1S1,NHGX,60.015476418,
stim/posf.jpg,stim/negf.jpg,stim/4.jpg,stim/2.jpg,stim/latef.jpg,AB,1,2,0,27,27,0,,,,,,,,,,,,,,,,,,2,1,0.883029887633,,,,,,2016_Sep_01_0845,P11,PLC_L_D1S1,NHGX,60.015476418,
stim/posf.jpg,stim/negf.jpg,stim/2.jpg,stim/4.jpg,stim/latef.jpg,AB,2,4,0,28,28,11,,,,,,,,,,,,,,,,,,4,1,0.916363141769,,,,,,2016_Sep_01_0845,P11,PLC_L_D1S1,NHGX,60.015476418,
stim/posf.jpg,stim/negf.jpg,stim/1.jpg,stim/3.jpg,stim/latef.jpg,EF,1,2,0,29,29,40,,,,,,,,,,,,,,,,,,2,1,0.916356507257,,,,,,2016_Sep_01_0845,P11,PLC_L_D1S1,NHGX,60.015476418,
stim/posf.jpg,stim/negf.jpg,stim/3.jpg,stim/1.jpg,stim/latef.jpg,EF,2,4,0,30,30,55,,,,,,,,,,,,,,,,,,4,1,0.849728624114,,,,,,2016_Sep_01_0845,P11,PLC_L_D1S1,NHGX,60.015476418,
stim/posf.jpg,stim/negf.jpg,stim/5.jpg,stim/6.jpg,stim/latef.jpg,CD,2,4,0,31,31,32,,,,,,,,,,,,,,,,,,4,1,0.783057318903,,,,,,2016_Sep_01_0845,P11,PLC_L_D1S1,NHGX,60.015476418,
stim/negf.jpg,stim/posf.jpg,stim/6.jpg,stim/5.jpg,stim/latef.jpg,CD,1,2,0,32,32,27,,,,,,,,,,,,,,,,,,2,1,0.733109656658,,,,,,2016_Sep_01_0845,P11,PLC_L_D1S1,NHGX,60.015476418,
stim/posf.jpg,stim/negf.jpg,stim/2.jpg,stim/4.jpg,stim/latef.jpg,AB,2,4,0,33,33,12,,,,,,,,,,,,,,,,,,4,1,0.749736082676,,,,,,2016_Sep_01_0845,P11,PLC_L_D1S1,NHGX,60.015476418,
stim/posf.jpg,stim/negf.jpg,stim/1.jpg,stim/3.jpg,stim/latef.jpg,EF,1,2,0,34,34,42,,,,,,,,,,,,,,,,,,2,1,0.899752363695,,,,,,2016_Sep_01_0845,P11,PLC_L_D1S1,NHGX,60.015476418,
stim/posf.jpg,stim/negf.jpg,stim/3.jpg,stim/1.jpg,stim/latef.jpg,EF,2,4,0,35,35,53,,,,,,,,,,,,,,,,,,4,1,0.799717852806,,,,,,2016_Sep_01_0845,P11,PLC_L_D1S1,NHGX,60.015476418,
stim/negf.jpg,stim/posf.jpg,stim/3.jpg,stim/1.jpg,stim/latef.jpg,EF,2,4,0,36,36,57,,,,,,,,,,,,,,,,,,4,1,0.749712627301,,,,,,2016_Sep_01_0845,P11,PLC_L_D1S1,NHGX,60.015476418,
stim/posf.jpg,stim/negf.jpg,stim/5.jpg,stim/6.jpg,stim/latef.jpg,CD,2,4,0,37,37,30,,,,,,,,,,,,,,,,,,4,1,0.766409124709,,,,,,2016_Sep_01_0845,P11,PLC_L_D1S1,NHGX,60.015476418,
stim/posf.jpg,stim/negf.jpg,stim/6.jpg,stim/5.jpg,stim/latef.jpg,CD,1,2,0,38,38,25,,,,,,,,,,,,,,,,,,2,1,0.916377878445,,,,,,2016_Sep_01_0845,P11,PLC_L_D1S1,NHGX,60.015476418,
stim/negf.jpg,stim/posf.jpg,stim/3.jpg,stim/1.jpg,stim/latef.jpg,EF,2,4,0,39,39,56,,,,,,,,,,,,,,,,,,4,1,0.633139996165,,,,,,2016_Sep_01_0845,P11,PLC_L_D1S1,NHGX,60.015476418,
stim/posf.jpg,stim/negf.jpg,stim/2.jpg,stim/4.jpg,stim/latef.jpg,AB,2,4,0,40,40,13,,,,,,,,,,,,,,,,,,4,1,0.899660716609,,,,,,2016_Sep_01_0845,P11,PLC_L_D1S1,NHGX,60.015476418,
stim/posf.jpg,stim/negf.jpg,stim/5.jpg,stim/6.jpg,stim/latef.jpg,CD,2,4,0,41,41,36,,,,,,,,,,,,,,,,,,4,1,0.766431049274,,,,,,2016_Sep_01_0845,P11,PLC_L_D1S1,NHGX,60.015476418,
stim/posf.jpg,stim/negf.jpg,stim/2.jpg,stim/4.jpg,stim/latef.jpg,AB,2,4,0,42,42,10,,,,,,,,,,,,,,,,,,4,1,0.899644004015,,,,,,2016_Sep_01_0845,P11,PLC_L_D1S1,NHGX,60.015476418,
stim/posf.jpg,stim/negf.jpg,stim/6.jpg,stim/5.jpg,stim/latef.jpg,CD,1,2,0,43,43,22,,,,,,,,,,,,,,,,,,4,0,1.08296995447,,,,,,2016_Sep_01_0845,P11,PLC_L_D1S1,NHGX,60.015476418,
stim/posf.jpg,stim/negf.jpg,stim/3.jpg,stim/1.jpg,stim/latef.jpg,EF,2,4,0,44,44,50,,,,,,,,,,,,,,,,,,2,0,0.916436602595,,,,,,2016_Sep_01_0845,P11,PLC_L_D1S1,NHGX,60.015476418,
stim/negf.jpg,stim/posf.jpg,stim/3.jpg,stim/1.jpg,stim/latef.jpg,EF,2,4,0,45,45,59,,,,,,,,,,,,,,,,,,4,1,0.666440170975,,,,,,2016_Sep_01_0845,P11,PLC_L_D1S1,NHGX,60.015476418,
stim/posf.jpg,stim/negf.jpg,stim/5.jpg,stim/6.jpg,stim/latef.jpg,CD,2,4,0,46,46,31,,,,,,,,,,,,,,,,,,4,1,0.749738470619,,,,,,2016_Sep_01_0845,P11,PLC_L_D1S1,NHGX,60.015476418,
stim/negf.jpg,stim/posf.jpg,stim/1.jpg,stim/3.jpg,stim/latef.jpg,EF,1,2,0,47,47,46,,,,,,,,,,,,,,,,,,2,1,0.899680132931,,,,,,2016_Sep_01_0845,P11,PLC_L_D1S1,NHGX,60.015476418,
stim/posf.jpg,stim/negf.jpg,stim/4.jpg,stim/2.jpg,stim/latef.jpg,AB,1,2,0,48,48,6,,,,,,,,,,,,,,,,,,2,1,0.899715756589,,,,,,2016_Sep_01_0845,P11,PLC_L_D1S1,NHGX,60.015476418,
stim/posf.jpg,stim/negf.jpg,stim/3.jpg,stim/1.jpg,stim/latef.jpg,EF,2,4,0,49,49,52,,,,,,,,,,,,,,,,,,4,1,0.866317498675,,,,,,2016_Sep_01_0845,P11,PLC_L_D1S1,NHGX,60.015476418,
stim/posf.jpg,stim/negf.jpg,stim/4.jpg,stim/2.jpg,stim/latef.jpg,AB,1,2,0,50,50,4,,,,,,,,,,,,,,,,,,2,1,0.89963758905,,,,,,2016_Sep_01_0845,P11,PLC_L_D1S1,NHGX,60.015476418,
stim/negf.jpg,stim/posf.jpg,stim/5.jpg,stim/6.jpg,stim/latef.jpg,CD,2,4,0,51,51,39,,,,,,,,,,,,,,,,,,4,1,0.733101719906,,,,,,2016_Sep_01_0845,P11,PLC_L_D1S1,NHGX,60.015476418,
stim/negf.jpg,stim/posf.jpg,stim/1.jpg,stim/3.jpg,stim/latef.jpg,EF,1,2,0,52,52,48,,,,,,,,,,,,,,,,,,2,1,0.81641173671,,,,,,2016_Sep_01_0845,P11,PLC_L_D1S1,NHGX,60.015476418,
stim/negf.jpg,stim/posf.jpg,stim/4.jpg,stim/2.jpg,stim/latef.jpg,AB,1,2,0,53,53,8,,,,,,,,,,,,,,,,,,2,1,0.649783907701,,,,,,2016_Sep_01_0845,P11,PLC_L_D1S1,NHGX,60.015476418,
stim/negf.jpg,stim/posf.jpg,stim/6.jpg,stim/5.jpg,stim/latef.jpg,CD,1,2,0,54,54,28,,,,,,,,,,,,,,,,,,2,1,0.616456467032,,,,,,2016_Sep_01_0845,P11,PLC_L_D1S1,NHGX,60.015476418,
stim/posf.jpg,stim/negf.jpg,stim/3.jpg,stim/1.jpg,stim/latef.jpg,EF,2,4,0,55,55,54,,,,,,,,,,,,,,,,,,4,1,0.799743398383,,,,,,2016_Sep_01_0845,P11,PLC_L_D1S1,NHGX,60.015476418,
stim/posf.jpg,stim/negf.jpg,stim/3.jpg,stim/1.jpg,stim/latef.jpg,EF,2,4,0,56,56,51,,,,,,,,,,,,,,,,,,4,1,0.849723060266,,,,,,2016_Sep_01_0845,P11,PLC_L_D1S1,NHGX,60.015476418,
stim/negf.jpg,stim/posf.jpg,stim/1.jpg,stim/3.jpg,stim/latef.jpg,EF,1,2,0,57,57,47,,,,,,,,,,,,,,,,,,2,1,0.899645411518,,,,,,2016_Sep_01_0845,P11,PLC_L_D1S1,NHGX,60.015476418,
stim/posf.jpg,stim/negf.jpg,stim/2.jpg,stim/4.jpg,stim/latef.jpg,AB,2,4,0,58,58,14,,,,,,,,,,,,,,,,,,4,1,0.666424150104,,,,,,2016_Sep_01_0845,P11,PLC_L_D1S1,NHGX,60.015476418,
stim/posf.jpg,stim/negf.jpg,stim/2.jpg,stim/4.jpg,stim/latef.jpg,AB,2,4,0,59,59,16,,,,,,,,,,,,,,,,,,4,1,0.666458378289,,,,,,2016_Sep_01_0845,P11,PLC_L_D1S1,NHGX,60.015476418,
,,,,,,,,,,,,,,,,,,,,,,,,,,,,,,,,0.9984375,1.0,1,0,0,2016_Sep_01_0845,P11,PLC_L_D1S1,NHGX,60.015476418,
stim/posf.jpg,stim/negf.jpg,stim/3.jpg,stim/1.jpg,stim/latef.jpg,EF,2,4,,,,,0,0,0,52,,,,,,,,,,,,,,4,1,0.849707346158,,,,,,2016_Sep_01_0845,P11,PLC_L_D1S1,NHGX,60.015476418,
stim/posf.jpg,stim/negf.jpg,stim/5.jpg,stim/6.jpg,stim/latef.jpg,CD,2,4,,,,,0,1,1,35,,,,,,,,,,,,,,4,1,0.733084099052,,,,,,2016_Sep_01_0845,P11,PLC_L_D1S1,NHGX,60.015476418,
stim/posf.jpg,stim/negf.jpg,stim/6.jpg,stim/5.jpg,stim/latef.jpg,CD,1,2,,,,,0,2,2,21,,,,,,,,,,,,,,2,1,0.899658560242,,,,,,2016_Sep_01_0845,P11,PLC_L_D1S1,NHGX,60.015476418,
stim/posf.jpg,stim/negf.jpg,stim/3.jpg,stim/1.jpg,stim/latef.jpg,EF,2,4,,,,,0,3,3,53,,,,,,,,,,,,,,4,1,0.549822956884,,,,,,2016_Sep_01_0845,P11,PLC_L_D1S1,NHGX,60.015476418,
stim/negf.jpg,stim/posf.jpg,stim/2.jpg,stim/4.jpg,stim/latef.jpg,AB,2,4,,,,,0,4,4,19,,,,,,,,,,,,,,4,1,0.566459295572,,,,,,2016_Sep_01_0845,P11,PLC_L_D1S1,NHGX,60.015476418,
stim/negf.jpg,stim/posf.jpg,stim/6.jpg,stim/5.jpg,stim/latef.jpg,CD,1,2,,,,,0,5,5,28,,,,,,,,,,,,,,2,1,0.599824441078,,,,,,2016_Sep_01_0845,P11,PLC_L_D1S1,NHGX,60.015476418,
stim/posf.jpg,stim/negf.jpg,stim/2.jpg,stim/4.jpg,stim/latef.jpg,AB,2,4,,,,,0,6,6,16,,,,,,,,,,,,,,4,1,0.533176690489,,,,,,2016_Sep_01_0845,P11,PLC_L_D1S1,NHGX,60.015476418,
stim/posf.jpg,stim/negf.jpg,stim/1.jpg,stim/3.jpg,stim/latef.jpg,EF,1,2,,,,,0,7,7,40,,,,,,,,,,,,,,4,0,0.966349212603,,,,,,2016_Sep_01_0845,P11,PLC_L_D1S1,NHGX,60.015476418,
stim/posf.jpg,stim/negf.jpg,stim/5.jpg,stim/6.jpg,stim/latef.jpg,CD,2,4,,,,,0,8,8,36,,,,,,,,,,,,,,4,1,0.683138566107,,,,,,2016_Sep_01_0845,P11,PLC_L_D1S1,NHGX,60.015476418,
stim/posf.jpg,stim/negf.jpg,stim/6.jpg,stim/5.jpg,stim/latef.jpg,CD,1,2,,,,,0,9,9,26,,,,,,,,,,,,,,2,1,0.733087271948,,,,,,2016_Sep_01_0845,P11,PLC_L_D1S1,NHGX,60.015476418,
stim/posf.jpg,stim/negf.jpg,stim/5.jpg,stim/6.jpg,stim/latef.jpg,CD,2,4,,,,,0,10,10,33,,,,,,,,,,,,,,4,1,0.583113330301,,,,,,2016_Sep_01_0845,P11,PLC_L_D1S1,NHGX,60.015476418,
stim/posf.jpg,stim/negf.jpg,stim/4.jpg,stim/2.jpg,stim/latef.jpg,AB,1,2,,,,,0,11,11,5,,,,,,,,,,,,,,2,1,0.683114773894,,,,,,2016_Sep_01_0845,P11,PLC_L_D1S1,NHGX,60.015476418,
stim/posf.jpg,stim/negf.jpg,stim/1.jpg,stim/3.jpg,stim/latef.jpg,EF,1,2,,,,,0,12,12,45,,,,,,,,,,,,,,2,1,0.749742663053,,,,,,2016_Sep_01_0845,P11,PLC_L_D1S1,NHGX,60.015476418,
stim/negf.jpg,stim/posf.jpg,stim/1.jpg,stim/3.jpg,stim/latef.jpg,EF,1,2,,,,,0,13,13,47,,,,,,,,,,,,,,2,1,0.683080608866,,,,,,2016_Sep_01_0845,P11,PLC_L_D1S1,NHGX,60.015476418,
stim/posf.jpg,stim/negf.jpg,stim/3.jpg,stim/1.jpg,stim/latef.jpg,EF,2,4,,,,,0,14,14,55,,,,,,,,,,,,,,4,1,0.749731177468,,,,,,2016_Sep_01_0845,P11,PLC_L_D1S1,NHGX,60.015476418,
stim/posf.jpg,stim/negf.jpg,stim/5.jpg,stim/6.jpg,stim/latef.jpg,CD,2,4,,,,,0,15,15,31,,,,,,,,,,,,,,4,1,0.749750338154,,,,,,2016_Sep_01_0845,P11,PLC_L_D1S1,NHGX,60.015476418,
stim/posf.jpg,stim/negf.jpg,stim/5.jpg,stim/6.jpg,stim/latef.jpg,CD,2,4,,,,,0,16,16,34,,,,,,,,,,,,,,4,1,0.516418350169,,,,,,2016_Sep_01_0845,P11,PLC_L_D1S1,NHGX,60.015476418,
stim/posf.jpg,stim/negf.jpg,stim/4.jpg,stim/2.jpg,stim/latef.jpg,AB,1,2,,,,,0,17,17,6,,,,,,,,,,,,,,2,1,0.583117182889,,,,,,2016_Sep_01_0845,P11,PLC_L_D1S1,NHGX,60.015476418,
stim/posf.jpg,stim/negf.jpg,stim/2.jpg,stim/4.jpg,stim/latef.jpg,AB,2,4,,,,,0,18,18,11,,,,,,,,,,,,,,4,1,0.616477146498,,,,,,2016_Sep_01_0845,P11,PLC_L_D1S1,NHGX,60.015476418,
stim/posf.jpg,stim/negf.jpg,stim/2.jpg,stim/4.jpg,stim/latef.jpg,AB,2,4,,,,,0,19,19,15,,,,,,,,,,,,,,4,1,0.566478747984,,,,,,2016_Sep_01_0845,P11,PLC_L_D1S1,NHGX,60.015476418,
stim/posf.jpg,stim/negf.jpg,stim/5.jpg,stim/6.jpg,stim/latef.jpg,CD,2,4,,,,,0,20,20,32,,,,,,,,,,,,,,4,1,0.63310131991,,,,,,2016_Sep_01_0845,P11,PLC_L_D1S1,NHGX,60.015476418,
stim/posf.jpg,stim/negf.jpg,stim/1.jpg,stim/3.jpg,stim/latef.jpg,EF,1,2,,,,,0,21,21,44,,,,,,,,,,,,,,2,1,0.683100163532,,,,,,2016_Sep_01_0845,P11,PLC_L_D1S1,NHGX,60.015476418,
stim/posf.jpg,stim/negf.jpg,stim/1.jpg,stim/3.jpg,stim/latef.jpg,EF,1,2,,,,,0,22,22,42,,,,,,,,,,,,,,2,1,0.716419240384,,,,,,2016_Sep_01_0845,P11,PLC_L_D1S1,NHGX,60.015476418,
stim/posf.jpg,stim/negf.jpg,stim/3.jpg,stim/1.jpg,stim/latef.jpg,EF,2,4,,,,,0,23,23,54,,,,,,,,,,,,,,4,1,0.716372422868,,,,,,2016_Sep_01_0845,P11,PLC_L_D1S1,NHGX,60.015476418,
stim/posf.jpg,stim/negf.jpg,stim/5.jpg,stim/6.jpg,stim/latef.jpg,CD,2,4,,,,,0,24,24,30,,,,,,,,,,,,,,4,1,0.716421029838,,,,,,2016_Sep_01_0845,P11,PLC_L_D1S1,NHGX,60.015476418,
stim/posf.jpg,stim/negf.jpg,stim/3.jpg,stim/1.jpg,stim/latef.jpg,EF,2,4,,,,,0,25,25,50,,,,,,,,,,,,,,4,1,0.733074727728,,,,,,2016_Sep_01_0845,P11,PLC_L_D1S1,NHGX,60.015476418,
stim/posf.jpg,stim/negf.jpg,stim/6.jpg,stim/5.jpg,stim/latef.jpg,CD,1,2,,,,,0,26,26,25,,,,,,,,,,,,,,2,1,0.666441969452,,,,,,2016_Sep_01_0845,P11,PLC_L_D1S1,NHGX,60.015476418,
stim/posf.jpg,stim/negf.jpg,stim/6.jpg,stim/5.jpg,stim/latef.jpg,CD,1,2,,,,,0,27,27,23,,,,,,,,,,,,,,2,1,0.783037863483,,,,,,2016_Sep_01_0845,P11,PLC_L_D1S1,NHGX,60.015476418,
stim/negf.jpg,stim/posf.jpg,stim/6.jpg,stim/5.jpg,stim/latef.jpg,CD,1,2,,,,,0,28,28,29,,,,,,,,,,,,,,2,1,0.68311841295,,,,,,2016_Sep_01_0845,P11,PLC_L_D1S1,NHGX,60.015476418,
stim/negf.jpg,stim/posf.jpg,stim/5.jpg,stim/6.jpg,stim/latef.jpg,CD,2,4,,,,,0,29,29,37,,,,,,,,,,,,,,4,1,0.583129101552,,,,,,2016_Sep_01_0845,P11,PLC_L_D1S1,NHGX,60.015476418,
stim/negf.jpg,stim/posf.jpg,stim/4.jpg,stim/2.jpg,stim/latef.jpg,AB,1,2,,,,,0,30,30,8,,,,,,,,,,,,,,2,1,0.533204846562,,,,,,2016_Sep_01_0845,P11,PLC_L_D1S1,NHGX,60.015476418,
stim/posf.jpg,stim/negf.jpg,stim/4.jpg,stim/2.jpg,stim/latef.jpg,AB,1,2,,,,,0,31,31,7,,,,,,,,,,,,,,2,1,0.616464491002,,,,,,2016_Sep_01_0845,P11,PLC_L_D1S1,NHGX,60.015476418,
stim/negf.jpg,stim/posf.jpg,stim/2.jpg,stim/4.jpg,stim/latef.jpg,AB,2,4,,,,,0,32,32,18,,,,,,,,,,,,,,4,1,0.566473957061,,,,,,2016_Sep_01_0845,P11,PLC_L_D1S1,NHGX,60.015476418,
stim/negf.jpg,stim/posf.jpg,stim/6.jpg,stim/5.jpg,stim/latef.jpg,CD,1,2,,,,,0,33,33,27,,,,,,,,,,,,,,2,1,0.749800394732,,,,,,2016_Sep_01_0845,P11,PLC_L_D1S1,NHGX,60.015476418,
stim/posf.jpg,stim/negf.jpg,stim/3.jpg,stim/1.jpg,stim/latef.jpg,EF,2,4,,,,,0,34,34,51,,,,,,,,,,,,,,2,0,0.783069415007,,,,,,2016_Sep_01_0845,P11,PLC_L_D1S1,NHGX,60.015476418,
stim/posf.jpg,stim/negf.jpg,stim/4.jpg,stim/2.jpg,stim/latef.jpg,AB,1,2,,,,,0,35,35,0,,,,,,,,,,,,,,2,1,0.649785931737,,,,,,2016_Sep_01_0845,P11,PLC_L_D1S1,NHGX,60.015476418,
stim/negf.jpg,stim/posf.jpg,stim/1.jpg,stim/3.jpg,stim/latef.jpg,EF,1,2,,,,,0,36,36,49,,,,,,,,,,,,,,2,1,0.949661951181,,,,,,2016_Sep_01_0845,P11,PLC_L_D1S1,NHGX,60.015476418,
stim/posf.jpg,stim/negf.jpg,stim/2.jpg,stim/4.jpg,stim/latef.jpg,AB,2,4,,,,,0,37,37,14,,,,,,,,,,,,,,4,1,0.866386568573,,,,,,2016_Sep_01_0845,P11,PLC_L_D1S1,NHGX,60.015476418,
stim/posf.jpg,stim/negf.jpg,stim/6.jpg,stim/5.jpg,stim/latef.jpg,CD,1,2,,,,,0,38,38,20,,,,,,,,,,,,,,2,1,0.683089859889,,,,,,2016_Sep_01_0845,P11,PLC_L_D1S1,NHGX,60.015476418,
stim/posf.jpg,stim/negf.jpg,stim/4.jpg,stim/2.jpg,stim/latef.jpg,AB,1,2,,,,,0,39,39,1,,,,,,,,,,,,,,2,1,0.633169135686,,,,,,2016_Sep_01_0845,P11,PLC_L_D1S1,NHGX,60.015476418,
stim/posf.jpg,stim/negf.jpg,stim/2.jpg,stim/4.jpg,stim/latef.jpg,AB,2,4,,,,,0,40,40,13,,,,,,,,,,,,,,4,1,0.533146741954,,,,,,2016_Sep_01_0845,P11,PLC_L_D1S1,NHGX,60.015476418,
stim/negf.jpg,stim/posf.jpg,stim/4.jpg,stim/2.jpg,stim/latef.jpg,AB,1,2,,,,,0,41,41,9,,,,,,,,,,,,,,2,1,0.549818304305,,,,,,2016_Sep_01_0845,P11,PLC_L_D1S1,NHGX,60.015476418,
stim/negf.jpg,stim/posf.jpg,stim/1.jpg,stim/3.jpg,stim/latef.jpg,EF,1,2,,,,,0,42,42,48,,,,,,,,,,,,,,2,1,0.683129633876,,,,,,2016_Sep_01_0845,P11,PLC_L_D1S1,NHGX,60.015476418,
stim/negf.jpg,stim/posf.jpg,stim/5.jpg,stim/6.jpg,stim/latef.jpg,CD,2,4,,,,,0,43,43,38,,,,,,,,,,,,,,2,0,0.699777921302,,,,,,2016_Sep_01_0845,P11,PLC_L_D1S1,NHGX,60.015476418,
stim/posf.jpg,stim/negf.jpg,stim/2.jpg,stim/4.jpg,stim/latef.jpg,AB,2,4,,,,,0,44,44,12,,,,,,,,,,,,,,4,1,0.666456814397,,,,,,2016_Sep_01_0845,P11,PLC_L_D1S1,NHGX,60.015476418,
stim/posf.jpg,stim/negf.jpg,stim/6.jpg,stim/5.jpg,stim/latef.jpg,CD,1,2,,,,,0,45,45,22,,,,,,,,,,,,,,2,1,0.566519589629,,,,,,2016_Sep_01_0845,P11,PLC_L_D1S1,NHGX,60.015476418,
stim/negf.jpg,stim/posf.jpg,stim/3.jpg,stim/1.jpg,stim/latef.jpg,EF,2,4,,,,,0,46,46,59,,,,,,,,,,,,,,4,1,0.649776855148,,,,,,2016_Sep_01_0845,P11,PLC_L_D1S1,NHGX,60.015476418,
stim/posf.jpg,stim/negf.jpg,stim/2.jpg,stim/4.jpg,stim/latef.jpg,AB,2,4,,,,,0,47,47,17,,,,,,,,,,,,,,2,0,0.616489540344,,,,,,2016_Sep_01_0845,P11,PLC_L_D1S1,NHGX,60.015476418,
stim/posf.jpg,stim/negf.jpg,stim/2.jpg,stim/4.jpg,stim/latef.jpg,AB,2,4,,,,,0,48,48,10,,,,,,,,,,,,,,4,1,0.516499260535,,,,,,2016_Sep_01_0845,P11,PLC_L_D1S1,NHGX,60.015476418,
stim/negf.jpg,stim/posf.jpg,stim/1.jpg,stim/3.jpg,stim/latef.jpg,EF,1,2,,,,,0,49,49,46,,,,,,,,,,,,,,2,1,0.699742980342,,,,,,2016_Sep_01_0845,P11,PLC_L_D1S1,NHGX,60.015476418,
stim/negf.jpg,stim/posf.jpg,stim/3.jpg,stim/1.jpg,stim/latef.jpg,EF,2,4,,,,,0,50,50,58,,,,,,,,,,,,,,4,1,0.683126626392,,,,,,2016_Sep_01_0845,P11,PLC_L_D1S1,NHGX,60.015476418,
stim/posf.jpg,stim/negf.jpg,stim/1.jpg,stim/3.jpg,stim/latef.jpg,EF,1,2,,,,,0,51,51,41,,,,,,,,,,,,,,2,1,0.583133149626,,,,,,2016_Sep_01_0845,P11,PLC_L_D1S1,NHGX,60.015476418,
stim/negf.jpg,stim/posf.jpg,stim/3.jpg,stim/1.jpg,stim/latef.jpg,EF,2,4,,,,,0,52,52,56,,,,,,,,,,,,,,4,1,0.616440037142,,,,,,2016_Sep_01_0845,P11,PLC_L_D1S1,NHGX,60.015476418,
stim/posf.jpg,stim/negf.jpg,stim/4.jpg,stim/2.jpg,stim/latef.jpg,AB,1,2,,,,,0,53,53,3,,,,,,,,,,,,,,2,1,0.833106450679,,,,,,2016_Sep_01_0845,P11,PLC_L_D1S1,NHGX,60.015476418,
stim/negf.jpg,stim/posf.jpg,stim/5.jpg,stim/6.jpg,stim/latef.jpg,CD,2,4,,,,,0,54,54,39,,,,,,,,,,,,,,4,1,0.566476182599,,,,,,2016_Sep_01_0845,P11,PLC_L_D1S1,NHGX,60.015476418,
stim/posf.jpg,stim/negf.jpg,stim/1.jpg,stim/3.jpg,stim/latef.jpg,EF,1,2,,,,,0,55,55,43,,,,,,,,,,,,,,2,1,0.849631930467,,,,,,2016_Sep_01_0845,P11,PLC_L_D1S1,NHGX,60.015476418,
stim/posf.jpg,stim/negf.jpg,stim/4.jpg,stim/2.jpg,stim/latef.jpg,AB,1,2,,,,,0,56,56,2,,,,,,,,,,,,,,2,1,0.783116698684,,,,,,2016_Sep_01_0845,P11,PLC_L_D1S1,NHGX,60.015476418,
stim/posf.jpg,stim/negf.jpg,stim/6.jpg,stim/5.jpg,stim/latef.jpg,CD,1,2,,,,,0,57,57,24,,,,,,,,,,,,,,2,1,0.799718009195,,,,,,2016_Sep_01_0845,P11,PLC_L_D1S1,NHGX,60.015476418,
stim/posf.jpg,stim/negf.jpg,stim/4.jpg,stim/2.jpg,stim/latef.jpg,AB,1,2,,,,,0,58,58,4,,,,,,,,,,,,,,2,1,0.683034456003,,,,,,2016_Sep_01_0845,P11,PLC_L_D1S1,NHGX,60.015476418,
stim/negf.jpg,stim/posf.jpg,stim/3.jpg,stim/1.jpg,stim/latef.jpg,EF,2,4,,,,,0,59,59,57,,,,,,,,,,,,,,4,1,1.01628999372,,,,,,2016_Sep_01_0845,P11,PLC_L_D1S1,NHGX,60.015476418,
,,,,,,,,,,,,,,,,,,,,,,,,,,,,,,,,0.9984375,1.0,1,0,0,2016_Sep_01_0845,P11,PLC_L_D1S1,NHGX,60.015476418,
stim/posf.jpg,stim/negf.jpg,stim/6.jpg,stim/5.jpg,stim/latef.jpg,CD,1,2,,,,,,,,,0,0,0,21,,,,,,,,,,2,1,0.766394198562,,,,,,2016_Sep_01_0845,P11,PLC_L_D1S1,NHGX,60.015476418,
stim/negf.jpg,stim/posf.jpg,stim/3.jpg,stim/1.jpg,stim/latef.jpg,EF,2,4,,,,,,,,,0,1,1,58,,,,,,,,,,4,1,0.533163875595,,,,,,2016_Sep_01_0845,P11,PLC_L_D1S1,NHGX,60.015476418,
stim/negf.jpg,stim/posf.jpg,stim/2.jpg,stim/4.jpg,stim/latef.jpg,AB,2,4,,,,,,,,,0,2,2,19,,,,,,,,,,4,1,0.749746545716,,,,,,2016_Sep_01_0845,P11,PLC_L_D1S1,NHGX,60.015476418,
stim/posf.jpg,stim/negf.jpg,stim/6.jpg,stim/5.jpg,stim/latef.jpg,CD,1,2,,,,,,,,,0,3,3,20,,,,,,,,,,2,1,0.733080444957,,,,,,2016_Sep_01_0845,P11,PLC_L_D1S1,NHGX,60.015476418,
stim/posf.jpg,stim/negf.jpg,stim/1.jpg,stim/3.jpg,stim/latef.jpg,EF,1,2,,,,,,,,,0,4,4,45,,,,,,,,,,2,1,0.749686263689,,,,,,2016_Sep_01_0845,P11,PLC_L_D1S1,NHGX,60.015476418,
stim/posf.jpg,stim/negf.jpg,stim/2.jpg,stim/4.jpg,stim/latef.jpg,AB,2,4,,,,,,,,,0,5,5,14,,,,,,,,,,4,1,0.549862989516,,,,,,2016_Sep_01_0845,P11,PLC_L_D1S1,NHGX,60.015476418,
stim/posf.jpg,stim/negf.jpg,stim/4.jpg,stim/2.jpg,stim/latef.jpg,AB,1,2,,,,,,,,,0,6,6,5,,,,,,,,,,2,1,0.699743034477,,,,,,2016_Sep_01_0845,P11,PLC_L_D1S1,NHGX,60.015476418,
stim/posf.jpg,stim/negf.jpg,stim/5.jpg,stim/6.jpg,stim/latef.jpg,CD,2,4,,,,,,,,,0,7,7,30,,,,,,,,,,4,1,0.633127027891,,,,,,2016_Sep_01_0845,P11,PLC_L_D1S1,NHGX,60.015476418,
stim/posf.jpg,stim/negf.jpg,stim/2.jpg,stim/4.jpg,stim/latef.jpg,AB,2,4,,,,,,,,,0,8,8,11,,,,,,,,,,4,1,0.616461164724,,,,,,2016_Sep_01_0845,P11,PLC_L_D1S1,NHGX,60.015476418,
stim/negf.jpg,stim/posf.jpg,stim/3.jpg,stim/1.jpg,stim/latef.jpg,EF,2,4,,,,,,,,,0,9,9,59,,,,,,,,,,4,1,0.799747425405,,,,,,2016_Sep_01_0845,P11,PLC_L_D1S1,NHGX,60.015476418,
stim/posf.jpg,stim/negf.jpg,stim/5.jpg,stim/6.jpg,stim/latef.jpg,CD,2,4,,,,,,,,,0,10,10,36,,,,,,,,,,2,0,0.949688176449,,,,,,2016_Sep_01_0845,P11,PLC_L_D1S1,NHGX,60.015476418,
stim/posf.jpg,stim/negf.jpg,stim/3.jpg,stim/1.jpg,stim/latef.jpg,EF,2,4,,,,,,,,,0,11,11,54,,,,,,,,,,4,1,0.69971404533,,,,,,2016_Sep_01_0845,P11,PLC_L_D1S1,NHGX,60.015476418,
stim/negf.jpg,stim/posf.jpg,stim/5.jpg,stim/6.jpg,stim/latef.jpg,CD,2,4,,,,,,,,,0,12,12,39,,,,,,,,,,4,1,0.616458500092,,,,,,2016_Sep_01_0845,P11,PLC_L_D1S1,NHGX,60.015476418,
stim/posf.jpg,stim/negf.jpg,stim/2.jpg,stim/4.jpg,stim/latef.jpg,AB,2,4,,,,,,,,,0,13,13,13,,,,,,,,,,4,1,0.583138084909,,,,,,2016_Sep_01_0845,P11,PLC_L_D1S1,NHGX,60.015476418,
stim/posf.jpg,stim/negf.jpg,stim/1.jpg,stim/3.jpg,stim/latef.jpg,EF,1,2,,,,,,,,,0,14,14,43,,,,,,,,,,2,1,0.949728975989,,,,,,2016_Sep_01_0845,P11,PLC_L_D1S1,NHGX,60.015476418,
stim/posf.jpg,stim/negf.jpg,stim/5.jpg,stim/6.jpg,stim/latef.jpg,CD,2,4,,,,,,,,,0,15,15,34,,,,,,,,,,4,1,0.68310111089,,,,,,2016_Sep_01_0845,P11,PLC_L_D1S1,NHGX,60.015476418,
stim/posf.jpg,stim/negf.jpg,stim/1.jpg,stim/3.jpg,stim/latef.jpg,EF,1,2,,,,,,,,,0,16,16,40,,,,,,,,,,2,1,0.716411703627,,,,,,2016_Sep_01_0845,P11,PLC_L_D1S1,NHGX,60.015476418,
stim/posf.jpg,stim/negf.jpg,stim/4.jpg,stim/2.jpg,stim/latef.jpg,AB,1,2,,,,,,,,,0,17,17,4,,,,,,,,,,2,1,0.749747505103,,,,,,2016_Sep_01_0845,P11,PLC_L_D1S1,NHGX,60.015476418,
stim/negf.jpg,stim/posf.jpg,stim/6.jpg,stim/5.jpg,stim/latef.jpg,CD,1,2,,,,,,,,,0,18,18,27,,,,,,,,,,2,1,0.783030831983,,,,,,2016_Sep_01_0845,P11,PLC_L_D1S1,NHGX,60.015476418,
stim/negf.jpg,stim/posf.jpg,stim/3.jpg,stim/1.jpg,stim/latef.jpg,EF,2,4,,,,,,,,,0,19,19,57,,,,,,,,,,4,1,0.799738390921,,,,,,2016_Sep_01_0845,P11,PLC_L_D1S1,NHGX,60.015476418,
stim/posf.jpg,stim/negf.jpg,stim/5.jpg,stim/6.jpg,stim/latef.jpg,CD,2,4,,,,,,,,,0,20,20,32,,,,,,,,,,4,1,0.699769121401,,,,,,2016_Sep_01_0845,P11,PLC_L_D1S1,NHGX,60.015476418,
stim/negf.jpg,stim/posf.jpg,stim/1.jpg,stim/3.jpg,stim/latef.jpg,EF,1,2,,,,,,,,,0,21,21,48,,,,,,,,,,2,1,0.699771578516,,,,,,2016_Sep_01_0845,P11,PLC_L_D1S1,NHGX,60.015476418,
stim/posf.jpg,stim/negf.jpg,stim/1.jpg,stim/3.jpg,stim/latef.jpg,EF,1,2,,,,,,,,,0,22,22,44,,,,,,,,,,2,1,0.699803277407,,,,,,2016_Sep_01_0845,P11,PLC_L_D1S1,NHGX,60.015476418,
stim/posf.jpg,stim/negf.jpg,stim/5.jpg,stim/6.jpg,stim/latef.jpg,CD,2,4,,,,,,,,,0,23,23,35,,,,,,,,,,4,1,0.733066451131,,,,,,2016_Sep_01_0845,P11,PLC_L_D1S1,NHGX,60.015476418,
stim/posf.jpg,stim/negf.jpg,stim/3.jpg,stim/1.jpg,stim/latef.jpg,EF,2,4,,,,,,,,,0,24,24,53,,,,,,,,,,4,1,0.966348150961,,,,,,2016_Sep_01_0845,P11,PLC_L_D1S1,NHGX,60.015476418,
stim/posf.jpg,stim/negf.jpg,stim/1.jpg,stim/3.jpg,stim/latef.jpg,EF,1,2,,,,,,,,,0,25,25,41,,,,,,,,,,2,1,0.716444467168,,,,,,2016_Sep_01_0845,P11,PLC_L_D1S1,NHGX,60.015476418,
stim/posf.jpg,stim/negf.jpg,stim/2.jpg,stim/4.jpg,stim/latef.jpg,AB,2,4,,,,,,,,,0,26,26,17,,,,,,,,,,4,1,0.533201051116,,,,,,2016_Sep_01_0845,P11,PLC_L_D1S1,NHGX,60.015476418,
stim/negf.jpg,stim/posf.jpg,stim/1.jpg,stim/3.jpg,stim/latef.jpg,EF,1,2,,,,,,,,,0,27,27,47,,,,,,,,,,2,1,0.716437059732,,,,,,2016_Sep_01_0845,P11,PLC_L_D1S1,NHGX,60.015476418,
stim/posf.jpg,stim/negf.jpg,stim/3.jpg,stim/1.jpg,stim/latef.jpg,EF,2,4,,,,,,,,,0,28,28,50,,,,,,,,,,4,1,0.766395290279,,,,,,2016_Sep_01_0845,P11,PLC_L_D1S1,NHGX,60.015476418,
stim/posf.jpg,stim/negf.jpg,stim/3.jpg,stim/1.jpg,stim/latef.jpg,EF,2,4,,,,,,,,,0,29,29,55,,,,,,,,,,4,1,0.933080225411,,,,,,2016_Sep_01_0845,P11,PLC_L_D1S1,NHGX,60.015476418,
stim/posf.jpg,stim/negf.jpg,stim/6.jpg,stim/5.jpg,stim/latef.jpg,CD,1,2,,,,,,,,,0,30,30,26,,,,,,,,,,4,0,0.933022623053,,,,,,2016_Sep_01_0845,P11,PLC_L_D1S1,NHGX,60.015476418,
stim/posf.jpg,stim/negf.jpg,stim/4.jpg,stim/2.jpg,stim/latef.jpg,AB,1,2,,,,,,,,,0,31,31,3,,,,,,,,,,4,0,0.916366837968,,,,,,2016_Sep_01_0845,P11,PLC_L_D1S1,NHGX,60.015476418,
stim/negf.jpg,stim/posf.jpg,stim/1.jpg,stim/3.jpg,stim/latef.jpg,EF,1,2,,,,,,,,,0,32,32,46,,,,,,,,,,2,1,0.966333167671,,,,,,2016_Sep_01_0845,P11,PLC_L_D1S1,NHGX,60.015476418,
stim/posf.jpg,stim/negf.jpg,stim/2.jpg,stim/4.jpg,stim/latef.jpg,AB,2,4,,,,,,,,,0,33,33,16,,,,,,,,,,4,1,0.649797525592,,,,,,2016_Sep_01_0845,P11,PLC_L_D1S1,NHGX,60.015476418,
stim/posf.jpg,stim/negf.jpg,stim/4.jpg,stim/2.jpg,stim/latef.jpg,AB,1,2,,,,,,,,,0,34,34,7,,,,,,,,,,2,1,0.6331463991,,,,,,2016_Sep_01_0845,P11,PLC_L_D1S1,NHGX,60.015476418,
stim/negf.jpg,stim/posf.jpg,stim/2.jpg,stim/4.jpg,stim/latef.jpg,AB,2,4,,,,,,,,,0,35,35,18,,,,,,,,,,4,1,0.483242261178,,,,,,2016_Sep_01_0845,P11,PLC_L_D1S1,NHGX,60.015476418,
stim/posf.jpg,stim/negf.jpg,stim/1.jpg,stim/3.jpg,stim/latef.jpg,EF,1,2,,,,,,,,,0,36,36,42,,,,,,,,,,2,1,0.799737449578,,,,,,2016_Sep_01_0845,P11,PLC_L_D1S1,NHGX,60.015476418,
stim/negf.jpg,stim/posf.jpg,stim/3.jpg,stim/1.jpg,stim/latef.jpg,EF,2,4,,,,,,,,,0,37,37,56,,,,,,,,,,4,1,0.716427667357,,,,,,2016_Sep_01_0845,P11,PLC_L_D1S1,NHGX,60.015476418,
stim/negf.jpg,stim/posf.jpg,stim/1.jpg,stim/3.jpg,stim/latef.jpg,EF,1,2,,,,,,,,,0,38,38,49,,,,,,,,,,2,1,0.766412069037,,,,,,2016_Sep_01_0845,P11,PLC_L_D1S1,NHGX,60.015476418,
stim/posf.jpg,stim/negf.jpg,stim/2.jpg,stim/4.jpg,stim/latef.jpg,AB,2,4,,,,,,,,,0,39,39,10,,,,,,,,,,4,1,0.616445694222,,,,,,2016_Sep_01_0845,P11,PLC_L_D1S1,NHGX,60.015476418,
stim/posf.jpg,stim/negf.jpg,stim/2.jpg,stim/4.jpg,stim/latef.jpg,AB,2,4,,,,,,,,,0,40,40,12,,,,,,,,,,4,1,0.49983734018,,,,,,2016_Sep_01_0845,P11,PLC_L_D1S1,NHGX,60.015476418,
stim/posf.jpg,stim/negf.jpg,stim/4.jpg,stim/2.jpg,stim/latef.jpg,AB,1,2,,,,,,,,,0,41,41,2,,,,,,,,,,2,1,0.699734962387,,,,,,2016_Sep_01_0845,P11,PLC_L_D1S1,NHGX,60.015476418,
stim/negf.jpg,stim/posf.jpg,stim/6.jpg,stim/5.jpg,stim/latef.jpg,CD,1,2,,,,,,,,,0,42,42,29,,,,,,,,,,2,1,0.883036107111,,,,,,2016_Sep_01_0845,P11,PLC_L_D1S1,NHGX,60.015476418,
stim/posf.jpg,stim/negf.jpg,stim/6.jpg,stim/5.jpg,stim/latef.jpg,CD,1,2,,,,,,,,,0,43,43,22,,,,,,,,,,2,1,0.61646145645,,,,,,2016_Sep_01_0845,P11,PLC_L_D1S1,NHGX,60.015476418,
stim/negf.jpg,stim/posf.jpg,stim/6.jpg,stim/5.jpg,stim/latef.jpg,CD,1,2,,,,,,,,,0,44,44,28,,,,,,,,,,2,1,0.649754750134,,,,,,2016_Sep_01_0845,P11,PLC_L_D1S1,NHGX,60.015476418,
stim/posf.jpg,stim/negf.jpg,stim/3.jpg,stim/1.jpg,stim/latef.jpg,EF,2,4,,,,,,,,,0,45,45,51,,,,,,,,,,4,1,0.749740966831,,,,,,2016_Sep_01_0845,P11,PLC_L_D1S1,NHGX,60.015476418,
stim/posf.jpg,stim/negf.jpg,stim/5.jpg,stim/6.jpg,stim/latef.jpg,CD,2,4,,,,,,,,,0,46,46,33,,,,,,,,,,4,1,0.799738574377,,,,,,2016_Sep_01_0845,P11,PLC_L_D1S1,NHGX,60.015476418,
stim/posf.jpg,stim/negf.jpg,stim/6.jpg,stim/5.jpg,stim/latef.jpg,CD,1,2,,,,,,,,,0,47,47,25,,,,,,,,,,2,1,0.833050718977,,,,,,2016_Sep_01_0845,P11,PLC_L_D1S1,NHGX,60.015476418,
stim/posf.jpg,stim/negf.jpg,stim/3.jpg,stim/1.jpg,stim/latef.jpg,EF,2,4,,,,,,,,,0,48,48,52,,,,,,,,,,4,1,0.666432240238,,,,,,2016_Sep_01_0845,P11,PLC_L_D1S1,NHGX,60.015476418,
stim/negf.jpg,stim/posf.jpg,stim/4.jpg,stim/2.jpg,stim/latef.jpg,AB,1,2,,,,,,,,,0,49,49,8,,,,,,,,,,2,1,0.649799462412,,,,,,2016_Sep_01_0845,P11,PLC_L_D1S1,NHGX,60.015476418,
stim/posf.jpg,stim/negf.jpg,stim/6.jpg,stim/5.jpg,stim/latef.jpg,CD,1,2,,,,,,,,,0,50,50,24,,,,,,,,,,2,1,0.699792035429,,,,,,2016_Sep_01_0845,P11,PLC_L_D1S1,NHGX,60.015476418,
stim/negf.jpg,stim/posf.jpg,stim/4.jpg,stim/2.jpg,stim/latef.jpg,AB,1,2,,,,,,,,,0,51,51,9,,,,,,,,,,2,1,0.699775816062,,,,,,2016_Sep_01_0845,P11,PLC_L_D1S1,NHGX,60.015476418,
stim/posf.jpg,stim/negf.jpg,stim/2.jpg,stim/4.jpg,stim/latef.jpg,AB,2,4,,,,,,,,,0,52,52,15,,,,,,,,,,4,1,0.899753256918,,,,,,2016_Sep_01_0845,P11,PLC_L_D1S1,NHGX,60.015476418,
stim/negf.jpg,stim/posf.jpg,stim/5.jpg,stim/6.jpg,stim/latef.jpg,CD,2,4,,,,,,,,,0,53,53,37,,,,,,,,,,4,1,0.916353866686,,,,,,2016_Sep_01_0845,P11,PLC_L_D1S1,NHGX,60.015476418,
stim/posf.jpg,stim/negf.jpg,stim/6.jpg,stim/5.jpg,stim/latef.jpg,CD,1,2,,,,,,,,,0,54,54,23,,,,,,,,,,2,1,1.18284387469,,,,,,2016_Sep_01_0845,P11,PLC_L_D1S1,NHGX,60.015476418,
stim/posf.jpg,stim/negf.jpg,stim/4.jpg,stim/2.jpg,stim/latef.jpg,AB,1,2,,,,,,,,,0,55,55,1,,,,,,,,,,2,1,0.866368412387,,,,,,2016_Sep_01_0845,P11,PLC_L_D1S1,NHGX,60.015476418,
stim/posf.jpg,stim/negf.jpg,stim/4.jpg,stim/2.jpg,stim/latef.jpg,AB,1,2,,,,,,,,,0,56,56,6,,,,,,,,,,2,1,0.799708285997,,,,,,2016_Sep_01_0845,P11,PLC_L_D1S1,NHGX,60.015476418,
stim/posf.jpg,stim/negf.jpg,stim/4.jpg,stim/2.jpg,stim/latef.jpg,AB,1,2,,,,,,,,,0,57,57,0,,,,,,,,,,2,1,0.816404326267,,,,,,2016_Sep_01_0845,P11,PLC_L_D1S1,NHGX,60.015476418,
stim/negf.jpg,stim/posf.jpg,stim/5.jpg,stim/6.jpg,stim/latef.jpg,CD,2,4,,,,,,,,,0,58,58,38,,,,,,,,,,4,1,0.83305811739,,,,,,2016_Sep_01_0845,P11,PLC_L_D1S1,NHGX,60.015476418,
stim/posf.jpg,stim/negf.jpg,stim/5.jpg,stim/6.jpg,stim/latef.jpg,CD,2,4,,,,,,,,,0,59,59,31,,,,,,,,,,4,1,0.749776160419,,,,,,2016_Sep_01_0845,P11,PLC_L_D1S1,NHGX,60.015476418,
,,,,,,,,,,,,,,,,,,,,,,,,,,,,,,,,0.9984375,1.0,1,0,0,2016_Sep_01_0845,P11,PLC_L_D1S1,NHGX,60.015476418,
stim/posf.jpg,stim/negf.jpg,stim/6.jpg,stim/5.jpg,stim/latef.jpg,CD,1,2,,,,,,,,,,,,,0,0,0,26,,,,,,2,1,0.883064200028,,,,,,2016_Sep_01_0845,P11,PLC_L_D1S1,NHGX,60.015476418,
stim/negf.jpg,stim/posf.jpg,stim/1.jpg,stim/3.jpg,stim/latef.jpg,EF,1,2,,,,,,,,,,,,,0,1,1,49,,,,,,2,1,0.666443671687,,,,,,2016_Sep_01_0845,P11,PLC_L_D1S1,NHGX,60.015476418,
stim/posf.jpg,stim/negf.jpg,stim/1.jpg,stim/3.jpg,stim/latef.jpg,EF,1,2,,,,,,,,,,,,,0,2,2,41,,,,,,2,1,0.766404694684,,,,,,2016_Sep_01_0845,P11,PLC_L_D1S1,NHGX,60.015476418,
stim/posf.jpg,stim/negf.jpg,stim/3.jpg,stim/1.jpg,stim/latef.jpg,EF,2,4,,,,,,,,,,,,,0,3,3,54,,,,,,4,1,0.649781916745,,,,,,2016_Sep_01_0845,P11,PLC_L_D1S1,NHGX,60.015476418,
stim/posf.jpg,stim/negf.jpg,stim/6.jpg,stim/5.jpg,stim/latef.jpg,CD,1,2,,,,,,,,,,,,,0,4,4,25,,,,,,2,1,0.749739854062,,,,,,2016_Sep_01_0845,P11,PLC_L_D1S1,NHGX,60.015476418,
stim/negf.jpg,stim/posf.jpg,stim/6.jpg,stim/5.jpg,stim/latef.jpg,CD,1,2,,,,,,,,,,,,,0,5,5,27,,,,,,2,1,0.649794319614,,,,,,2016_Sep_01_0845,P11,PLC_L_D1S1,NHGX,60.015476418,
stim/posf.jpg,stim/negf.jpg,stim/5.jpg,stim/6.jpg,stim/latef.jpg,CD,2,4,,,,,,,,,,,,,0,6,6,31,,,,,,4,1,0.683105844671,,,,,,2016_Sep_01_0845,P11,PLC_L_D1S1,NHGX,60.015476418,
stim/negf.jpg,stim/posf.jpg,stim/5.jpg,stim/6.jpg,stim/latef.jpg,CD,2,4,,,,,,,,,,,,,0,7,7,39,,,,,,4,1,0.699774225103,,,,,,2016_Sep_01_0845,P11,PLC_L_D1S1,NHGX,60.015476418,
stim/negf.jpg,stim/posf.jpg,stim/4.jpg,stim/2.jpg,stim/latef.jpg,AB,1,2,,,,,,,,,,,,,0,8,8,9,,,,,,2,1,0.766412270538,,,,,,2016_Sep_01_0845,P11,PLC_L_D1S1,NHGX,60.015476418,
stim/posf.jpg,stim/negf.jpg,stim/1.jpg,stim/3.jpg,stim/latef.jpg,EF,1,2,,,,,,,,,,,,,0,9,9,42,,,,,,2,1,0.799744878065,,,,,,2016_Sep_01_0845,P11,PLC_L_D1S1,NHGX,60.015476418,
stim/negf.jpg,stim/posf.jpg,stim/5.jpg,stim/6.jpg,stim/latef.jpg,CD,2,4,,,,,,,,,,,,,0,10,10,37,,,,,,4,1,0.749753246391,,,,,,2016_Sep_01_0845,P11,PLC_L_D1S1,NHGX,60.015476418,
stim/posf.jpg,stim/negf.jpg,stim/4.jpg,stim/2.jpg,stim/latef.jpg,AB,1,2,,,,,,,,,,,,,0,11,11,5,,,,,,2,1,0.533111957384,,,,,,2016_Sep_01_0845,P11,PLC_L_D1S1,NHGX,60.015476418,
stim/posf.jpg,stim/negf.jpg,stim/2.jpg,stim/4.jpg,stim/latef.jpg,AB,2,4,,,,,,,,,,,,,0,12,12,15,,,,,,4,1,0.599792411364,,,,,,2016_Sep_01_0845,P11,PLC_L_D1S1,NHGX,60.015476418,
stim/posf.jpg,stim/negf.jpg,stim/4.jpg,stim/2.jpg,stim/latef.jpg,AB,1,2,,,,,,,,,,,,,0,13,13,7,,,,,,2,1,0.649765901888,,,,,,2016_Sep_01_0845,P11,PLC_L_D1S1,NHGX,60.015476418,
stim/negf.jpg,stim/posf.jpg,stim/4.jpg,stim/2.jpg,stim/latef.jpg,AB,1,2,,,,,,,,,,,,,0,14,14,8,,,,,,2,1,0.599848164118,,,,,,2016_Sep_01_0845,P11,PLC_L_D1S1,NHGX,60.015476418,
stim/posf.jpg,stim/negf.jpg,stim/5.jpg,stim/6.jpg,stim/latef.jpg,CD,2,4,,,,,,,,,,,,,0,15,15,36,,,,,,4,1,0.84971189949,,,,,,2016_Sep_01_0845,P11,PLC_L_D1S1,NHGX,60.015476418,
stim/posf.jpg,stim/negf.jpg,stim/6.jpg,stim/5.jpg,stim/latef.jpg,CD,1,2,,,,,,,,,,,,,0,16,16,23,,,,,,2,1,0.64980221426,,,,,,2016_Sep_01_0845,P11,PLC_L_D1S1,NHGX,60.015476418,
stim/posf.jpg,stim/negf.jpg,stim/5.jpg,stim/6.jpg,stim/latef.jpg,CD,2,4,,,,,,,,,,,,,0,17,17,32,,,,,,4,1,0.566515225768,,,,,,2016_Sep_01_0845,P11,PLC_L_D1S1,NHGX,60.015476418,
stim/negf.jpg,stim/posf.jpg,stim/2.jpg,stim/4.jpg,stim/latef.jpg,AB,2,4,,,,,,,,,,,,,0,18,18,19,,,,,,4,1,0.583173104063,,,,,,2016_Sep_01_0845,P11,PLC_L_D1S1,NHGX,60.015476418,
stim/posf.jpg,stim/negf.jpg,stim/4.jpg,stim/2.jpg,stim/latef.jpg,AB,1,2,,,,,,,,,,,,,0,19,19,1,,,,,,2,1,0.566461755695,,,,,,2016_Sep_01_0845,P11,PLC_L_D1S1,NHGX,60.015476418,
stim/posf.jpg,stim/negf.jpg,stim/2.jpg,stim/4.jpg,stim/latef.jpg,AB,2,4,,,,,,,,,,,,,0,20,20,10,,,,,,4,1,0.716436238689,,,,,,2016_Sep_01_0845,P11,PLC_L_D1S1,NHGX,60.015476418,
stim/negf.jpg,stim/posf.jpg,stim/3.jpg,stim/1.jpg,stim/latef.jpg,EF,2,4,,,,,,,,,,,,,0,21,21,57,,,,,,4,1,0.633097479352,,,,,,2016_Sep_01_0845,P11,PLC_L_D1S1,NHGX,60.015476418,
stim/negf.jpg,stim/posf.jpg,stim/6.jpg,stim/5.jpg,stim/latef.jpg,CD,1,2,,,,,,,,,,,,,0,22,22,29,,,,,,2,1,0.599781939301,,,,,,2016_Sep_01_0845,P11,PLC_L_D1S1,NHGX,60.015476418,
stim/posf.jpg,stim/negf.jpg,stim/5.jpg,stim/6.jpg,stim/latef.jpg,CD,2,4,,,,,,,,,,,,,0,23,23,33,,,,,,4,1,0.583185780612,,,,,,2016_Sep_01_0845,P11,PLC_L_D1S1,NHGX,60.015476418,
stim/posf.jpg,stim/negf.jpg,stim/1.jpg,stim/3.jpg,stim/latef.jpg,EF,1,2,,,,,,,,,,,,,0,24,24,45,,,,,,2,1,0.833063488757,,,,,,2016_Sep_01_0845,P11,PLC_L_D1S1,NHGX,60.015476418,
stim/posf.jpg,stim/negf.jpg,stim/5.jpg,stim/6.jpg,stim/latef.jpg,CD,2,4,,,,,,,,,,,,,0,25,25,30,,,,,,4,1,0.549812385574,,,,,,2016_Sep_01_0845,P11,PLC_L_D1S1,NHGX,60.015476418,
stim/posf.jpg,stim/negf.jpg,stim/1.jpg,stim/3.jpg,stim/latef.jpg,EF,1,2,,,,,,,,,,,,,0,26,26,44,,,,,,2,1,0.749749817859,,,,,,2016_Sep_01_0845,P11,PLC_L_D1S1,NHGX,60.015476418,
stim/posf.jpg,stim/negf.jpg,stim/4.jpg,stim/2.jpg,stim/latef.jpg,AB,1,2,,,,,,,,,,,,,0,27,27,4,,,,,,2,1,0.716475567569,,,,,,2016_Sep_01_0845,P11,PLC_L_D1S1,NHGX,60.015476418,
stim/posf.jpg,stim/negf.jpg,stim/6.jpg,stim/5.jpg,stim/latef.jpg,CD,1,2,,,,,,,,,,,,,0,28,28,21,,,,,,2,1,0.783055992601,,,,,,2016_Sep_01_0845,P11,PLC_L_D1S1,NHGX,60.015476418,
stim/posf.jpg,stim/negf.jpg,stim/2.jpg,stim/4.jpg,stim/latef.jpg,AB,2,4,,,,,,,,,,,,,0,29,29,14,,,,,,4,1,0.666449307714,,,,,,2016_Sep_01_0845,P11,PLC_L_D1S1,NHGX,60.015476418,
stim/posf.jpg,stim/negf.jpg,stim/5.jpg,stim/6.jpg,stim/latef.jpg,CD,2,4,,,,,,,,,,,,,0,30,30,35,,,,,,4,1,0.849693478644,,,,,,2016_Sep_01_0845,P11,PLC_L_D1S1,NHGX,60.015476418,
stim/posf.jpg,stim/negf.jpg,stim/3.jpg,stim/1.jpg,stim/latef.jpg,EF,2,4,,,,,,,,,,,,,0,31,31,52,,,,,,4,1,0.749742816434,,,,,,2016_Sep_01_0845,P11,PLC_L_D1S1,NHGX,60.015476418,
stim/negf.jpg,stim/posf.jpg,stim/3.jpg,stim/1.jpg,stim/latef.jpg,EF,2,4,,,,,,,,,,,,,0,32,32,56,,,,,,4,1,0.733032776322,,,,,,2016_Sep_01_0845,P11,PLC_L_D1S1,NHGX,60.015476418,
stim/posf.jpg,stim/negf.jpg,stim/2.jpg,stim/4.jpg,stim/latef.jpg,AB,2,4,,,,,,,,,,,,,0,33,33,13,,,,,,4,1,0.683105086785,,,,,,2016_Sep_01_0845,P11,PLC_L_D1S1,NHGX,60.015476418,
stim/posf.jpg,stim/negf.jpg,stim/4.jpg,stim/2.jpg,stim/latef.jpg,AB,1,2,,,,,,,,,,,,,0,34,34,0,,,,,,2,1,0.749750431386,,,,,,2016_Sep_01_0845,P11,PLC_L_D1S1,NHGX,60.015476418,
stim/posf.jpg,stim/negf.jpg,stim/2.jpg,stim/4.jpg,stim/latef.jpg,AB,2,4,,,,,,,,,,,,,0,35,35,17,,,,,,4,1,0.833050866343,,,,,,2016_Sep_01_0845,P11,PLC_L_D1S1,NHGX,60.015476418,
stim/negf.jpg,stim/posf.jpg,stim/3.jpg,stim/1.jpg,stim/latef.jpg,EF,2,4,,,,,,,,,,,,,0,36,36,59,,,,,,4,1,1.01633928941,,,,,,2016_Sep_01_0845,P11,PLC_L_D1S1,NHGX,60.015476418,
stim/posf.jpg,stim/negf.jpg,stim/2.jpg,stim/4.jpg,stim/latef.jpg,AB,2,4,,,,,,,,,,,,,0,37,37,11,,,,,,4,1,0.683158944824,,,,,,2016_Sep_01_0845,P11,PLC_L_D1S1,NHGX,60.015476418,
stim/negf.jpg,stim/posf.jpg,stim/2.jpg,stim/4.jpg,stim/latef.jpg,AB,2,4,,,,,,,,,,,,,0,38,38,18,,,,,,4,1,0.649717216724,,,,,,2016_Sep_01_0845,P11,PLC_L_D1S1,NHGX,60.015476418,
stim/posf.jpg,stim/negf.jpg,stim/6.jpg,stim/5.jpg,stim/latef.jpg,CD,1,2,,,,,,,,,,,,,0,39,39,24,,,,,,2,1,1.18287994346,,,,,,2016_Sep_01_0845,P11,PLC_L_D1S1,NHGX,60.015476418,
stim/negf.jpg,stim/posf.jpg,stim/6.jpg,stim/5.jpg,stim/latef.jpg,CD,1,2,,,,,,,,,,,,,0,40,40,28,,,,,,2,1,0.9329859167,,,,,,2016_Sep_01_0845,P11,PLC_L_D1S1,NHGX,60.015476418,
stim/posf.jpg,stim/negf.jpg,stim/1.jpg,stim/3.jpg,stim/latef.jpg,EF,1,2,,,,,,,,,,,,,0,41,41,43,,,,,,2,1,0.983005376632,,,,,,2016_Sep_01_0845,P11,PLC_L_D1S1,NHGX,60.015476418,
stim/posf.jpg,stim/negf.jpg,stim/3.jpg,stim/1.jpg,stim/latef.jpg,EF,2,4,,,,,,,,,,,,,0,42,42,53,,,,,,4,1,0.7663558411,,,,,,2016_Sep_01_0845,P11,PLC_L_D1S1,NHGX,60.015476418,
stim/posf.jpg,stim/negf.jpg,stim/2.jpg,stim/4.jpg,stim/latef.jpg,AB,2,4,,,,,,,,,,,,,0,43,43,16,,,,,,4,1,0.616468788698,,,,,,2016_Sep_01_0845,P11,PLC_L_D1S1,NHGX,60.015476418,
stim/posf.jpg,stim/negf.jpg,stim/6.jpg,stim/5.jpg,stim/latef.jpg,CD,1,2,,,,,,,,,,,,,0,44,44,20,,,,,,2,1,0.766405861587,,,,,,2016_Sep_01_0845,P11,PLC_L_D1S1,NHGX,60.015476418,
stim/negf.jpg,stim/posf.jpg,stim/5.jpg,stim/6.jpg,stim/latef.jpg,CD,2,4,,,,,,,,,,,,,0,45,45,38,,,,,,4,1,0.649768692834,,,,,,2016_Sep_01_0845,P11,PLC_L_D1S1,NHGX,60.015476418,
stim/posf.jpg,stim/negf.jpg,stim/4.jpg,stim/2.jpg,stim/latef.jpg,AB,1,2,,,,,,,,,,,,,0,46,46,3,,,,,,2,1,0.83304601527,,,,,,2016_Sep_01_0845,P11,PLC_L_D1S1,NHGX,60.015476418,
stim/negf.jpg,stim/posf.jpg,stim/1.jpg,stim/3.jpg,stim/latef.jpg,EF,1,2,,,,,,,,,,,,,0,47,47,46,,,,,,2,1,0.816400175938,,,,,,2016_Sep_01_0845,P11,PLC_L_D1S1,NHGX,60.015476418,
stim/posf.jpg,stim/negf.jpg,stim/6.jpg,stim/5.jpg,stim/latef.jpg,CD,1,2,,,,,,,,,,,,,0,48,48,22,,,,,,2,1,0.833062833126,,,,,,2016_Sep_01_0845,P11,PLC_L_D1S1,NHGX,60.015476418,
stim/posf.jpg,stim/negf.jpg,stim/3.jpg,stim/1.jpg,stim/latef.jpg,EF,2,4,,,,,,,,,,,,,0,49,49,55,,,,,,2,0,0.799738823998,,,,,,2016_Sep_01_0845,P11,PLC_L_D1S1,NHGX,60.015476418,
stim/posf.jpg,stim/negf.jpg,stim/4.jpg,stim/2.jpg,stim/latef.jpg,AB,1,2,,,,,,,,,,,,,0,50,50,6,,,,,,2,1,0.699768047729,,,,,,2016_Sep_01_0845,P11,PLC_L_D1S1,NHGX,60.015476418,
stim/negf.jpg,stim/posf.jpg,stim/1.jpg,stim/3.jpg,stim/latef.jpg,EF,1,2,,,,,,,,,,,,,0,51,51,47,,,,,,2,1,0.699772387529,,,,,,2016_Sep_01_0845,P11,PLC_L_D1S1,NHGX,60.015476418,
stim/negf.jpg,stim/posf.jpg,stim/1.jpg,stim/3.jpg,stim/latef.jpg,EF,1,2,,,,,,,,,,,,,0,52,52,48,,,,,,2,1,0.783086978719,,,,,,2016_Sep_01_0845,P11,PLC_L_D1S1,NHGX,60.015476418,
stim/posf.jpg,stim/negf.jpg,stim/3.jpg,stim/1.jpg,stim/latef.jpg,EF,2,4,,,,,,,,,,,,,0,53,53,50,,,,,,4,1,0.999625913993,,,,,,2016_Sep_01_0845,P11,PLC_L_D1S1,NHGX,60.015476418,
stim/posf.jpg,stim/negf.jpg,stim/4.jpg,stim/2.jpg,stim/latef.jpg,AB,1,2,,,,,,,,,,,,,0,54,54,2,,,,,,2,1,0.58310612136,,,,,,2016_Sep_01_0845,P11,PLC_L_D1S1,NHGX,60.015476418,
stim/posf.jpg,stim/negf.jpg,stim/3.jpg,stim/1.jpg,stim/latef.jpg,EF,2,4,,,,,,,,,,,,,0,55,55,51,,,,,,2,0,0.716445922791,,,,,,2016_Sep_01_0845,P11,PLC_L_D1S1,NHGX,60.015476418,
stim/negf.jpg,stim/posf.jpg,stim/3.jpg,stim/1.jpg,stim/latef.jpg,EF,2,4,,,,,,,,,,,,,0,56,56,58,,,,,,4,1,0.683107709311,,,,,,2016_Sep_01_0845,P11,PLC_L_D1S1,NHGX,60.015476418,
stim/posf.jpg,stim/negf.jpg,stim/1.jpg,stim/3.jpg,stim/latef.jpg,EF,1,2,,,,,,,,,,,,,0,57,57,40,,,,,,2,1,0.883029580869,,,,,,2016_Sep_01_0845,P11,PLC_L_D1S1,NHGX,60.015476418,
stim/posf.jpg,stim/negf.jpg,stim/2.jpg,stim/4.jpg,stim/latef.jpg,AB,2,4,,,,,,,,,,,,,0,58,58,12,,,,,,4,1,0.899734384951,,,,,,2016_Sep_01_0845,P11,PLC_L_D1S1,NHGX,60.015476418,
stim/posf.jpg,stim/negf.jpg,stim/5.jpg,stim/6.jpg,stim/latef.jpg,CD,2,4,,,,,,,,,,,,,0,59,59,34,,,,,,4,1,0.933003639809,,,,,,2016_Sep_01_0845,P11,PLC_L_D1S1,NHGX,60.015476418,
