fb_corr,fb_incorr,symbol2,symbol1,fb_late,pair,position,correct,block_01.thisRepN,block_01.thisTrialN,block_01.thisN,block_01.thisIndex,block_02.thisRepN,block_02.thisTrialN,block_02.thisN,block_02.thisIndex,block_03.thisRepN,block_03.thisTrialN,block_03.thisN,block_03.thisIndex,block_04.thisRepN,block_04.thisTrialN,block_04.thisN,block_04.thisIndex,mouse.x,mouse.y,mouse.leftButton,mouse.midButton,mouse.rightButton,buttonBox_2.keys,buttonBox_2.corr,buttonBox_2.rt,mouse_2.x,mouse_2.y,mouse_2.leftButton,mouse_2.midButton,mouse_2.rightButton,date,Participant,expName,Group,frameRate,
,,,,,,,,,,,,,,,,,,,,,,,,0.9984375,0.98828125,1,0,0,,,,,,,,,2016_Sep_12_1055,P12,PLC_L_D1S1,NHGX,60.0245801064,
stim/posf.jpg,stim/negf.jpg,stim/1.jpg,stim/4.jpg,stim/latef.jpg,AB,1,2,0,0,0,1,,,,,,,,,,,,,,,,,,4,0,1.24967929865,,,,,,2016_Sep_12_1055,P12,PLC_L_D1S1,NHGX,60.0245801064,
stim/negf.jpg,stim/posf.jpg,stim/3.jpg,stim/6.jpg,stim/latef.jpg,EF,2,4,0,1,1,57,,,,,,,,,,,,,,,,,,2,0,1.34956347997,,,,,,2016_Sep_12_1055,P12,PLC_L_D1S1,NHGX,60.0245801064,
stim/negf.jpg,stim/posf.jpg,stim/2.jpg,stim/5.jpg,stim/latef.jpg,CD,2,4,0,2,2,39,,,,,,,,,,,,,,,,,,2,0,1.28290626386,,,,,,2016_Sep_12_1055,P12,PLC_L_D1S1,NHGX,60.0245801064,
stim/negf.jpg,stim/posf.jpg,stim/6.jpg,stim/3.jpg,stim/latef.jpg,EF,1,2,0,3,3,46,,,,,,,,,,,,,,,,,,4,0,1.31622859377,,,,,,2016_Sep_12_1055,P12,PLC_L_D1S1,NHGX,60.0245801064,
stim/posf.jpg,stim/negf.jpg,stim/4.jpg,stim/1.jpg,stim/latef.jpg,AB,2,4,0,4,4,14,,,,,,,,,,,,,,,,,,2,0,1.51615290712,,,,,,2016_Sep_12_1055,P12,PLC_L_D1S1,NHGX,60.0245801064,
stim/posf.jpg,stim/negf.jpg,stim/6.jpg,stim/3.jpg,stim/latef.jpg,EF,1,2,0,5,5,40,,,,,,,,,,,,,,,,,,None,0,,,,,,,2016_Sep_12_1055,P12,PLC_L_D1S1,NHGX,60.0245801064,
stim/posf.jpg,stim/negf.jpg,stim/5.jpg,stim/2.jpg,stim/latef.jpg,CD,1,2,0,6,6,20,,,,,,,,,,,,,,,,,,2,1,0.949700008271,,,,,,2016_Sep_12_1055,P12,PLC_L_D1S1,NHGX,60.0245801064,
stim/negf.jpg,stim/posf.jpg,stim/3.jpg,stim/6.jpg,stim/latef.jpg,EF,2,4,0,7,7,56,,,,,,,,,,,,,,,,,,2,0,0.816356295065,,,,,,2016_Sep_12_1055,P12,PLC_L_D1S1,NHGX,60.0245801064,
stim/negf.jpg,stim/posf.jpg,stim/6.jpg,stim/3.jpg,stim/latef.jpg,EF,1,2,0,8,8,49,,,,,,,,,,,,,,,,,,4,0,0.899707232276,,,,,,2016_Sep_12_1055,P12,PLC_L_D1S1,NHGX,60.0245801064,
stim/posf.jpg,stim/negf.jpg,stim/5.jpg,stim/2.jpg,stim/latef.jpg,CD,1,2,0,9,9,23,,,,,,,,,,,,,,,,,,2,1,1.23292586372,,,,,,2016_Sep_12_1055,P12,PLC_L_D1S1,NHGX,60.0245801064,
stim/negf.jpg,stim/posf.jpg,stim/6.jpg,stim/3.jpg,stim/latef.jpg,EF,1,2,0,10,10,48,,,,,,,,,,,,,,,,,,4,0,1.09963938617,,,,,,2016_Sep_12_1055,P12,PLC_L_D1S1,NHGX,60.0245801064,
stim/negf.jpg,stim/posf.jpg,stim/4.jpg,stim/1.jpg,stim/latef.jpg,AB,2,4,0,11,11,18,,,,,,,,,,,,,,,,,,2,0,1.23292068781,,,,,,2016_Sep_12_1055,P12,PLC_L_D1S1,NHGX,60.0245801064,
stim/posf.jpg,stim/negf.jpg,stim/4.jpg,stim/1.jpg,stim/latef.jpg,AB,2,4,0,12,12,10,,,,,,,,,,,,,,,,,,2,0,1.23290117518,,,,,,2016_Sep_12_1055,P12,PLC_L_D1S1,NHGX,60.0245801064,
stim/posf.jpg,stim/negf.jpg,stim/4.jpg,stim/1.jpg,stim/latef.jpg,AB,2,4,0,13,13,11,,,,,,,,,,,,,,,,,,4,1,0.94968099488,,,,,,2016_Sep_12_1055,P12,PLC_L_D1S1,NHGX,60.0245801064,
stim/posf.jpg,stim/negf.jpg,stim/2.jpg,stim/5.jpg,stim/latef.jpg,CD,2,4,0,14,14,30,,,,,,,,,,,,,,,,,,4,1,1.09962398779,,,,,,2016_Sep_12_1055,P12,PLC_L_D1S1,NHGX,60.0245801064,
stim/posf.jpg,stim/negf.jpg,stim/4.jpg,stim/1.jpg,stim/latef.jpg,AB,2,4,0,15,15,16,,,,,,,,,,,,,,,,,,4,1,1.33290109398,,,,,,2016_Sep_12_1055,P12,PLC_L_D1S1,NHGX,60.0245801064,
stim/posf.jpg,stim/negf.jpg,stim/3.jpg,stim/6.jpg,stim/latef.jpg,EF,2,4,0,16,16,53,,,,,,,,,,,,,,,,,,2,0,0.716414381846,,,,,,2016_Sep_12_1055,P12,PLC_L_D1S1,NHGX,60.0245801064,
stim/posf.jpg,stim/negf.jpg,stim/1.jpg,stim/4.jpg,stim/latef.jpg,AB,1,2,0,17,17,6,,,,,,,,,,,,,,,,,,4,0,1.54948251818,,,,,,2016_Sep_12_1055,P12,PLC_L_D1S1,NHGX,60.0245801064,
stim/posf.jpg,stim/negf.jpg,stim/6.jpg,stim/3.jpg,stim/latef.jpg,EF,1,2,0,18,18,44,,,,,,,,,,,,,,,,,,4,0,1.09958675499,,,,,,2016_Sep_12_1055,P12,PLC_L_D1S1,NHGX,60.0245801064,
stim/posf.jpg,stim/negf.jpg,stim/5.jpg,stim/2.jpg,stim/latef.jpg,CD,1,2,0,19,19,25,,,,,,,,,,,,,,,,,,2,1,1.23293593281,,,,,,2016_Sep_12_1055,P12,PLC_L_D1S1,NHGX,60.0245801064,
stim/posf.jpg,stim/negf.jpg,stim/2.jpg,stim/5.jpg,stim/latef.jpg,CD,2,4,0,20,20,36,,,,,,,,,,,,,,,,,,4,1,1.09963221028,,,,,,2016_Sep_12_1055,P12,PLC_L_D1S1,NHGX,60.0245801064,
stim/posf.jpg,stim/negf.jpg,stim/5.jpg,stim/2.jpg,stim/latef.jpg,CD,1,2,0,21,21,21,,,,,,,,,,,,,,,,,,2,1,1.26625200713,,,,,,2016_Sep_12_1055,P12,PLC_L_D1S1,NHGX,60.0245801064,
stim/posf.jpg,stim/negf.jpg,stim/6.jpg,stim/3.jpg,stim/latef.jpg,EF,1,2,0,22,22,43,,,,,,,,,,,,,,,,,,4,0,1.1829519357,,,,,,2016_Sep_12_1055,P12,PLC_L_D1S1,NHGX,60.0245801064,
stim/posf.jpg,stim/negf.jpg,stim/2.jpg,stim/5.jpg,stim/latef.jpg,CD,2,4,0,23,23,35,,,,,,,,,,,,,,,,,,4,1,1.06623487041,,,,,,2016_Sep_12_1055,P12,PLC_L_D1S1,NHGX,60.0245801064,
stim/posf.jpg,stim/negf.jpg,stim/3.jpg,stim/6.jpg,stim/latef.jpg,EF,2,4,0,24,24,50,,,,,,,,,,,,,,,,,,2,0,0.883044741017,,,,,,2016_Sep_12_1055,P12,PLC_L_D1S1,NHGX,60.0245801064,
stim/posf.jpg,stim/negf.jpg,stim/2.jpg,stim/5.jpg,stim/latef.jpg,CD,2,4,0,25,25,32,,,,,,,,,,,,,,,,,,4,1,0.99970168946,,,,,,2016_Sep_12_1055,P12,PLC_L_D1S1,NHGX,60.0245801064,
stim/posf.jpg,stim/negf.jpg,stim/1.jpg,stim/4.jpg,stim/latef.jpg,AB,1,2,0,26,26,0,,,,,,,,,,,,,,,,,,4,0,1.23290542477,,,,,,2016_Sep_12_1055,P12,PLC_L_D1S1,NHGX,60.0245801064,
stim/negf.jpg,stim/posf.jpg,stim/3.jpg,stim/6.jpg,stim/latef.jpg,EF,2,4,0,27,27,58,,,,,,,,,,,,,,,,,,2,0,1.09963857715,,,,,,2016_Sep_12_1055,P12,PLC_L_D1S1,NHGX,60.0245801064,
stim/posf.jpg,stim/negf.jpg,stim/4.jpg,stim/1.jpg,stim/latef.jpg,AB,2,4,0,28,28,17,,,,,,,,,,,,,,,,,,4,1,1.43286910324,,,,,,2016_Sep_12_1055,P12,PLC_L_D1S1,NHGX,60.0245801064,
stim/negf.jpg,stim/posf.jpg,stim/5.jpg,stim/2.jpg,stim/latef.jpg,CD,1,2,0,29,29,29,,,,,,,,,,,,,,,,,,2,1,1.26626808821,,,,,,2016_Sep_12_1055,P12,PLC_L_D1S1,NHGX,60.0245801064,
stim/posf.jpg,stim/negf.jpg,stim/3.jpg,stim/6.jpg,stim/latef.jpg,EF,2,4,0,30,30,55,,,,,,,,,,,,,,,,,,4,1,1.24956687544,,,,,,2016_Sep_12_1055,P12,PLC_L_D1S1,NHGX,60.0245801064,
stim/posf.jpg,stim/negf.jpg,stim/5.jpg,stim/2.jpg,stim/latef.jpg,CD,1,2,0,31,31,26,,,,,,,,,,,,,,,,,,2,1,1.08302608853,,,,,,2016_Sep_12_1055,P12,PLC_L_D1S1,NHGX,60.0245801064,
stim/posf.jpg,stim/negf.jpg,stim/4.jpg,stim/1.jpg,stim/latef.jpg,AB,2,4,0,32,32,12,,,,,,,,,,,,,,,,,,4,1,1.66606866715,,,,,,2016_Sep_12_1055,P12,PLC_L_D1S1,NHGX,60.0245801064,
stim/negf.jpg,stim/posf.jpg,stim/1.jpg,stim/4.jpg,stim/latef.jpg,AB,1,2,0,33,33,9,,,,,,,,,,,,,,,,,,2,1,1.46616811603,,,,,,2016_Sep_12_1055,P12,PLC_L_D1S1,NHGX,60.0245801064,
stim/posf.jpg,stim/negf.jpg,stim/6.jpg,stim/3.jpg,stim/latef.jpg,EF,1,2,0,34,34,42,,,,,,,,,,,,,,,,,,4,0,1.18294798686,,,,,,2016_Sep_12_1055,P12,PLC_L_D1S1,NHGX,60.0245801064,
stim/negf.jpg,stim/posf.jpg,stim/4.jpg,stim/1.jpg,stim/latef.jpg,AB,2,4,0,35,35,19,,,,,,,,,,,,,,,,,,4,1,1.48286039353,,,,,,2016_Sep_12_1055,P12,PLC_L_D1S1,NHGX,60.0245801064,
stim/posf.jpg,stim/negf.jpg,stim/2.jpg,stim/5.jpg,stim/latef.jpg,CD,2,4,0,36,36,34,,,,,,,,,,,,,,,,,,4,1,0.916377876859,,,,,,2016_Sep_12_1055,P12,PLC_L_D1S1,NHGX,60.0245801064,
stim/negf.jpg,stim/posf.jpg,stim/3.jpg,stim/6.jpg,stim/latef.jpg,EF,2,4,0,37,37,59,,,,,,,,,,,,,,,,,,4,1,0.999602363891,,,,,,2016_Sep_12_1055,P12,PLC_L_D1S1,NHGX,60.0245801064,
stim/negf.jpg,stim/posf.jpg,stim/5.jpg,stim/2.jpg,stim/latef.jpg,CD,1,2,0,38,38,27,,,,,,,,,,,,,,,,,,2,1,1.29964412298,,,,,,2016_Sep_12_1055,P12,PLC_L_D1S1,NHGX,60.0245801064,
stim/negf.jpg,stim/posf.jpg,stim/1.jpg,stim/4.jpg,stim/latef.jpg,AB,1,2,0,39,39,8,,,,,,,,,,,,,,,,,,4,0,1.59943437719,,,,,,2016_Sep_12_1055,P12,PLC_L_D1S1,NHGX,60.0245801064,
stim/negf.jpg,stim/posf.jpg,stim/6.jpg,stim/3.jpg,stim/latef.jpg,EF,1,2,0,40,40,47,,,,,,,,,,,,,,,,,,2,1,1.38287399343,,,,,,2016_Sep_12_1055,P12,PLC_L_D1S1,NHGX,60.0245801064,
stim/negf.jpg,stim/posf.jpg,stim/5.jpg,stim/2.jpg,stim/latef.jpg,CD,1,2,0,41,41,28,,,,,,,,,,,,,,,,,,2,1,1.5494909512,,,,,,2016_Sep_12_1055,P12,PLC_L_D1S1,NHGX,60.0245801064,
stim/posf.jpg,stim/negf.jpg,stim/1.jpg,stim/4.jpg,stim/latef.jpg,AB,1,2,0,42,42,2,,,,,,,,,,,,,,,,,,4,0,1.39955196427,,,,,,2016_Sep_12_1055,P12,PLC_L_D1S1,NHGX,60.0245801064,
stim/posf.jpg,stim/negf.jpg,stim/1.jpg,stim/4.jpg,stim/latef.jpg,AB,1,2,0,43,43,4,,,,,,,,,,,,,,,,,,2,1,1.16626994384,,,,,,2016_Sep_12_1055,P12,PLC_L_D1S1,NHGX,60.0245801064,
stim/posf.jpg,stim/negf.jpg,stim/1.jpg,stim/4.jpg,stim/latef.jpg,AB,1,2,0,44,44,3,,,,,,,,,,,,,,,,,,2,1,1.14956741679,,,,,,2016_Sep_12_1055,P12,PLC_L_D1S1,NHGX,60.0245801064,
stim/posf.jpg,stim/negf.jpg,stim/4.jpg,stim/1.jpg,stim/latef.jpg,AB,2,4,0,45,45,13,,,,,,,,,,,,,,,,,,2,0,1.46618235652,,,,,,2016_Sep_12_1055,P12,PLC_L_D1S1,NHGX,60.0245801064,
stim/posf.jpg,stim/negf.jpg,stim/5.jpg,stim/2.jpg,stim/latef.jpg,CD,1,2,0,46,46,24,,,,,,,,,,,,,,,,,,2,1,1.58281026458,,,,,,2016_Sep_12_1055,P12,PLC_L_D1S1,NHGX,60.0245801064,
stim/posf.jpg,stim/negf.jpg,stim/3.jpg,stim/6.jpg,stim/latef.jpg,EF,2,4,0,47,47,52,,,,,,,,,,,,,,,,,,4,1,1.06625186578,,,,,,2016_Sep_12_1055,P12,PLC_L_D1S1,NHGX,60.0245801064,
stim/negf.jpg,stim/posf.jpg,stim/2.jpg,stim/5.jpg,stim/latef.jpg,CD,2,4,0,48,48,37,,,,,,,,,,,,,,,,,,2,0,1.58282196675,,,,,,2016_Sep_12_1055,P12,PLC_L_D1S1,NHGX,60.0245801064,
stim/posf.jpg,stim/negf.jpg,stim/6.jpg,stim/3.jpg,stim/latef.jpg,EF,1,2,0,49,49,41,,,,,,,,,,,,,,,,,,4,0,1.06635124247,,,,,,2016_Sep_12_1055,P12,PLC_L_D1S1,NHGX,60.0245801064,
stim/negf.jpg,stim/posf.jpg,stim/2.jpg,stim/5.jpg,stim/latef.jpg,CD,2,4,0,50,50,38,,,,,,,,,,,,,,,,,,2,0,1.04965232442,,,,,,2016_Sep_12_1055,P12,PLC_L_D1S1,NHGX,60.0245801064,
stim/posf.jpg,stim/negf.jpg,stim/2.jpg,stim/5.jpg,stim/latef.jpg,CD,2,4,0,51,51,31,,,,,,,,,,,,,,,,,,2,0,1.43284567184,,,,,,2016_Sep_12_1055,P12,PLC_L_D1S1,NHGX,60.0245801064,
stim/posf.jpg,stim/negf.jpg,stim/1.jpg,stim/4.jpg,stim/latef.jpg,AB,1,2,0,52,52,7,,,,,,,,,,,,,,,,,,2,1,1.61611773746,,,,,,2016_Sep_12_1055,P12,PLC_L_D1S1,NHGX,60.0245801064,
stim/posf.jpg,stim/negf.jpg,stim/4.jpg,stim/1.jpg,stim/latef.jpg,AB,2,4,0,53,53,15,,,,,,,,,,,,,,,,,,2,0,1.33286536793,,,,,,2016_Sep_12_1055,P12,PLC_L_D1S1,NHGX,60.0245801064,
stim/posf.jpg,stim/negf.jpg,stim/5.jpg,stim/2.jpg,stim/latef.jpg,CD,1,2,0,54,54,22,,,,,,,,,,,,,,,,,,2,1,1.1829544229,,,,,,2016_Sep_12_1055,P12,PLC_L_D1S1,NHGX,60.0245801064,
stim/posf.jpg,stim/negf.jpg,stim/6.jpg,stim/3.jpg,stim/latef.jpg,EF,1,2,0,55,55,45,,,,,,,,,,,,,,,,,,2,1,1.16628455425,,,,,,2016_Sep_12_1055,P12,PLC_L_D1S1,NHGX,60.0245801064,
stim/posf.jpg,stim/negf.jpg,stim/2.jpg,stim/5.jpg,stim/latef.jpg,CD,2,4,0,56,56,33,,,,,,,,,,,,,,,,,,2,0,1.34957126037,,,,,,2016_Sep_12_1055,P12,PLC_L_D1S1,NHGX,60.0245801064,
stim/posf.jpg,stim/negf.jpg,stim/1.jpg,stim/4.jpg,stim/latef.jpg,AB,1,2,0,57,57,5,,,,,,,,,,,,,,,,,,2,1,1.21627371524,,,,,,2016_Sep_12_1055,P12,PLC_L_D1S1,NHGX,60.0245801064,
stim/posf.jpg,stim/negf.jpg,stim/3.jpg,stim/6.jpg,stim/latef.jpg,EF,2,4,0,58,58,54,,,,,,,,,,,,,,,,,,4,1,0.883080476087,,,,,,2016_Sep_12_1055,P12,PLC_L_D1S1,NHGX,60.0245801064,
stim/posf.jpg,stim/negf.jpg,stim/3.jpg,stim/6.jpg,stim/latef.jpg,EF,2,4,0,59,59,51,,,,,,,,,,,,,,,,,,4,1,0.83306476192,,,,,,2016_Sep_12_1055,P12,PLC_L_D1S1,NHGX,60.0245801064,
,,,,,,,,,,,,,,,,,,,,,,,,,,,,,,,,0.9984375,0.98828125,1,0,0,2016_Sep_12_1055,P12,PLC_L_D1S1,NHGX,60.0245801064,
stim/posf.jpg,stim/negf.jpg,stim/6.jpg,stim/3.jpg,stim/latef.jpg,EF,1,2,,,,,0,0,0,41,,,,,,,,,,,,,,2,1,0.933027646409,,,,,,2016_Sep_12_1055,P12,PLC_L_D1S1,NHGX,60.0245801064,
stim/posf.jpg,stim/negf.jpg,stim/4.jpg,stim/1.jpg,stim/latef.jpg,AB,2,4,,,,,0,1,1,15,,,,,,,,,,,,,,2,0,1.14956994609,,,,,,2016_Sep_12_1055,P12,PLC_L_D1S1,NHGX,60.0245801064,
stim/posf.jpg,stim/negf.jpg,stim/1.jpg,stim/4.jpg,stim/latef.jpg,AB,1,2,,,,,0,2,2,0,,,,,,,,,,,,,,4,0,1.34955743491,,,,,,2016_Sep_12_1055,P12,PLC_L_D1S1,NHGX,60.0245801064,
stim/posf.jpg,stim/negf.jpg,stim/3.jpg,stim/6.jpg,stim/latef.jpg,EF,2,4,,,,,0,3,3,50,,,,,,,,,,,,,,4,1,1.13296119277,,,,,,2016_Sep_12_1055,P12,PLC_L_D1S1,NHGX,60.0245801064,
stim/negf.jpg,stim/posf.jpg,stim/5.jpg,stim/2.jpg,stim/latef.jpg,CD,1,2,,,,,0,4,4,27,,,,,,,,,,,,,,2,1,1.54949273464,,,,,,2016_Sep_12_1055,P12,PLC_L_D1S1,NHGX,60.0245801064,
stim/negf.jpg,stim/posf.jpg,stim/1.jpg,stim/4.jpg,stim/latef.jpg,AB,1,2,,,,,0,5,5,8,,,,,,,,,,,,,,4,0,1.1995968692,,,,,,2016_Sep_12_1055,P12,PLC_L_D1S1,NHGX,60.0245801064,
stim/negf.jpg,stim/posf.jpg,stim/1.jpg,stim/4.jpg,stim/latef.jpg,AB,1,2,,,,,0,6,6,9,,,,,,,,,,,,,,4,0,1.08297442876,,,,,,2016_Sep_12_1055,P12,PLC_L_D1S1,NHGX,60.0245801064,
stim/posf.jpg,stim/negf.jpg,stim/6.jpg,stim/3.jpg,stim/latef.jpg,EF,1,2,,,,,0,7,7,44,,,,,,,,,,,,,,2,1,1.24960086616,,,,,,2016_Sep_12_1055,P12,PLC_L_D1S1,NHGX,60.0245801064,
stim/posf.jpg,stim/negf.jpg,stim/2.jpg,stim/5.jpg,stim/latef.jpg,CD,2,4,,,,,0,8,8,32,,,,,,,,,,,,,,2,0,1.54948860535,,,,,,2016_Sep_12_1055,P12,PLC_L_D1S1,NHGX,60.0245801064,
stim/posf.jpg,stim/negf.jpg,stim/2.jpg,stim/5.jpg,stim/latef.jpg,CD,2,4,,,,,0,9,9,35,,,,,,,,,,,,,,4,1,0.683058719859,,,,,,2016_Sep_12_1055,P12,PLC_L_D1S1,NHGX,60.0245801064,
stim/negf.jpg,stim/posf.jpg,stim/6.jpg,stim/3.jpg,stim/latef.jpg,EF,1,2,,,,,0,10,10,48,,,,,,,,,,,,,,2,1,1.2329187179,,,,,,2016_Sep_12_1055,P12,PLC_L_D1S1,NHGX,60.0245801064,
stim/posf.jpg,stim/negf.jpg,stim/3.jpg,stim/6.jpg,stim/latef.jpg,EF,2,4,,,,,0,11,11,51,,,,,,,,,,,,,,4,1,1.4994792761,,,,,,2016_Sep_12_1055,P12,PLC_L_D1S1,NHGX,60.0245801064,
stim/negf.jpg,stim/posf.jpg,stim/2.jpg,stim/5.jpg,stim/latef.jpg,CD,2,4,,,,,0,12,12,39,,,,,,,,,,,,,,4,1,1.2496094285,,,,,,2016_Sep_12_1055,P12,PLC_L_D1S1,NHGX,60.0245801064,
stim/negf.jpg,stim/posf.jpg,stim/5.jpg,stim/2.jpg,stim/latef.jpg,CD,1,2,,,,,0,13,13,29,,,,,,,,,,,,,,4,0,1.06630718867,,,,,,2016_Sep_12_1055,P12,PLC_L_D1S1,NHGX,60.0245801064,
stim/negf.jpg,stim/posf.jpg,stim/6.jpg,stim/3.jpg,stim/latef.jpg,EF,1,2,,,,,0,14,14,49,,,,,,,,,,,,,,4,0,1.48283886888,,,,,,2016_Sep_12_1055,P12,PLC_L_D1S1,NHGX,60.0245801064,
stim/posf.jpg,stim/negf.jpg,stim/6.jpg,stim/3.jpg,stim/latef.jpg,EF,1,2,,,,,0,15,15,43,,,,,,,,,,,,,,4,0,0.833006624011,,,,,,2016_Sep_12_1055,P12,PLC_L_D1S1,NHGX,60.0245801064,
stim/posf.jpg,stim/negf.jpg,stim/6.jpg,stim/3.jpg,stim/latef.jpg,EF,1,2,,,,,0,16,16,42,,,,,,,,,,,,,,2,1,1.46618943316,,,,,,2016_Sep_12_1055,P12,PLC_L_D1S1,NHGX,60.0245801064,
stim/posf.jpg,stim/negf.jpg,stim/1.jpg,stim/4.jpg,stim/latef.jpg,AB,1,2,,,,,0,17,17,6,,,,,,,,,,,,,,4,0,1.59950541124,,,,,,2016_Sep_12_1055,P12,PLC_L_D1S1,NHGX,60.0245801064,
stim/posf.jpg,stim/negf.jpg,stim/4.jpg,stim/1.jpg,stim/latef.jpg,AB,2,4,,,,,0,18,18,12,,,,,,,,,,,,,,None,0,,,,,,,2016_Sep_12_1055,P12,PLC_L_D1S1,NHGX,60.0245801064,
stim/negf.jpg,stim/posf.jpg,stim/2.jpg,stim/5.jpg,stim/latef.jpg,CD,2,4,,,,,0,19,19,38,,,,,,,,,,,,,,2,0,0.866369485943,,,,,,2016_Sep_12_1055,P12,PLC_L_D1S1,NHGX,60.0245801064,
stim/posf.jpg,stim/negf.jpg,stim/2.jpg,stim/5.jpg,stim/latef.jpg,CD,2,4,,,,,0,20,20,36,,,,,,,,,,,,,,2,0,1.09963079676,,,,,,2016_Sep_12_1055,P12,PLC_L_D1S1,NHGX,60.0245801064,
stim/posf.jpg,stim/negf.jpg,stim/5.jpg,stim/2.jpg,stim/latef.jpg,CD,1,2,,,,,0,21,21,21,,,,,,,,,,,,,,4,0,1.16627807009,,,,,,2016_Sep_12_1055,P12,PLC_L_D1S1,NHGX,60.0245801064,
stim/posf.jpg,stim/negf.jpg,stim/2.jpg,stim/5.jpg,stim/latef.jpg,CD,2,4,,,,,0,22,22,31,,,,,,,,,,,,,,4,1,0.983024780265,,,,,,2016_Sep_12_1055,P12,PLC_L_D1S1,NHGX,60.0245801064,
stim/posf.jpg,stim/negf.jpg,stim/1.jpg,stim/4.jpg,stim/latef.jpg,AB,1,2,,,,,0,23,23,2,,,,,,,,,,,,,,2,1,1.63279471884,,,,,,2016_Sep_12_1055,P12,PLC_L_D1S1,NHGX,60.0245801064,
stim/posf.jpg,stim/negf.jpg,stim/1.jpg,stim/4.jpg,stim/latef.jpg,AB,1,2,,,,,0,24,24,4,,,,,,,,,,,,,,2,1,1.16617838362,,,,,,2016_Sep_12_1055,P12,PLC_L_D1S1,NHGX,60.0245801064,
stim/posf.jpg,stim/negf.jpg,stim/1.jpg,stim/4.jpg,stim/latef.jpg,AB,1,2,,,,,0,25,25,5,,,,,,,,,,,,,,2,1,1.13295201991,,,,,,2016_Sep_12_1055,P12,PLC_L_D1S1,NHGX,60.0245801064,
stim/posf.jpg,stim/negf.jpg,stim/3.jpg,stim/6.jpg,stim/latef.jpg,EF,2,4,,,,,0,26,26,55,,,,,,,,,,,,,,2,0,1.48283622228,,,,,,2016_Sep_12_1055,P12,PLC_L_D1S1,NHGX,60.0245801064,
stim/posf.jpg,stim/negf.jpg,stim/5.jpg,stim/2.jpg,stim/latef.jpg,CD,1,2,,,,,0,27,27,24,,,,,,,,,,,,,,4,0,1.16629606695,,,,,,2016_Sep_12_1055,P12,PLC_L_D1S1,NHGX,60.0245801064,
stim/posf.jpg,stim/negf.jpg,stim/2.jpg,stim/5.jpg,stim/latef.jpg,CD,2,4,,,,,0,28,28,34,,,,,,,,,,,,,,4,1,1.61612943662,,,,,,2016_Sep_12_1055,P12,PLC_L_D1S1,NHGX,60.0245801064,
stim/posf.jpg,stim/negf.jpg,stim/5.jpg,stim/2.jpg,stim/latef.jpg,CD,1,2,,,,,0,29,29,25,,,,,,,,,,,,,,2,1,1.04962129007,,,,,,2016_Sep_12_1055,P12,PLC_L_D1S1,NHGX,60.0245801064,
stim/posf.jpg,stim/negf.jpg,stim/5.jpg,stim/2.jpg,stim/latef.jpg,CD,1,2,,,,,0,30,30,23,,,,,,,,,,,,,,2,1,1.58282770205,,,,,,2016_Sep_12_1055,P12,PLC_L_D1S1,NHGX,60.0245801064,
stim/negf.jpg,stim/posf.jpg,stim/3.jpg,stim/6.jpg,stim/latef.jpg,EF,2,4,,,,,0,31,31,56,,,,,,,,,,,,,,4,1,1.63280594883,,,,,,2016_Sep_12_1055,P12,PLC_L_D1S1,NHGX,60.0245801064,
stim/posf.jpg,stim/negf.jpg,stim/4.jpg,stim/1.jpg,stim/latef.jpg,AB,2,4,,,,,0,32,32,10,,,,,,,,,,,,,,2,0,1.58281145856,,,,,,2016_Sep_12_1055,P12,PLC_L_D1S1,NHGX,60.0245801064,
stim/negf.jpg,stim/posf.jpg,stim/6.jpg,stim/3.jpg,stim/latef.jpg,EF,1,2,,,,,0,33,33,47,,,,,,,,,,,,,,4,0,1.61613710273,,,,,,2016_Sep_12_1055,P12,PLC_L_D1S1,NHGX,60.0245801064,
stim/posf.jpg,stim/negf.jpg,stim/1.jpg,stim/4.jpg,stim/latef.jpg,AB,1,2,,,,,0,34,34,7,,,,,,,,,,,,,,4,0,1.38287714829,,,,,,2016_Sep_12_1055,P12,PLC_L_D1S1,NHGX,60.0245801064,
stim/posf.jpg,stim/negf.jpg,stim/2.jpg,stim/5.jpg,stim/latef.jpg,CD,2,4,,,,,0,35,35,33,,,,,,,,,,,,,,4,1,1.48284658912,,,,,,2016_Sep_12_1055,P12,PLC_L_D1S1,NHGX,60.0245801064,
stim/negf.jpg,stim/posf.jpg,stim/3.jpg,stim/6.jpg,stim/latef.jpg,EF,2,4,,,,,0,36,36,58,,,,,,,,,,,,,,None,0,,,,,,,2016_Sep_12_1055,P12,PLC_L_D1S1,NHGX,60.0245801064,
stim/negf.jpg,stim/posf.jpg,stim/4.jpg,stim/1.jpg,stim/latef.jpg,AB,2,4,,,,,0,37,37,19,,,,,,,,,,,,,,2,0,1.33292632386,,,,,,2016_Sep_12_1055,P12,PLC_L_D1S1,NHGX,60.0245801064,
stim/posf.jpg,stim/negf.jpg,stim/4.jpg,stim/1.jpg,stim/latef.jpg,AB,2,4,,,,,0,38,38,16,,,,,,,,,,,,,,2,0,1.11630856309,,,,,,2016_Sep_12_1055,P12,PLC_L_D1S1,NHGX,60.0245801064,
stim/posf.jpg,stim/negf.jpg,stim/6.jpg,stim/3.jpg,stim/latef.jpg,EF,1,2,,,,,0,39,39,40,,,,,,,,,,,,,,4,0,1.26625152894,,,,,,2016_Sep_12_1055,P12,PLC_L_D1S1,NHGX,60.0245801064,
stim/posf.jpg,stim/negf.jpg,stim/3.jpg,stim/6.jpg,stim/latef.jpg,EF,2,4,,,,,0,40,40,54,,,,,,,,,,,,,,4,1,1.06635992812,,,,,,2016_Sep_12_1055,P12,PLC_L_D1S1,NHGX,60.0245801064,
stim/posf.jpg,stim/negf.jpg,stim/4.jpg,stim/1.jpg,stim/latef.jpg,AB,2,4,,,,,0,41,41,14,,,,,,,,,,,,,,4,1,1.44953766964,,,,,,2016_Sep_12_1055,P12,PLC_L_D1S1,NHGX,60.0245801064,
stim/negf.jpg,stim/posf.jpg,stim/6.jpg,stim/3.jpg,stim/latef.jpg,EF,1,2,,,,,0,42,42,46,,,,,,,,,,,,,,2,1,1.49949351659,,,,,,2016_Sep_12_1055,P12,PLC_L_D1S1,NHGX,60.0245801064,
stim/posf.jpg,stim/negf.jpg,stim/5.jpg,stim/2.jpg,stim/latef.jpg,CD,1,2,,,,,0,43,43,22,,,,,,,,,,,,,,2,1,1.39950626837,,,,,,2016_Sep_12_1055,P12,PLC_L_D1S1,NHGX,60.0245801064,
stim/negf.jpg,stim/posf.jpg,stim/2.jpg,stim/5.jpg,stim/latef.jpg,CD,2,4,,,,,0,44,44,37,,,,,,,,,,,,,,4,1,1.14962257427,,,,,,2016_Sep_12_1055,P12,PLC_L_D1S1,NHGX,60.0245801064,
stim/posf.jpg,stim/negf.jpg,stim/4.jpg,stim/1.jpg,stim/latef.jpg,AB,2,4,,,,,0,45,45,11,,,,,,,,,,,,,,4,1,1.39950120976,,,,,,2016_Sep_12_1055,P12,PLC_L_D1S1,NHGX,60.0245801064,
stim/negf.jpg,stim/posf.jpg,stim/3.jpg,stim/6.jpg,stim/latef.jpg,EF,2,4,,,,,0,46,46,57,,,,,,,,,,,,,,2,0,1.54947374832,,,,,,2016_Sep_12_1055,P12,PLC_L_D1S1,NHGX,60.0245801064,
stim/posf.jpg,stim/negf.jpg,stim/6.jpg,stim/3.jpg,stim/latef.jpg,EF,1,2,,,,,0,47,47,45,,,,,,,,,,,,,,4,0,0.883046280855,,,,,,2016_Sep_12_1055,P12,PLC_L_D1S1,NHGX,60.0245801064,
stim/posf.jpg,stim/negf.jpg,stim/3.jpg,stim/6.jpg,stim/latef.jpg,EF,2,4,,,,,0,48,48,53,,,,,,,,,,,,,,4,1,1.5662085067,,,,,,2016_Sep_12_1055,P12,PLC_L_D1S1,NHGX,60.0245801064,
stim/posf.jpg,stim/negf.jpg,stim/4.jpg,stim/1.jpg,stim/latef.jpg,AB,2,4,,,,,0,49,49,13,,,,,,,,,,,,,,4,1,1.61614332825,,,,,,2016_Sep_12_1055,P12,PLC_L_D1S1,NHGX,60.0245801064,
stim/posf.jpg,stim/negf.jpg,stim/5.jpg,stim/2.jpg,stim/latef.jpg,CD,1,2,,,,,0,50,50,26,,,,,,,,,,,,,,2,1,1.31620030225,,,,,,2016_Sep_12_1055,P12,PLC_L_D1S1,NHGX,60.0245801064,
stim/negf.jpg,stim/posf.jpg,stim/4.jpg,stim/1.jpg,stim/latef.jpg,AB,2,4,,,,,0,51,51,18,,,,,,,,,,,,,,None,0,,,,,,,2016_Sep_12_1055,P12,PLC_L_D1S1,NHGX,60.0245801064,
stim/posf.jpg,stim/negf.jpg,stim/5.jpg,stim/2.jpg,stim/latef.jpg,CD,1,2,,,,,0,52,52,20,,,,,,,,,,,,,,2,1,1.08299286772,,,,,,2016_Sep_12_1055,P12,PLC_L_D1S1,NHGX,60.0245801064,
stim/posf.jpg,stim/negf.jpg,stim/3.jpg,stim/6.jpg,stim/latef.jpg,EF,2,4,,,,,0,53,53,52,,,,,,,,,,,,,,2,0,1.46617454606,,,,,,2016_Sep_12_1055,P12,PLC_L_D1S1,NHGX,60.0245801064,
stim/posf.jpg,stim/negf.jpg,stim/1.jpg,stim/4.jpg,stim/latef.jpg,AB,1,2,,,,,0,54,54,3,,,,,,,,,,,,,,2,1,1.43285786423,,,,,,2016_Sep_12_1055,P12,PLC_L_D1S1,NHGX,60.0245801064,
stim/posf.jpg,stim/negf.jpg,stim/4.jpg,stim/1.jpg,stim/latef.jpg,AB,2,4,,,,,0,55,55,17,,,,,,,,,,,,,,4,1,1.44958060165,,,,,,2016_Sep_12_1055,P12,PLC_L_D1S1,NHGX,60.0245801064,
stim/negf.jpg,stim/posf.jpg,stim/3.jpg,stim/6.jpg,stim/latef.jpg,EF,2,4,,,,,0,56,56,59,,,,,,,,,,,,,,None,0,,,,,,,2016_Sep_12_1055,P12,PLC_L_D1S1,NHGX,60.0245801064,
stim/posf.jpg,stim/negf.jpg,stim/2.jpg,stim/5.jpg,stim/latef.jpg,CD,2,4,,,,,0,57,57,30,,,,,,,,,,,,,,4,1,0.883039580153,,,,,,2016_Sep_12_1055,P12,PLC_L_D1S1,NHGX,60.0245801064,
stim/posf.jpg,stim/negf.jpg,stim/1.jpg,stim/4.jpg,stim/latef.jpg,AB,1,2,,,,,0,58,58,1,,,,,,,,,,,,,,2,1,1.24957081225,,,,,,2016_Sep_12_1055,P12,PLC_L_D1S1,NHGX,60.0245801064,
stim/negf.jpg,stim/posf.jpg,stim/5.jpg,stim/2.jpg,stim/latef.jpg,CD,1,2,,,,,0,59,59,28,,,,,,,,,,,,,,2,1,1.14956677017,,,,,,2016_Sep_12_1055,P12,PLC_L_D1S1,NHGX,60.0245801064,
,,,,,,,,,,,,,,,,,,,,,,,,,,,,,,,,0.9984375,0.98828125,1,0,0,2016_Sep_12_1055,P12,PLC_L_D1S1,NHGX,60.0245801064,
stim/posf.jpg,stim/negf.jpg,stim/1.jpg,stim/4.jpg,stim/latef.jpg,AB,1,2,,,,,,,,,0,0,0,4,,,,,,,,,,2,1,0.966343068097,,,,,,2016_Sep_12_1055,P12,PLC_L_D1S1,NHGX,60.0245801064,
stim/posf.jpg,stim/negf.jpg,stim/6.jpg,stim/3.jpg,stim/latef.jpg,EF,1,2,,,,,,,,,0,1,1,42,,,,,,,,,,None,0,,,,,,,2016_Sep_12_1055,P12,PLC_L_D1S1,NHGX,60.0245801064,
stim/posf.jpg,stim/negf.jpg,stim/6.jpg,stim/3.jpg,stim/latef.jpg,EF,1,2,,,,,,,,,0,2,2,40,,,,,,,,,,2,1,1.03295460636,,,,,,2016_Sep_12_1055,P12,PLC_L_D1S1,NHGX,60.0245801064,
stim/negf.jpg,stim/posf.jpg,stim/5.jpg,stim/2.jpg,stim/latef.jpg,CD,1,2,,,,,,,,,0,3,3,29,,,,,,,,,,4,0,1.08296429651,,,,,,2016_Sep_12_1055,P12,PLC_L_D1S1,NHGX,60.0245801064,
stim/posf.jpg,stim/negf.jpg,stim/2.jpg,stim/5.jpg,stim/latef.jpg,CD,2,4,,,,,,,,,0,4,4,30,,,,,,,,,,2,0,1.24958109187,,,,,,2016_Sep_12_1055,P12,PLC_L_D1S1,NHGX,60.0245801064,
stim/posf.jpg,stim/negf.jpg,stim/4.jpg,stim/1.jpg,stim/latef.jpg,AB,2,4,,,,,,,,,0,5,5,10,,,,,,,,,,4,1,0.999673455087,,,,,,2016_Sep_12_1055,P12,PLC_L_D1S1,NHGX,60.0245801064,
stim/posf.jpg,stim/negf.jpg,stim/2.jpg,stim/5.jpg,stim/latef.jpg,CD,2,4,,,,,,,,,0,6,6,36,,,,,,,,,,4,1,1.21626432583,,,,,,2016_Sep_12_1055,P12,PLC_L_D1S1,NHGX,60.0245801064,
stim/posf.jpg,stim/negf.jpg,stim/4.jpg,stim/1.jpg,stim/latef.jpg,AB,2,4,,,,,,,,,0,7,7,14,,,,,,,,,,4,1,0.916368039338,,,,,,2016_Sep_12_1055,P12,PLC_L_D1S1,NHGX,60.0245801064,
stim/negf.jpg,stim/posf.jpg,stim/5.jpg,stim/2.jpg,stim/latef.jpg,CD,1,2,,,,,,,,,0,8,8,27,,,,,,,,,,2,1,1.08297158066,,,,,,2016_Sep_12_1055,P12,PLC_L_D1S1,NHGX,60.0245801064,
stim/posf.jpg,stim/negf.jpg,stim/4.jpg,stim/1.jpg,stim/latef.jpg,AB,2,4,,,,,,,,,0,9,9,13,,,,,,,,,,4,1,0.783078097157,,,,,,2016_Sep_12_1055,P12,PLC_L_D1S1,NHGX,60.0245801064,
stim/posf.jpg,stim/negf.jpg,stim/3.jpg,stim/6.jpg,stim/latef.jpg,EF,2,4,,,,,,,,,0,10,10,52,,,,,,,,,,4,1,1.13294559289,,,,,,2016_Sep_12_1055,P12,PLC_L_D1S1,NHGX,60.0245801064,
stim/posf.jpg,stim/negf.jpg,stim/5.jpg,stim/2.jpg,stim/latef.jpg,CD,1,2,,,,,,,,,0,11,11,21,,,,,,,,,,4,0,1.06628170315,,,,,,2016_Sep_12_1055,P12,PLC_L_D1S1,NHGX,60.0245801064,
stim/posf.jpg,stim/negf.jpg,stim/3.jpg,stim/6.jpg,stim/latef.jpg,EF,2,4,,,,,,,,,0,12,12,51,,,,,,,,,,4,1,1.116318154,,,,,,2016_Sep_12_1055,P12,PLC_L_D1S1,NHGX,60.0245801064,
stim/posf.jpg,stim/negf.jpg,stim/1.jpg,stim/4.jpg,stim/latef.jpg,AB,1,2,,,,,,,,,0,13,13,2,,,,,,,,,,2,1,0.833065167931,,,,,,2016_Sep_12_1055,P12,PLC_L_D1S1,NHGX,60.0245801064,
stim/posf.jpg,stim/negf.jpg,stim/4.jpg,stim/1.jpg,stim/latef.jpg,AB,2,4,,,,,,,,,0,14,14,17,,,,,,,,,,4,1,0.983001490215,,,,,,2016_Sep_12_1055,P12,PLC_L_D1S1,NHGX,60.0245801064,
stim/posf.jpg,stim/negf.jpg,stim/1.jpg,stim/4.jpg,stim/latef.jpg,AB,1,2,,,,,,,,,0,15,15,7,,,,,,,,,,2,1,0.933030963677,,,,,,2016_Sep_12_1055,P12,PLC_L_D1S1,NHGX,60.0245801064,
stim/posf.jpg,stim/negf.jpg,stim/5.jpg,stim/2.jpg,stim/latef.jpg,CD,1,2,,,,,,,,,0,16,16,22,,,,,,,,,,4,0,1.08300533079,,,,,,2016_Sep_12_1055,P12,PLC_L_D1S1,NHGX,60.0245801064,
stim/posf.jpg,stim/negf.jpg,stim/2.jpg,stim/5.jpg,stim/latef.jpg,CD,2,4,,,,,,,,,0,17,17,35,,,,,,,,,,4,1,0.79971268186,,,,,,2016_Sep_12_1055,P12,PLC_L_D1S1,NHGX,60.0245801064,
stim/negf.jpg,stim/posf.jpg,stim/4.jpg,stim/1.jpg,stim/latef.jpg,AB,2,4,,,,,,,,,0,18,18,18,,,,,,,,,,4,1,0.883023459974,,,,,,2016_Sep_12_1055,P12,PLC_L_D1S1,NHGX,60.0245801064,
stim/negf.jpg,stim/posf.jpg,stim/2.jpg,stim/5.jpg,stim/latef.jpg,CD,2,4,,,,,,,,,0,19,19,37,,,,,,,,,,4,1,0.933047387613,,,,,,2016_Sep_12_1055,P12,PLC_L_D1S1,NHGX,60.0245801064,
stim/posf.jpg,stim/negf.jpg,stim/6.jpg,stim/3.jpg,stim/latef.jpg,EF,1,2,,,,,,,,,0,20,20,41,,,,,,,,,,2,1,1.06631447583,,,,,,2016_Sep_12_1055,P12,PLC_L_D1S1,NHGX,60.0245801064,
stim/negf.jpg,stim/posf.jpg,stim/6.jpg,stim/3.jpg,stim/latef.jpg,EF,1,2,,,,,,,,,0,21,21,47,,,,,,,,,,2,1,1.21625791987,,,,,,2016_Sep_12_1055,P12,PLC_L_D1S1,NHGX,60.0245801064,
stim/posf.jpg,stim/negf.jpg,stim/6.jpg,stim/3.jpg,stim/latef.jpg,EF,1,2,,,,,,,,,0,22,22,43,,,,,,,,,,4,0,0.68313690273,,,,,,2016_Sep_12_1055,P12,PLC_L_D1S1,NHGX,60.0245801064,
stim/negf.jpg,stim/posf.jpg,stim/3.jpg,stim/6.jpg,stim/latef.jpg,EF,2,4,,,,,,,,,0,23,23,59,,,,,,,,,,2,0,1.1163119345,,,,,,2016_Sep_12_1055,P12,PLC_L_D1S1,NHGX,60.0245801064,
stim/negf.jpg,stim/posf.jpg,stim/6.jpg,stim/3.jpg,stim/latef.jpg,EF,1,2,,,,,,,,,0,24,24,49,,,,,,,,,,4,0,1.13296112962,,,,,,2016_Sep_12_1055,P12,PLC_L_D1S1,NHGX,60.0245801064,
stim/negf.jpg,stim/posf.jpg,stim/2.jpg,stim/5.jpg,stim/latef.jpg,CD,2,4,,,,,,,,,0,25,25,38,,,,,,,,,,2,0,1.14961346456,,,,,,2016_Sep_12_1055,P12,PLC_L_D1S1,NHGX,60.0245801064,
stim/negf.jpg,stim/posf.jpg,stim/5.jpg,stim/2.jpg,stim/latef.jpg,CD,1,2,,,,,,,,,0,26,26,28,,,,,,,,,,4,0,0.833066918294,,,,,,2016_Sep_12_1055,P12,PLC_L_D1S1,NHGX,60.0245801064,
stim/posf.jpg,stim/negf.jpg,stim/1.jpg,stim/4.jpg,stim/latef.jpg,AB,1,2,,,,,,,,,0,27,27,1,,,,,,,,,,2,1,0.816411395403,,,,,,2016_Sep_12_1055,P12,PLC_L_D1S1,NHGX,60.0245801064,
stim/negf.jpg,stim/posf.jpg,stim/6.jpg,stim/3.jpg,stim/latef.jpg,EF,1,2,,,,,,,,,0,28,28,46,,,,,,,,,,2,1,1.3662260374,,,,,,2016_Sep_12_1055,P12,PLC_L_D1S1,NHGX,60.0245801064,
stim/posf.jpg,stim/negf.jpg,stim/4.jpg,stim/1.jpg,stim/latef.jpg,AB,2,4,,,,,,,,,0,29,29,12,,,,,,,,,,4,1,1.29958556402,,,,,,2016_Sep_12_1055,P12,PLC_L_D1S1,NHGX,60.0245801064,
stim/negf.jpg,stim/posf.jpg,stim/4.jpg,stim/1.jpg,stim/latef.jpg,AB,2,4,,,,,,,,,0,30,30,19,,,,,,,,,,4,1,0.96633823505,,,,,,2016_Sep_12_1055,P12,PLC_L_D1S1,NHGX,60.0245801064,
stim/posf.jpg,stim/negf.jpg,stim/3.jpg,stim/6.jpg,stim/latef.jpg,EF,2,4,,,,,,,,,0,31,31,55,,,,,,,,,,4,1,1.23292710882,,,,,,2016_Sep_12_1055,P12,PLC_L_D1S1,NHGX,60.0245801064,
stim/negf.jpg,stim/posf.jpg,stim/3.jpg,stim/6.jpg,stim/latef.jpg,EF,2,4,,,,,,,,,0,32,32,57,,,,,,,,,,4,1,0.699753102608,,,,,,2016_Sep_12_1055,P12,PLC_L_D1S1,NHGX,60.0245801064,
stim/posf.jpg,stim/negf.jpg,stim/1.jpg,stim/4.jpg,stim/latef.jpg,AB,1,2,,,,,,,,,0,33,33,3,,,,,,,,,,2,1,1.08296618822,,,,,,2016_Sep_12_1055,P12,PLC_L_D1S1,NHGX,60.0245801064,
stim/negf.jpg,stim/posf.jpg,stim/3.jpg,stim/6.jpg,stim/latef.jpg,EF,2,4,,,,,,,,,0,34,34,56,,,,,,,,,,4,1,1.51618052195,,,,,,2016_Sep_12_1055,P12,PLC_L_D1S1,NHGX,60.0245801064,
stim/posf.jpg,stim/negf.jpg,stim/4.jpg,stim/1.jpg,stim/latef.jpg,AB,2,4,,,,,,,,,0,35,35,15,,,,,,,,,,4,1,0.966338890686,,,,,,2016_Sep_12_1055,P12,PLC_L_D1S1,NHGX,60.0245801064,
stim/posf.jpg,stim/negf.jpg,stim/6.jpg,stim/3.jpg,stim/latef.jpg,EF,1,2,,,,,,,,,0,36,36,45,,,,,,,,,,4,0,1.34955014474,,,,,,2016_Sep_12_1055,P12,PLC_L_D1S1,NHGX,60.0245801064,
stim/posf.jpg,stim/negf.jpg,stim/3.jpg,stim/6.jpg,stim/latef.jpg,EF,2,4,,,,,,,,,0,37,37,54,,,,,,,,,,2,0,1.13293727416,,,,,,2016_Sep_12_1055,P12,PLC_L_D1S1,NHGX,60.0245801064,
stim/posf.jpg,stim/negf.jpg,stim/2.jpg,stim/5.jpg,stim/latef.jpg,CD,2,4,,,,,,,,,0,38,38,34,,,,,,,,,,2,0,1.08298033849,,,,,,2016_Sep_12_1055,P12,PLC_L_D1S1,NHGX,60.0245801064,
stim/posf.jpg,stim/negf.jpg,stim/3.jpg,stim/6.jpg,stim/latef.jpg,EF,2,4,,,,,,,,,0,39,39,53,,,,,,,,,,4,1,1.39945822964,,,,,,2016_Sep_12_1055,P12,PLC_L_D1S1,NHGX,60.0245801064,
stim/negf.jpg,stim/posf.jpg,stim/2.jpg,stim/5.jpg,stim/latef.jpg,CD,2,4,,,,,,,,,0,40,40,39,,,,,,,,,,2,0,1.51617090398,,,,,,2016_Sep_12_1055,P12,PLC_L_D1S1,NHGX,60.0245801064,
stim/negf.jpg,stim/posf.jpg,stim/3.jpg,stim/6.jpg,stim/latef.jpg,EF,2,4,,,,,,,,,0,41,41,58,,,,,,,,,,4,1,1.33290036015,,,,,,2016_Sep_12_1055,P12,PLC_L_D1S1,NHGX,60.0245801064,
stim/posf.jpg,stim/negf.jpg,stim/5.jpg,stim/2.jpg,stim/latef.jpg,CD,1,2,,,,,,,,,0,42,42,26,,,,,,,,,,2,1,1.01634000947,,,,,,2016_Sep_12_1055,P12,PLC_L_D1S1,NHGX,60.0245801064,
stim/posf.jpg,stim/negf.jpg,stim/2.jpg,stim/5.jpg,stim/latef.jpg,CD,2,4,,,,,,,,,0,43,43,31,,,,,,,,,,None,0,,,,,,,2016_Sep_12_1055,P12,PLC_L_D1S1,NHGX,60.0245801064,
stim/posf.jpg,stim/negf.jpg,stim/2.jpg,stim/5.jpg,stim/latef.jpg,CD,2,4,,,,,,,,,0,44,44,33,,,,,,,,,,4,1,0.649831201269,,,,,,2016_Sep_12_1055,P12,PLC_L_D1S1,NHGX,60.0245801064,
stim/posf.jpg,stim/negf.jpg,stim/1.jpg,stim/4.jpg,stim/latef.jpg,AB,1,2,,,,,,,,,0,45,45,6,,,,,,,,,,2,1,1.41622335471,,,,,,2016_Sep_12_1055,P12,PLC_L_D1S1,NHGX,60.0245801064,
stim/posf.jpg,stim/negf.jpg,stim/3.jpg,stim/6.jpg,stim/latef.jpg,EF,2,4,,,,,,,,,0,46,46,50,,,,,,,,,,2,0,1.03294997481,,,,,,2016_Sep_12_1055,P12,PLC_L_D1S1,NHGX,60.0245801064,
stim/posf.jpg,stim/negf.jpg,stim/1.jpg,stim/4.jpg,stim/latef.jpg,AB,1,2,,,,,,,,,0,47,47,0,,,,,,,,,,2,1,1.41621240141,,,,,,2016_Sep_12_1055,P12,PLC_L_D1S1,NHGX,60.0245801064,
stim/posf.jpg,stim/negf.jpg,stim/4.jpg,stim/1.jpg,stim/latef.jpg,AB,2,4,,,,,,,,,0,48,48,11,,,,,,,,,,4,1,1.08298492793,,,,,,2016_Sep_12_1055,P12,PLC_L_D1S1,NHGX,60.0245801064,
stim/posf.jpg,stim/negf.jpg,stim/5.jpg,stim/2.jpg,stim/latef.jpg,CD,1,2,,,,,,,,,0,49,49,23,,,,,,,,,,2,1,1.29957186487,,,,,,2016_Sep_12_1055,P12,PLC_L_D1S1,NHGX,60.0245801064,
stim/posf.jpg,stim/negf.jpg,stim/5.jpg,stim/2.jpg,stim/latef.jpg,CD,1,2,,,,,,,,,0,50,50,24,,,,,,,,,,2,1,0.999707328516,,,,,,2016_Sep_12_1055,P12,PLC_L_D1S1,NHGX,60.0245801064,
stim/posf.jpg,stim/negf.jpg,stim/1.jpg,stim/4.jpg,stim/latef.jpg,AB,1,2,,,,,,,,,0,51,51,5,,,,,,,,,,2,1,1.09960423455,,,,,,2016_Sep_12_1055,P12,PLC_L_D1S1,NHGX,60.0245801064,
stim/posf.jpg,stim/negf.jpg,stim/6.jpg,stim/3.jpg,stim/latef.jpg,EF,1,2,,,,,,,,,0,52,52,44,,,,,,,,,,2,1,1.2828682461,,,,,,2016_Sep_12_1055,P12,PLC_L_D1S1,NHGX,60.0245801064,
stim/negf.jpg,stim/posf.jpg,stim/1.jpg,stim/4.jpg,stim/latef.jpg,AB,1,2,,,,,,,,,0,53,53,9,,,,,,,,,,2,1,1.31622128255,,,,,,2016_Sep_12_1055,P12,PLC_L_D1S1,NHGX,60.0245801064,
stim/posf.jpg,stim/negf.jpg,stim/5.jpg,stim/2.jpg,stim/latef.jpg,CD,1,2,,,,,,,,,0,54,54,25,,,,,,,,,,None,0,,,,,,,2016_Sep_12_1055,P12,PLC_L_D1S1,NHGX,60.0245801064,
stim/negf.jpg,stim/posf.jpg,stim/1.jpg,stim/4.jpg,stim/latef.jpg,AB,1,2,,,,,,,,,0,55,55,8,,,,,,,,,,2,1,1.14963113661,,,,,,2016_Sep_12_1055,P12,PLC_L_D1S1,NHGX,60.0245801064,
stim/negf.jpg,stim/posf.jpg,stim/6.jpg,stim/3.jpg,stim/latef.jpg,EF,1,2,,,,,,,,,0,56,56,48,,,,,,,,,,4,0,1.09965062518,,,,,,2016_Sep_12_1055,P12,PLC_L_D1S1,NHGX,60.0245801064,
stim/posf.jpg,stim/negf.jpg,stim/2.jpg,stim/5.jpg,stim/latef.jpg,CD,2,4,,,,,,,,,0,57,57,32,,,,,,,,,,4,1,1.11635046955,,,,,,2016_Sep_12_1055,P12,PLC_L_D1S1,NHGX,60.0245801064,
stim/posf.jpg,stim/negf.jpg,stim/5.jpg,stim/2.jpg,stim/latef.jpg,CD,1,2,,,,,,,,,0,58,58,20,,,,,,,,,,2,1,1.18285950331,,,,,,2016_Sep_12_1055,P12,PLC_L_D1S1,NHGX,60.0245801064,
stim/posf.jpg,stim/negf.jpg,stim/4.jpg,stim/1.jpg,stim/latef.jpg,AB,2,4,,,,,,,,,0,59,59,16,,,,,,,,,,4,1,1.38287437237,,,,,,2016_Sep_12_1055,P12,PLC_L_D1S1,NHGX,60.0245801064,
,,,,,,,,,,,,,,,,,,,,,,,,,,,,,,,,0.9984375,0.98828125,1,0,0,2016_Sep_12_1055,P12,PLC_L_D1S1,NHGX,60.0245801064,
stim/posf.jpg,stim/negf.jpg,stim/6.jpg,stim/3.jpg,stim/latef.jpg,EF,1,2,,,,,,,,,,,,,0,0,0,42,,,,,,2,1,1.11630441275,,,,,,2016_Sep_12_1055,P12,PLC_L_D1S1,NHGX,60.0245801064,
stim/posf.jpg,stim/negf.jpg,stim/2.jpg,stim/5.jpg,stim/latef.jpg,CD,2,4,,,,,,,,,,,,,0,1,1,33,,,,,,2,0,1.41616268449,,,,,,2016_Sep_12_1055,P12,PLC_L_D1S1,NHGX,60.0245801064,
stim/negf.jpg,stim/posf.jpg,stim/4.jpg,stim/1.jpg,stim/latef.jpg,AB,2,4,,,,,,,,,,,,,0,2,2,18,,,,,,4,1,1.24962417125,,,,,,2016_Sep_12_1055,P12,PLC_L_D1S1,NHGX,60.0245801064,
stim/negf.jpg,stim/posf.jpg,stim/3.jpg,stim/6.jpg,stim/latef.jpg,EF,2,4,,,,,,,,,,,,,0,3,3,58,,,,,,2,0,1.16627611522,,,,,,2016_Sep_12_1055,P12,PLC_L_D1S1,NHGX,60.0245801064,
stim/posf.jpg,stim/negf.jpg,stim/1.jpg,stim/4.jpg,stim/latef.jpg,AB,1,2,,,,,,,,,,,,,0,4,4,0,,,,,,2,1,0.949673861099,,,,,,2016_Sep_12_1055,P12,PLC_L_D1S1,NHGX,60.0245801064,
stim/negf.jpg,stim/posf.jpg,stim/3.jpg,stim/6.jpg,stim/latef.jpg,EF,2,4,,,,,,,,,,,,,0,5,5,56,,,,,,2,0,1.49945961008,,,,,,2016_Sep_12_1055,P12,PLC_L_D1S1,NHGX,60.0245801064,
stim/negf.jpg,stim/posf.jpg,stim/6.jpg,stim/3.jpg,stim/latef.jpg,EF,1,2,,,,,,,,,,,,,0,6,6,46,,,,,,4,0,1.16625926722,,,,,,2016_Sep_12_1055,P12,PLC_L_D1S1,NHGX,60.0245801064,
stim/posf.jpg,stim/negf.jpg,stim/3.jpg,stim/6.jpg,stim/latef.jpg,EF,2,4,,,,,,,,,,,,,0,7,7,52,,,,,,2,0,0.716410517214,,,,,,2016_Sep_12_1055,P12,PLC_L_D1S1,NHGX,60.0245801064,
stim/posf.jpg,stim/negf.jpg,stim/5.jpg,stim/2.jpg,stim/latef.jpg,CD,1,2,,,,,,,,,,,,,0,8,8,21,,,,,,2,1,1.23294274178,,,,,,2016_Sep_12_1055,P12,PLC_L_D1S1,NHGX,60.0245801064,
stim/posf.jpg,stim/negf.jpg,stim/6.jpg,stim/3.jpg,stim/latef.jpg,EF,1,2,,,,,,,,,,,,,0,9,9,45,,,,,,4,0,1.19962085699,,,,,,2016_Sep_12_1055,P12,PLC_L_D1S1,NHGX,60.0245801064,
stim/posf.jpg,stim/negf.jpg,stim/3.jpg,stim/6.jpg,stim/latef.jpg,EF,2,4,,,,,,,,,,,,,0,10,10,53,,,,,,2,0,1.38292958098,,,,,,2016_Sep_12_1055,P12,PLC_L_D1S1,NHGX,60.0245801064,
stim/posf.jpg,stim/negf.jpg,stim/5.jpg,stim/2.jpg,stim/latef.jpg,CD,1,2,,,,,,,,,,,,,0,11,11,26,,,,,,2,1,1.08297549643,,,,,,2016_Sep_12_1055,P12,PLC_L_D1S1,NHGX,60.0245801064,
stim/posf.jpg,stim/negf.jpg,stim/4.jpg,stim/1.jpg,stim/latef.jpg,AB,2,4,,,,,,,,,,,,,0,12,12,13,,,,,,2,0,1.29958358809,,,,,,2016_Sep_12_1055,P12,PLC_L_D1S1,NHGX,60.0245801064,
stim/negf.jpg,stim/posf.jpg,stim/2.jpg,stim/5.jpg,stim/latef.jpg,CD,2,4,,,,,,,,,,,,,0,13,13,38,,,,,,4,1,1.4162573334,,,,,,2016_Sep_12_1055,P12,PLC_L_D1S1,NHGX,60.0245801064,
stim/posf.jpg,stim/negf.jpg,stim/4.jpg,stim/1.jpg,stim/latef.jpg,AB,2,4,,,,,,,,,,,,,0,14,14,15,,,,,,2,0,1.53278716401,,,,,,2016_Sep_12_1055,P12,PLC_L_D1S1,NHGX,60.0245801064,
stim/posf.jpg,stim/negf.jpg,stim/6.jpg,stim/3.jpg,stim/latef.jpg,EF,1,2,,,,,,,,,,,,,0,15,15,43,,,,,,4,0,1.31621500891,,,,,,2016_Sep_12_1055,P12,PLC_L_D1S1,NHGX,60.0245801064,
stim/posf.jpg,stim/negf.jpg,stim/4.jpg,stim/1.jpg,stim/latef.jpg,AB,2,4,,,,,,,,,,,,,0,16,16,11,,,,,,2,0,1.26625121616,,,,,,2016_Sep_12_1055,P12,PLC_L_D1S1,NHGX,60.0245801064,
stim/posf.jpg,stim/negf.jpg,stim/4.jpg,stim/1.jpg,stim/latef.jpg,AB,2,4,,,,,,,,,,,,,0,17,17,12,,,,,,4,1,0.599787896332,,,,,,2016_Sep_12_1055,P12,PLC_L_D1S1,NHGX,60.0245801064,
stim/negf.jpg,stim/posf.jpg,stim/5.jpg,stim/2.jpg,stim/latef.jpg,CD,1,2,,,,,,,,,,,,,0,18,18,29,,,,,,None,0,,,,,,,2016_Sep_12_1055,P12,PLC_L_D1S1,NHGX,60.0245801064,
stim/posf.jpg,stim/negf.jpg,stim/3.jpg,stim/6.jpg,stim/latef.jpg,EF,2,4,,,,,,,,,,,,,0,19,19,55,,,,,,4,1,0.89963926587,,,,,,2016_Sep_12_1055,P12,PLC_L_D1S1,NHGX,60.0245801064,
stim/posf.jpg,stim/negf.jpg,stim/6.jpg,stim/3.jpg,stim/latef.jpg,EF,1,2,,,,,,,,,,,,,0,20,20,41,,,,,,2,1,1.14961033075,,,,,,2016_Sep_12_1055,P12,PLC_L_D1S1,NHGX,60.0245801064,
stim/posf.jpg,stim/negf.jpg,stim/1.jpg,stim/4.jpg,stim/latef.jpg,AB,1,2,,,,,,,,,,,,,0,21,21,3,,,,,,4,0,0.899699196247,,,,,,2016_Sep_12_1055,P12,PLC_L_D1S1,NHGX,60.0245801064,
stim/negf.jpg,stim/posf.jpg,stim/5.jpg,stim/2.jpg,stim/latef.jpg,CD,1,2,,,,,,,,,,,,,0,22,22,27,,,,,,2,1,0.966380767062,,,,,,2016_Sep_12_1055,P12,PLC_L_D1S1,NHGX,60.0245801064,
stim/posf.jpg,stim/negf.jpg,stim/1.jpg,stim/4.jpg,stim/latef.jpg,AB,1,2,,,,,,,,,,,,,0,23,23,7,,,,,,2,1,1.59947172127,,,,,,2016_Sep_12_1055,P12,PLC_L_D1S1,NHGX,60.0245801064,
stim/posf.jpg,stim/negf.jpg,stim/5.jpg,stim/2.jpg,stim/latef.jpg,CD,1,2,,,,,,,,,,,,,0,24,24,24,,,,,,4,0,1.03302058782,,,,,,2016_Sep_12_1055,P12,PLC_L_D1S1,NHGX,60.0245801064,
stim/negf.jpg,stim/posf.jpg,stim/2.jpg,stim/5.jpg,stim/latef.jpg,CD,2,4,,,,,,,,,,,,,0,25,25,37,,,,,,2,0,1.24964087187,,,,,,2016_Sep_12_1055,P12,PLC_L_D1S1,NHGX,60.0245801064,
stim/posf.jpg,stim/negf.jpg,stim/1.jpg,stim/4.jpg,stim/latef.jpg,AB,1,2,,,,,,,,,,,,,0,26,26,6,,,,,,2,1,1.53283597567,,,,,,2016_Sep_12_1055,P12,PLC_L_D1S1,NHGX,60.0245801064,
stim/negf.jpg,stim/posf.jpg,stim/1.jpg,stim/4.jpg,stim/latef.jpg,AB,1,2,,,,,,,,,,,,,0,27,27,9,,,,,,2,1,0.583135801986,,,,,,2016_Sep_12_1055,P12,PLC_L_D1S1,NHGX,60.0245801064,
stim/negf.jpg,stim/posf.jpg,stim/3.jpg,stim/6.jpg,stim/latef.jpg,EF,2,4,,,,,,,,,,,,,0,28,28,59,,,,,,4,1,1.31623449749,,,,,,2016_Sep_12_1055,P12,PLC_L_D1S1,NHGX,60.0245801064,
stim/negf.jpg,stim/posf.jpg,stim/6.jpg,stim/3.jpg,stim/latef.jpg,EF,1,2,,,,,,,,,,,,,0,29,29,47,,,,,,4,0,1.21626733333,,,,,,2016_Sep_12_1055,P12,PLC_L_D1S1,NHGX,60.0245801064,
stim/posf.jpg,stim/negf.jpg,stim/3.jpg,stim/6.jpg,stim/latef.jpg,EF,2,4,,,,,,,,,,,,,0,30,30,54,,,,,,2,0,1.24961985248,,,,,,2016_Sep_12_1055,P12,PLC_L_D1S1,NHGX,60.0245801064,
stim/posf.jpg,stim/negf.jpg,stim/5.jpg,stim/2.jpg,stim/latef.jpg,CD,1,2,,,,,,,,,,,,,0,31,31,25,,,,,,2,1,1.34960522101,,,,,,2016_Sep_12_1055,P12,PLC_L_D1S1,NHGX,60.0245801064,
stim/posf.jpg,stim/negf.jpg,stim/2.jpg,stim/5.jpg,stim/latef.jpg,CD,2,4,,,,,,,,,,,,,0,32,32,32,,,,,,4,1,1.31622935166,,,,,,2016_Sep_12_1055,P12,PLC_L_D1S1,NHGX,60.0245801064,
stim/posf.jpg,stim/negf.jpg,stim/4.jpg,stim/1.jpg,stim/latef.jpg,AB,2,4,,,,,,,,,,,,,0,33,33,17,,,,,,4,1,1.51618050992,,,,,,2016_Sep_12_1055,P12,PLC_L_D1S1,NHGX,60.0245801064,
stim/posf.jpg,stim/negf.jpg,stim/5.jpg,stim/2.jpg,stim/latef.jpg,CD,1,2,,,,,,,,,,,,,0,34,34,20,,,,,,2,1,1.16626255742,,,,,,2016_Sep_12_1055,P12,PLC_L_D1S1,NHGX,60.0245801064,
stim/posf.jpg,stim/negf.jpg,stim/2.jpg,stim/5.jpg,stim/latef.jpg,CD,2,4,,,,,,,,,,,,,0,35,35,30,,,,,,4,1,0.899711012699,,,,,,2016_Sep_12_1055,P12,PLC_L_D1S1,NHGX,60.0245801064,
stim/posf.jpg,stim/negf.jpg,stim/2.jpg,stim/5.jpg,stim/latef.jpg,CD,2,4,,,,,,,,,,,,,0,36,36,34,,,,,,4,1,0.649813204413,,,,,,2016_Sep_12_1055,P12,PLC_L_D1S1,NHGX,60.0245801064,
stim/posf.jpg,stim/negf.jpg,stim/1.jpg,stim/4.jpg,stim/latef.jpg,AB,1,2,,,,,,,,,,,,,0,37,37,5,,,,,,2,1,1.14962303742,,,,,,2016_Sep_12_1055,P12,PLC_L_D1S1,NHGX,60.0245801064,
stim/posf.jpg,stim/negf.jpg,stim/2.jpg,stim/5.jpg,stim/latef.jpg,CD,2,4,,,,,,,,,,,,,0,38,38,31,,,,,,4,1,0.599810127743,,,,,,2016_Sep_12_1055,P12,PLC_L_D1S1,NHGX,60.0245801064,
stim/posf.jpg,stim/negf.jpg,stim/1.jpg,stim/4.jpg,stim/latef.jpg,AB,1,2,,,,,,,,,,,,,0,39,39,1,,,,,,2,1,0.666439695942,,,,,,2016_Sep_12_1055,P12,PLC_L_D1S1,NHGX,60.0245801064,
stim/posf.jpg,stim/negf.jpg,stim/6.jpg,stim/3.jpg,stim/latef.jpg,EF,1,2,,,,,,,,,,,,,0,40,40,44,,,,,,4,0,1.13295910256,,,,,,2016_Sep_12_1055,P12,PLC_L_D1S1,NHGX,60.0245801064,
stim/posf.jpg,stim/negf.jpg,stim/3.jpg,stim/6.jpg,stim/latef.jpg,EF,2,4,,,,,,,,,,,,,0,41,41,50,,,,,,4,1,1.19955461989,,,,,,2016_Sep_12_1055,P12,PLC_L_D1S1,NHGX,60.0245801064,
stim/negf.jpg,stim/posf.jpg,stim/2.jpg,stim/5.jpg,stim/latef.jpg,CD,2,4,,,,,,,,,,,,,0,42,42,39,,,,,,4,1,1.06636672807,,,,,,2016_Sep_12_1055,P12,PLC_L_D1S1,NHGX,60.0245801064,
stim/posf.jpg,stim/negf.jpg,stim/5.jpg,stim/2.jpg,stim/latef.jpg,CD,1,2,,,,,,,,,,,,,0,43,43,22,,,,,,2,1,0.733126893783,,,,,,2016_Sep_12_1055,P12,PLC_L_D1S1,NHGX,60.0245801064,
stim/posf.jpg,stim/negf.jpg,stim/1.jpg,stim/4.jpg,stim/latef.jpg,AB,1,2,,,,,,,,,,,,,0,44,44,4,,,,,,2,1,1.29959004218,,,,,,2016_Sep_12_1055,P12,PLC_L_D1S1,NHGX,60.0245801064,
stim/negf.jpg,stim/posf.jpg,stim/6.jpg,stim/3.jpg,stim/latef.jpg,EF,1,2,,,,,,,,,,,,,0,45,45,49,,,,,,2,1,1.28282935316,,,,,,2016_Sep_12_1055,P12,PLC_L_D1S1,NHGX,60.0245801064,
stim/posf.jpg,stim/negf.jpg,stim/2.jpg,stim/5.jpg,stim/latef.jpg,CD,2,4,,,,,,,,,,,,,0,46,46,36,,,,,,4,1,1.41621033827,,,,,,2016_Sep_12_1055,P12,PLC_L_D1S1,NHGX,60.0245801064,
stim/posf.jpg,stim/negf.jpg,stim/1.jpg,stim/4.jpg,stim/latef.jpg,AB,1,2,,,,,,,,,,,,,0,47,47,2,,,,,,2,1,0.833027144156,,,,,,2016_Sep_12_1055,P12,PLC_L_D1S1,NHGX,60.0245801064,
stim/negf.jpg,stim/posf.jpg,stim/5.jpg,stim/2.jpg,stim/latef.jpg,CD,1,2,,,,,,,,,,,,,0,48,48,28,,,,,,2,1,1.13289902181,,,,,,2016_Sep_12_1055,P12,PLC_L_D1S1,NHGX,60.0245801064,
stim/negf.jpg,stim/posf.jpg,stim/1.jpg,stim/4.jpg,stim/latef.jpg,AB,1,2,,,,,,,,,,,,,0,49,49,8,,,,,,2,1,0.833070593454,,,,,,2016_Sep_12_1055,P12,PLC_L_D1S1,NHGX,60.0245801064,
stim/posf.jpg,stim/negf.jpg,stim/3.jpg,stim/6.jpg,stim/latef.jpg,EF,2,4,,,,,,,,,,,,,0,50,50,51,,,,,,4,1,1.34955467403,,,,,,2016_Sep_12_1055,P12,PLC_L_D1S1,NHGX,60.0245801064,
stim/posf.jpg,stim/negf.jpg,stim/6.jpg,stim/3.jpg,stim/latef.jpg,EF,1,2,,,,,,,,,,,,,0,51,51,40,,,,,,2,1,1.51617437764,,,,,,2016_Sep_12_1055,P12,PLC_L_D1S1,NHGX,60.0245801064,
stim/posf.jpg,stim/negf.jpg,stim/2.jpg,stim/5.jpg,stim/latef.jpg,CD,2,4,,,,,,,,,,,,,0,52,52,35,,,,,,4,1,1.16633493282,,,,,,2016_Sep_12_1055,P12,PLC_L_D1S1,NHGX,60.0245801064,
stim/posf.jpg,stim/negf.jpg,stim/4.jpg,stim/1.jpg,stim/latef.jpg,AB,2,4,,,,,,,,,,,,,0,53,53,16,,,,,,4,1,1.56616237171,,,,,,2016_Sep_12_1055,P12,PLC_L_D1S1,NHGX,60.0245801064,
stim/posf.jpg,stim/negf.jpg,stim/4.jpg,stim/1.jpg,stim/latef.jpg,AB,2,4,,,,,,,,,,,,,0,54,54,14,,,,,,4,1,1.26625988075,,,,,,2016_Sep_12_1055,P12,PLC_L_D1S1,NHGX,60.0245801064,
stim/negf.jpg,stim/posf.jpg,stim/3.jpg,stim/6.jpg,stim/latef.jpg,EF,2,4,,,,,,,,,,,,,0,55,55,57,,,,,,4,1,1.16624696656,,,,,,2016_Sep_12_1055,P12,PLC_L_D1S1,NHGX,60.0245801064,
stim/posf.jpg,stim/negf.jpg,stim/5.jpg,stim/2.jpg,stim/latef.jpg,CD,1,2,,,,,,,,,,,,,0,56,56,23,,,,,,2,1,0.949682249006,,,,,,2016_Sep_12_1055,P12,PLC_L_D1S1,NHGX,60.0245801064,
stim/negf.jpg,stim/posf.jpg,stim/4.jpg,stim/1.jpg,stim/latef.jpg,AB,2,4,,,,,,,,,,,,,0,57,57,19,,,,,,4,1,1.01632709829,,,,,,2016_Sep_12_1055,P12,PLC_L_D1S1,NHGX,60.0245801064,
stim/posf.jpg,stim/negf.jpg,stim/4.jpg,stim/1.jpg,stim/latef.jpg,AB,2,4,,,,,,,,,,,,,0,58,58,10,,,,,,2,0,0.716499087976,,,,,,2016_Sep_12_1055,P12,PLC_L_D1S1,NHGX,60.0245801064,
stim/negf.jpg,stim/posf.jpg,stim/6.jpg,stim/3.jpg,stim/latef.jpg,EF,1,2,,,,,,,,,,,,,0,59,59,48,,,,,,4,0,1.24964080571,,,,,,2016_Sep_12_1055,P12,PLC_L_D1S1,NHGX,60.0245801064,
