fb_corr,fb_incorr,symbol2,symbol1,fb_late,pair,position,correct,block_01.thisRepN,block_01.thisTrialN,block_01.thisN,block_01.thisIndex,block_02.thisRepN,block_02.thisTrialN,block_02.thisN,block_02.thisIndex,block_03.thisRepN,block_03.thisTrialN,block_03.thisN,block_03.thisIndex,block_04.thisRepN,block_04.thisTrialN,block_04.thisN,block_04.thisIndex,mouse.x,mouse.y,mouse.leftButton,mouse.midButton,mouse.rightButton,buttonBox_2.keys,buttonBox_2.corr,buttonBox_2.rt,mouse_2.x,mouse_2.y,mouse_2.leftButton,mouse_2.midButton,mouse_2.rightButton,date,Participant,expName,Group,frameRate,
,,,,,,,,,,,,,,,,,,,,,,,,0.9984375,0.890625,1,0,0,,,,,,,,,2016_Sep_21_1425,P15,PLC_L_D1S1,NHGX,60.0201702357,
stim/posf.jpg,stim/negf.jpg,stim/4.jpg,stim/1.jpg,stim/latef.jpg,CD,1,2,0,0,0,25,,,,,,,,,,,,,,,,,,2,1,1.44947446711,,,,,,2016_Sep_21_1425,P15,PLC_L_D1S1,NHGX,60.0201702357,
stim/negf.jpg,stim/posf.jpg,stim/2.jpg,stim/5.jpg,stim/latef.jpg,AB,2,4,0,1,1,19,,,,,,,,,,,,,,,,,,None,0,,,,,,,2016_Sep_21_1425,P15,PLC_L_D1S1,NHGX,60.0201702357,
stim/posf.jpg,stim/negf.jpg,stim/5.jpg,stim/2.jpg,stim/latef.jpg,AB,1,2,0,2,2,7,,,,,,,,,,,,,,,,,,2,1,1.04964848084,,,,,,2016_Sep_21_1425,P15,PLC_L_D1S1,NHGX,60.0201702357,
stim/negf.jpg,stim/posf.jpg,stim/6.jpg,stim/3.jpg,stim/latef.jpg,EF,2,4,0,3,3,57,,,,,,,,,,,,,,,,,,2,0,1.34951942316,,,,,,2016_Sep_21_1425,P15,PLC_L_D1S1,NHGX,60.0201702357,
stim/posf.jpg,stim/negf.jpg,stim/6.jpg,stim/3.jpg,stim/latef.jpg,EF,2,4,0,4,4,51,,,,,,,,,,,,,,,,,,2,0,1.38288330163,,,,,,2016_Sep_21_1425,P15,PLC_L_D1S1,NHGX,60.0201702357,
stim/posf.jpg,stim/negf.jpg,stim/6.jpg,stim/3.jpg,stim/latef.jpg,EF,2,4,0,5,5,50,,,,,,,,,,,,,,,,,,2,0,1.33288604146,,,,,,2016_Sep_21_1425,P15,PLC_L_D1S1,NHGX,60.0201702357,
stim/posf.jpg,stim/negf.jpg,stim/2.jpg,stim/5.jpg,stim/latef.jpg,AB,2,4,0,6,6,10,,,,,,,,,,,,,,,,,,4,1,1.29957877008,,,,,,2016_Sep_21_1425,P15,PLC_L_D1S1,NHGX,60.0201702357,
stim/posf.jpg,stim/negf.jpg,stim/2.jpg,stim/5.jpg,stim/latef.jpg,AB,2,4,0,7,7,17,,,,,,,,,,,,,,,,,,None,0,,,,,,,2016_Sep_21_1425,P15,PLC_L_D1S1,NHGX,60.0201702357,
stim/negf.jpg,stim/posf.jpg,stim/4.jpg,stim/1.jpg,stim/latef.jpg,CD,1,2,0,8,8,27,,,,,,,,,,,,,,,,,,2,1,1.16627144758,,,,,,2016_Sep_21_1425,P15,PLC_L_D1S1,NHGX,60.0201702357,
stim/posf.jpg,stim/negf.jpg,stim/2.jpg,stim/5.jpg,stim/latef.jpg,AB,2,4,0,9,9,16,,,,,,,,,,,,,,,,,,4,1,0.93303315915,,,,,,2016_Sep_21_1425,P15,PLC_L_D1S1,NHGX,60.0201702357,
stim/posf.jpg,stim/negf.jpg,stim/2.jpg,stim/5.jpg,stim/latef.jpg,AB,2,4,0,10,10,15,,,,,,,,,,,,,,,,,,4,1,0.866426655439,,,,,,2016_Sep_21_1425,P15,PLC_L_D1S1,NHGX,60.0201702357,
stim/posf.jpg,stim/negf.jpg,stim/4.jpg,stim/1.jpg,stim/latef.jpg,CD,1,2,0,11,11,26,,,,,,,,,,,,,,,,,,4,0,1.36625431087,,,,,,2016_Sep_21_1425,P15,PLC_L_D1S1,NHGX,60.0201702357,
stim/posf.jpg,stim/negf.jpg,stim/6.jpg,stim/3.jpg,stim/latef.jpg,EF,2,4,0,12,12,55,,,,,,,,,,,,,,,,,,2,0,1.4161983534,,,,,,2016_Sep_21_1425,P15,PLC_L_D1S1,NHGX,60.0201702357,
stim/negf.jpg,stim/posf.jpg,stim/3.jpg,stim/6.jpg,stim/latef.jpg,EF,1,2,0,13,13,46,,,,,,,,,,,,,,,,,,2,1,0.966348012421,,,,,,2016_Sep_21_1425,P15,PLC_L_D1S1,NHGX,60.0201702357,
stim/posf.jpg,stim/negf.jpg,stim/5.jpg,stim/2.jpg,stim/latef.jpg,AB,1,2,0,14,14,0,,,,,,,,,,,,,,,,,,2,1,0.849690465485,,,,,,2016_Sep_21_1425,P15,PLC_L_D1S1,NHGX,60.0201702357,
stim/posf.jpg,stim/negf.jpg,stim/3.jpg,stim/6.jpg,stim/latef.jpg,EF,1,2,0,15,15,40,,,,,,,,,,,,,,,,,,2,1,1.19961571717,,,,,,2016_Sep_21_1425,P15,PLC_L_D1S1,NHGX,60.0201702357,
stim/negf.jpg,stim/posf.jpg,stim/6.jpg,stim/3.jpg,stim/latef.jpg,EF,2,4,0,16,16,56,,,,,,,,,,,,,,,,,,4,1,0.949703265389,,,,,,2016_Sep_21_1425,P15,PLC_L_D1S1,NHGX,60.0201702357,
stim/posf.jpg,stim/negf.jpg,stim/2.jpg,stim/5.jpg,stim/latef.jpg,AB,2,4,0,17,17,13,,,,,,,,,,,,,,,,,,4,1,1.06635825295,,,,,,2016_Sep_21_1425,P15,PLC_L_D1S1,NHGX,60.0201702357,
stim/negf.jpg,stim/posf.jpg,stim/3.jpg,stim/6.jpg,stim/latef.jpg,EF,1,2,0,18,18,48,,,,,,,,,,,,,,,,,,4,0,1.3495425057,,,,,,2016_Sep_21_1425,P15,PLC_L_D1S1,NHGX,60.0201702357,
stim/negf.jpg,stim/posf.jpg,stim/4.jpg,stim/1.jpg,stim/latef.jpg,CD,1,2,0,19,19,29,,,,,,,,,,,,,,,,,,2,1,1.41619136398,,,,,,2016_Sep_21_1425,P15,PLC_L_D1S1,NHGX,60.0201702357,
stim/negf.jpg,stim/posf.jpg,stim/5.jpg,stim/2.jpg,stim/latef.jpg,AB,1,2,0,20,20,8,,,,,,,,,,,,,,,,,,2,1,0.849717547989,,,,,,2016_Sep_21_1425,P15,PLC_L_D1S1,NHGX,60.0201702357,
stim/posf.jpg,stim/negf.jpg,stim/5.jpg,stim/2.jpg,stim/latef.jpg,AB,1,2,0,21,21,4,,,,,,,,,,,,,,,,,,2,1,0.983012554793,,,,,,2016_Sep_21_1425,P15,PLC_L_D1S1,NHGX,60.0201702357,
stim/posf.jpg,stim/negf.jpg,stim/3.jpg,stim/6.jpg,stim/latef.jpg,EF,1,2,0,22,22,41,,,,,,,,,,,,,,,,,,2,1,1.19960707062,,,,,,2016_Sep_21_1425,P15,PLC_L_D1S1,NHGX,60.0201702357,
stim/posf.jpg,stim/negf.jpg,stim/1.jpg,stim/4.jpg,stim/latef.jpg,CD,2,4,0,23,23,33,,,,,,,,,,,,,,,,,,4,1,1.06630670446,,,,,,2016_Sep_21_1425,P15,PLC_L_D1S1,NHGX,60.0201702357,
stim/posf.jpg,stim/negf.jpg,stim/6.jpg,stim/3.jpg,stim/latef.jpg,EF,2,4,0,24,24,52,,,,,,,,,,,,,,,,,,4,1,1.51609320832,,,,,,2016_Sep_21_1425,P15,PLC_L_D1S1,NHGX,60.0201702357,
stim/posf.jpg,stim/negf.jpg,stim/5.jpg,stim/2.jpg,stim/latef.jpg,AB,1,2,0,25,25,1,,,,,,,,,,,,,,,,,,2,1,0.783084121173,,,,,,2016_Sep_21_1425,P15,PLC_L_D1S1,NHGX,60.0201702357,
stim/posf.jpg,stim/negf.jpg,stim/2.jpg,stim/5.jpg,stim/latef.jpg,AB,2,4,0,26,26,12,,,,,,,,,,,,,,,,,,4,1,1.0496499906,,,,,,2016_Sep_21_1425,P15,PLC_L_D1S1,NHGX,60.0201702357,
stim/negf.jpg,stim/posf.jpg,stim/4.jpg,stim/1.jpg,stim/latef.jpg,CD,1,2,0,27,27,28,,,,,,,,,,,,,,,,,,2,1,1.14961082097,,,,,,2016_Sep_21_1425,P15,PLC_L_D1S1,NHGX,60.0201702357,
stim/negf.jpg,stim/posf.jpg,stim/3.jpg,stim/6.jpg,stim/latef.jpg,EF,1,2,0,28,28,47,,,,,,,,,,,,,,,,,,2,1,1.34954937181,,,,,,2016_Sep_21_1425,P15,PLC_L_D1S1,NHGX,60.0201702357,
stim/posf.jpg,stim/negf.jpg,stim/4.jpg,stim/1.jpg,stim/latef.jpg,CD,1,2,0,29,29,22,,,,,,,,,,,,,,,,,,4,0,1.39954234329,,,,,,2016_Sep_21_1425,P15,PLC_L_D1S1,NHGX,60.0201702357,
stim/posf.jpg,stim/negf.jpg,stim/1.jpg,stim/4.jpg,stim/latef.jpg,CD,2,4,0,30,30,30,,,,,,,,,,,,,,,,,,4,1,1.59946539349,,,,,,2016_Sep_21_1425,P15,PLC_L_D1S1,NHGX,60.0201702357,
stim/negf.jpg,stim/posf.jpg,stim/5.jpg,stim/2.jpg,stim/latef.jpg,AB,1,2,0,31,31,9,,,,,,,,,,,,,,,,,,2,1,0.966287357238,,,,,,2016_Sep_21_1425,P15,PLC_L_D1S1,NHGX,60.0201702357,
stim/posf.jpg,stim/negf.jpg,stim/5.jpg,stim/2.jpg,stim/latef.jpg,AB,1,2,0,32,32,6,,,,,,,,,,,,,,,,,,2,1,0.78306151683,,,,,,2016_Sep_21_1425,P15,PLC_L_D1S1,NHGX,60.0201702357,
stim/negf.jpg,stim/posf.jpg,stim/6.jpg,stim/3.jpg,stim/latef.jpg,EF,2,4,0,33,33,58,,,,,,,,,,,,,,,,,,None,0,,,,,,,2016_Sep_21_1425,P15,PLC_L_D1S1,NHGX,60.0201702357,
stim/posf.jpg,stim/negf.jpg,stim/5.jpg,stim/2.jpg,stim/latef.jpg,AB,1,2,0,34,34,5,,,,,,,,,,,,,,,,,,2,1,0.933040852324,,,,,,2016_Sep_21_1425,P15,PLC_L_D1S1,NHGX,60.0201702357,
stim/posf.jpg,stim/negf.jpg,stim/3.jpg,stim/6.jpg,stim/latef.jpg,EF,1,2,0,35,35,44,,,,,,,,,,,,,,,,,,4,0,1.19952972083,,,,,,2016_Sep_21_1425,P15,PLC_L_D1S1,NHGX,60.0201702357,
stim/posf.jpg,stim/negf.jpg,stim/1.jpg,stim/4.jpg,stim/latef.jpg,CD,2,4,0,36,36,32,,,,,,,,,,,,,,,,,,4,1,1.13297687386,,,,,,2016_Sep_21_1425,P15,PLC_L_D1S1,NHGX,60.0201702357,
stim/posf.jpg,stim/negf.jpg,stim/5.jpg,stim/2.jpg,stim/latef.jpg,AB,1,2,0,37,37,2,,,,,,,,,,,,,,,,,,2,1,1.0496178555,,,,,,2016_Sep_21_1425,P15,PLC_L_D1S1,NHGX,60.0201702357,
stim/posf.jpg,stim/negf.jpg,stim/3.jpg,stim/6.jpg,stim/latef.jpg,EF,1,2,0,38,38,45,,,,,,,,,,,,,,,,,,2,1,0.849737935805,,,,,,2016_Sep_21_1425,P15,PLC_L_D1S1,NHGX,60.0201702357,
stim/posf.jpg,stim/negf.jpg,stim/1.jpg,stim/4.jpg,stim/latef.jpg,CD,2,4,0,39,39,35,,,,,,,,,,,,,,,,,,4,1,1.04966570778,,,,,,2016_Sep_21_1425,P15,PLC_L_D1S1,NHGX,60.0201702357,
stim/posf.jpg,stim/negf.jpg,stim/6.jpg,stim/3.jpg,stim/latef.jpg,EF,2,4,0,40,40,54,,,,,,,,,,,,,,,,,,4,1,1.0829767686,,,,,,2016_Sep_21_1425,P15,PLC_L_D1S1,NHGX,60.0201702357,
stim/negf.jpg,stim/posf.jpg,stim/6.jpg,stim/3.jpg,stim/latef.jpg,EF,2,4,0,41,41,59,,,,,,,,,,,,,,,,,,4,1,0.999646745513,,,,,,2016_Sep_21_1425,P15,PLC_L_D1S1,NHGX,60.0201702357,
stim/posf.jpg,stim/negf.jpg,stim/3.jpg,stim/6.jpg,stim/latef.jpg,EF,1,2,0,42,42,42,,,,,,,,,,,,,,,,,,2,1,1.24961930211,,,,,,2016_Sep_21_1425,P15,PLC_L_D1S1,NHGX,60.0201702357,
stim/negf.jpg,stim/posf.jpg,stim/1.jpg,stim/4.jpg,stim/latef.jpg,CD,2,4,0,43,43,38,,,,,,,,,,,,,,,,,,4,1,1.09959188878,,,,,,2016_Sep_21_1425,P15,PLC_L_D1S1,NHGX,60.0201702357,
stim/posf.jpg,stim/negf.jpg,stim/5.jpg,stim/2.jpg,stim/latef.jpg,AB,1,2,0,44,44,3,,,,,,,,,,,,,,,,,,2,1,1.01632794641,,,,,,2016_Sep_21_1425,P15,PLC_L_D1S1,NHGX,60.0201702357,
stim/posf.jpg,stim/negf.jpg,stim/6.jpg,stim/3.jpg,stim/latef.jpg,EF,2,4,0,45,45,53,,,,,,,,,,,,,,,,,,4,1,1.31619346321,,,,,,2016_Sep_21_1425,P15,PLC_L_D1S1,NHGX,60.0201702357,
stim/posf.jpg,stim/negf.jpg,stim/1.jpg,stim/4.jpg,stim/latef.jpg,CD,2,4,0,46,46,31,,,,,,,,,,,,,,,,,,4,1,1.18293033887,,,,,,2016_Sep_21_1425,P15,PLC_L_D1S1,NHGX,60.0201702357,
stim/posf.jpg,stim/negf.jpg,stim/4.jpg,stim/1.jpg,stim/latef.jpg,CD,1,2,0,47,47,24,,,,,,,,,,,,,,,,,,2,1,1.51612242013,,,,,,2016_Sep_21_1425,P15,PLC_L_D1S1,NHGX,60.0201702357,
stim/posf.jpg,stim/negf.jpg,stim/4.jpg,stim/1.jpg,stim/latef.jpg,CD,1,2,0,48,48,20,,,,,,,,,,,,,,,,,,2,1,1.19960450824,,,,,,2016_Sep_21_1425,P15,PLC_L_D1S1,NHGX,60.0201702357,
stim/negf.jpg,stim/posf.jpg,stim/1.jpg,stim/4.jpg,stim/latef.jpg,CD,2,4,0,49,49,39,,,,,,,,,,,,,,,,,,4,1,0.98301295479,,,,,,2016_Sep_21_1425,P15,PLC_L_D1S1,NHGX,60.0201702357,
stim/negf.jpg,stim/posf.jpg,stim/2.jpg,stim/5.jpg,stim/latef.jpg,AB,2,4,0,50,50,18,,,,,,,,,,,,,,,,,,4,1,0.98300323757,,,,,,2016_Sep_21_1425,P15,PLC_L_D1S1,NHGX,60.0201702357,
stim/negf.jpg,stim/posf.jpg,stim/3.jpg,stim/6.jpg,stim/latef.jpg,EF,1,2,0,51,51,49,,,,,,,,,,,,,,,,,,2,1,1.19959055345,,,,,,2016_Sep_21_1425,P15,PLC_L_D1S1,NHGX,60.0201702357,
stim/posf.jpg,stim/negf.jpg,stim/4.jpg,stim/1.jpg,stim/latef.jpg,CD,1,2,0,52,52,21,,,,,,,,,,,,,,,,,,4,0,1.34954815979,,,,,,2016_Sep_21_1425,P15,PLC_L_D1S1,NHGX,60.0201702357,
stim/posf.jpg,stim/negf.jpg,stim/4.jpg,stim/1.jpg,stim/latef.jpg,CD,1,2,0,53,53,23,,,,,,,,,,,,,,,,,,None,0,,,,,,,2016_Sep_21_1425,P15,PLC_L_D1S1,NHGX,60.0201702357,
stim/posf.jpg,stim/negf.jpg,stim/2.jpg,stim/5.jpg,stim/latef.jpg,AB,2,4,0,54,54,11,,,,,,,,,,,,,,,,,,4,1,0.899695554169,,,,,,2016_Sep_21_1425,P15,PLC_L_D1S1,NHGX,60.0201702357,
stim/posf.jpg,stim/negf.jpg,stim/3.jpg,stim/6.jpg,stim/latef.jpg,EF,1,2,0,55,55,43,,,,,,,,,,,,,,,,,,2,1,0.999679509177,,,,,,2016_Sep_21_1425,P15,PLC_L_D1S1,NHGX,60.0201702357,
stim/posf.jpg,stim/negf.jpg,stim/1.jpg,stim/4.jpg,stim/latef.jpg,CD,2,4,0,56,56,36,,,,,,,,,,,,,,,,,,4,1,1.04965887775,,,,,,2016_Sep_21_1425,P15,PLC_L_D1S1,NHGX,60.0201702357,
stim/posf.jpg,stim/negf.jpg,stim/1.jpg,stim/4.jpg,stim/latef.jpg,CD,2,4,0,57,57,34,,,,,,,,,,,,,,,,,,4,1,0.833079282111,,,,,,2016_Sep_21_1425,P15,PLC_L_D1S1,NHGX,60.0201702357,
stim/posf.jpg,stim/negf.jpg,stim/2.jpg,stim/5.jpg,stim/latef.jpg,AB,2,4,0,58,58,14,,,,,,,,,,,,,,,,,,4,1,1.26624226284,,,,,,2016_Sep_21_1425,P15,PLC_L_D1S1,NHGX,60.0201702357,
stim/negf.jpg,stim/posf.jpg,stim/1.jpg,stim/4.jpg,stim/latef.jpg,CD,2,4,0,59,59,37,,,,,,,,,,,,,,,,,,4,1,1.2994719348,,,,,,2016_Sep_21_1425,P15,PLC_L_D1S1,NHGX,60.0201702357,
,,,,,,,,,,,,,,,,,,,,,,,,,,,,,,,,-0.3,0.794921875,1,0,0,2016_Sep_21_1425,P15,PLC_L_D1S1,NHGX,60.0201702357,
stim/negf.jpg,stim/posf.jpg,stim/3.jpg,stim/6.jpg,stim/latef.jpg,EF,1,2,,,,,0,0,0,49,,,,,,,,,,,,,,2,1,1.01632163367,,,,,,2016_Sep_21_1425,P15,PLC_L_D1S1,NHGX,60.0201702357,
stim/posf.jpg,stim/negf.jpg,stim/5.jpg,stim/2.jpg,stim/latef.jpg,AB,1,2,,,,,0,1,1,0,,,,,,,,,,,,,,2,1,1.53280102556,,,,,,2016_Sep_21_1425,P15,PLC_L_D1S1,NHGX,60.0201702357,
stim/negf.jpg,stim/posf.jpg,stim/4.jpg,stim/1.jpg,stim/latef.jpg,CD,1,2,,,,,0,2,2,27,,,,,,,,,,,,,,2,1,1.3495503703,,,,,,2016_Sep_21_1425,P15,PLC_L_D1S1,NHGX,60.0201702357,
stim/posf.jpg,stim/negf.jpg,stim/2.jpg,stim/5.jpg,stim/latef.jpg,AB,2,4,,,,,0,3,3,16,,,,,,,,,,,,,,4,1,1.03298252494,,,,,,2016_Sep_21_1425,P15,PLC_L_D1S1,NHGX,60.0201702357,
stim/posf.jpg,stim/negf.jpg,stim/2.jpg,stim/5.jpg,stim/latef.jpg,AB,2,4,,,,,0,4,4,10,,,,,,,,,,,,,,4,1,0.999704748085,,,,,,2016_Sep_21_1425,P15,PLC_L_D1S1,NHGX,60.0201702357,
stim/posf.jpg,stim/negf.jpg,stim/1.jpg,stim/4.jpg,stim/latef.jpg,CD,2,4,,,,,0,5,5,34,,,,,,,,,,,,,,4,1,0.883060325863,,,,,,2016_Sep_21_1425,P15,PLC_L_D1S1,NHGX,60.0201702357,
stim/negf.jpg,stim/posf.jpg,stim/6.jpg,stim/3.jpg,stim/latef.jpg,EF,2,4,,,,,0,6,6,59,,,,,,,,,,,,,,2,0,1.2995764092,,,,,,2016_Sep_21_1425,P15,PLC_L_D1S1,NHGX,60.0201702357,
stim/negf.jpg,stim/posf.jpg,stim/6.jpg,stim/3.jpg,stim/latef.jpg,EF,2,4,,,,,0,7,7,56,,,,,,,,,,,,,,4,1,0.966360547664,,,,,,2016_Sep_21_1425,P15,PLC_L_D1S1,NHGX,60.0201702357,
stim/posf.jpg,stim/negf.jpg,stim/4.jpg,stim/1.jpg,stim/latef.jpg,CD,1,2,,,,,0,8,8,26,,,,,,,,,,,,,,2,1,1.0829813851,,,,,,2016_Sep_21_1425,P15,PLC_L_D1S1,NHGX,60.0201702357,
stim/posf.jpg,stim/negf.jpg,stim/1.jpg,stim/4.jpg,stim/latef.jpg,CD,2,4,,,,,0,9,9,33,,,,,,,,,,,,,,2,0,1.43293212231,,,,,,2016_Sep_21_1425,P15,PLC_L_D1S1,NHGX,60.0201702357,
stim/posf.jpg,stim/negf.jpg,stim/4.jpg,stim/1.jpg,stim/latef.jpg,CD,1,2,,,,,0,10,10,22,,,,,,,,,,,,,,2,1,1.13298233246,,,,,,2016_Sep_21_1425,P15,PLC_L_D1S1,NHGX,60.0201702357,
stim/posf.jpg,stim/negf.jpg,stim/1.jpg,stim/4.jpg,stim/latef.jpg,CD,2,4,,,,,0,11,11,36,,,,,,,,,,,,,,4,1,1.1496227096,,,,,,2016_Sep_21_1425,P15,PLC_L_D1S1,NHGX,60.0201702357,
stim/posf.jpg,stim/negf.jpg,stim/3.jpg,stim/6.jpg,stim/latef.jpg,EF,1,2,,,,,0,12,12,42,,,,,,,,,,,,,,4,0,1.21626466869,,,,,,2016_Sep_21_1425,P15,PLC_L_D1S1,NHGX,60.0201702357,
stim/posf.jpg,stim/negf.jpg,stim/2.jpg,stim/5.jpg,stim/latef.jpg,AB,2,4,,,,,0,13,13,11,,,,,,,,,,,,,,4,1,0.883082012917,,,,,,2016_Sep_21_1425,P15,PLC_L_D1S1,NHGX,60.0201702357,
stim/posf.jpg,stim/negf.jpg,stim/3.jpg,stim/6.jpg,stim/latef.jpg,EF,1,2,,,,,0,14,14,44,,,,,,,,,,,,,,2,1,1.4328487064,,,,,,2016_Sep_21_1425,P15,PLC_L_D1S1,NHGX,60.0201702357,
stim/negf.jpg,stim/posf.jpg,stim/6.jpg,stim/3.jpg,stim/latef.jpg,EF,2,4,,,,,0,15,15,58,,,,,,,,,,,,,,4,1,0.982998317306,,,,,,2016_Sep_21_1425,P15,PLC_L_D1S1,NHGX,60.0201702357,
stim/posf.jpg,stim/negf.jpg,stim/5.jpg,stim/2.jpg,stim/latef.jpg,AB,1,2,,,,,0,16,16,1,,,,,,,,,,,,,,2,1,1.08296380929,,,,,,2016_Sep_21_1425,P15,PLC_L_D1S1,NHGX,60.0201702357,
stim/posf.jpg,stim/negf.jpg,stim/4.jpg,stim/1.jpg,stim/latef.jpg,CD,1,2,,,,,0,17,17,20,,,,,,,,,,,,,,2,1,0.999657346938,,,,,,2016_Sep_21_1425,P15,PLC_L_D1S1,NHGX,60.0201702357,
stim/negf.jpg,stim/posf.jpg,stim/2.jpg,stim/5.jpg,stim/latef.jpg,AB,2,4,,,,,0,18,18,19,,,,,,,,,,,,,,4,1,0.83307176337,,,,,,2016_Sep_21_1425,P15,PLC_L_D1S1,NHGX,60.0201702357,
stim/posf.jpg,stim/negf.jpg,stim/4.jpg,stim/1.jpg,stim/latef.jpg,CD,1,2,,,,,0,19,19,21,,,,,,,,,,,,,,2,1,0.883032139608,,,,,,2016_Sep_21_1425,P15,PLC_L_D1S1,NHGX,60.0201702357,
stim/posf.jpg,stim/negf.jpg,stim/1.jpg,stim/4.jpg,stim/latef.jpg,CD,2,4,,,,,0,20,20,32,,,,,,,,,,,,,,4,1,1.31623669897,,,,,,2016_Sep_21_1425,P15,PLC_L_D1S1,NHGX,60.0201702357,
stim/posf.jpg,stim/negf.jpg,stim/2.jpg,stim/5.jpg,stim/latef.jpg,AB,2,4,,,,,0,21,21,13,,,,,,,,,,,,,,4,1,0.833060987511,,,,,,2016_Sep_21_1425,P15,PLC_L_D1S1,NHGX,60.0201702357,
stim/posf.jpg,stim/negf.jpg,stim/6.jpg,stim/3.jpg,stim/latef.jpg,EF,2,4,,,,,0,22,22,52,,,,,,,,,,,,,,4,1,1.56615032669,,,,,,2016_Sep_21_1425,P15,PLC_L_D1S1,NHGX,60.0201702357,
stim/posf.jpg,stim/negf.jpg,stim/4.jpg,stim/1.jpg,stim/latef.jpg,CD,1,2,,,,,0,23,23,24,,,,,,,,,,,,,,2,1,1.39956116119,,,,,,2016_Sep_21_1425,P15,PLC_L_D1S1,NHGX,60.0201702357,
stim/posf.jpg,stim/negf.jpg,stim/4.jpg,stim/1.jpg,stim/latef.jpg,CD,1,2,,,,,0,24,24,23,,,,,,,,,,,,,,2,1,0.999642411711,,,,,,2016_Sep_21_1425,P15,PLC_L_D1S1,NHGX,60.0201702357,
stim/negf.jpg,stim/posf.jpg,stim/5.jpg,stim/2.jpg,stim/latef.jpg,AB,1,2,,,,,0,25,25,9,,,,,,,,,,,,,,2,1,1.13294903948,,,,,,2016_Sep_21_1425,P15,PLC_L_D1S1,NHGX,60.0201702357,
stim/posf.jpg,stim/negf.jpg,stim/3.jpg,stim/6.jpg,stim/latef.jpg,EF,1,2,,,,,0,26,26,43,,,,,,,,,,,,,,2,1,1.09970866084,,,,,,2016_Sep_21_1425,P15,PLC_L_D1S1,NHGX,60.0201702357,
stim/negf.jpg,stim/posf.jpg,stim/1.jpg,stim/4.jpg,stim/latef.jpg,CD,2,4,,,,,0,27,27,39,,,,,,,,,,,,,,4,1,1.04965474245,,,,,,2016_Sep_21_1425,P15,PLC_L_D1S1,NHGX,60.0201702357,
stim/posf.jpg,stim/negf.jpg,stim/1.jpg,stim/4.jpg,stim/latef.jpg,CD,2,4,,,,,0,28,28,31,,,,,,,,,,,,,,4,1,0.899690636912,,,,,,2016_Sep_21_1425,P15,PLC_L_D1S1,NHGX,60.0201702357,
stim/posf.jpg,stim/negf.jpg,stim/2.jpg,stim/5.jpg,stim/latef.jpg,AB,2,4,,,,,0,29,29,17,,,,,,,,,,,,,,4,1,0.766422447951,,,,,,2016_Sep_21_1425,P15,PLC_L_D1S1,NHGX,60.0201702357,
stim/posf.jpg,stim/negf.jpg,stim/4.jpg,stim/1.jpg,stim/latef.jpg,CD,1,2,,,,,0,30,30,25,,,,,,,,,,,,,,2,1,0.966349840978,,,,,,2016_Sep_21_1425,P15,PLC_L_D1S1,NHGX,60.0201702357,
stim/posf.jpg,stim/negf.jpg,stim/2.jpg,stim/5.jpg,stim/latef.jpg,AB,2,4,,,,,0,31,31,14,,,,,,,,,,,,,,4,1,0.683027992271,,,,,,2016_Sep_21_1425,P15,PLC_L_D1S1,NHGX,60.0201702357,
stim/posf.jpg,stim/negf.jpg,stim/6.jpg,stim/3.jpg,stim/latef.jpg,EF,2,4,,,,,0,32,32,53,,,,,,,,,,,,,,4,1,1.39952263216,,,,,,2016_Sep_21_1425,P15,PLC_L_D1S1,NHGX,60.0201702357,
stim/posf.jpg,stim/negf.jpg,stim/1.jpg,stim/4.jpg,stim/latef.jpg,CD,2,4,,,,,0,33,33,35,,,,,,,,,,,,,,4,1,0.649783761024,,,,,,2016_Sep_21_1425,P15,PLC_L_D1S1,NHGX,60.0201702357,
stim/posf.jpg,stim/negf.jpg,stim/6.jpg,stim/3.jpg,stim/latef.jpg,EF,2,4,,,,,0,34,34,51,,,,,,,,,,,,,,4,1,0.649766215291,,,,,,2016_Sep_21_1425,P15,PLC_L_D1S1,NHGX,60.0201702357,
stim/negf.jpg,stim/posf.jpg,stim/6.jpg,stim/3.jpg,stim/latef.jpg,EF,2,4,,,,,0,35,35,57,,,,,,,,,,,,,,4,1,0.766399636093,,,,,,2016_Sep_21_1425,P15,PLC_L_D1S1,NHGX,60.0201702357,
stim/negf.jpg,stim/posf.jpg,stim/3.jpg,stim/6.jpg,stim/latef.jpg,EF,1,2,,,,,0,36,36,47,,,,,,,,,,,,,,2,1,0.816401602996,,,,,,2016_Sep_21_1425,P15,PLC_L_D1S1,NHGX,60.0201702357,
stim/negf.jpg,stim/posf.jpg,stim/4.jpg,stim/1.jpg,stim/latef.jpg,CD,1,2,,,,,0,37,37,28,,,,,,,,,,,,,,2,1,0.849715797626,,,,,,2016_Sep_21_1425,P15,PLC_L_D1S1,NHGX,60.0201702357,
stim/posf.jpg,stim/negf.jpg,stim/3.jpg,stim/6.jpg,stim/latef.jpg,EF,1,2,,,,,0,38,38,45,,,,,,,,,,,,,,2,1,1.16628406704,,,,,,2016_Sep_21_1425,P15,PLC_L_D1S1,NHGX,60.0201702357,
stim/negf.jpg,stim/posf.jpg,stim/2.jpg,stim/5.jpg,stim/latef.jpg,AB,2,4,,,,,0,39,39,18,,,,,,,,,,,,,,4,1,0.749762482989,,,,,,2016_Sep_21_1425,P15,PLC_L_D1S1,NHGX,60.0201702357,
stim/posf.jpg,stim/negf.jpg,stim/5.jpg,stim/2.jpg,stim/latef.jpg,AB,1,2,,,,,0,40,40,6,,,,,,,,,,,,,,2,1,0.999584367035,,,,,,2016_Sep_21_1425,P15,PLC_L_D1S1,NHGX,60.0201702357,
stim/negf.jpg,stim/posf.jpg,stim/3.jpg,stim/6.jpg,stim/latef.jpg,EF,1,2,,,,,0,41,41,46,,,,,,,,,,,,,,2,1,0.933017562274,,,,,,2016_Sep_21_1425,P15,PLC_L_D1S1,NHGX,60.0201702357,
stim/negf.jpg,stim/posf.jpg,stim/3.jpg,stim/6.jpg,stim/latef.jpg,EF,1,2,,,,,0,42,42,48,,,,,,,,,,,,,,4,0,0.816416120179,,,,,,2016_Sep_21_1425,P15,PLC_L_D1S1,NHGX,60.0201702357,
stim/negf.jpg,stim/posf.jpg,stim/4.jpg,stim/1.jpg,stim/latef.jpg,CD,1,2,,,,,0,43,43,29,,,,,,,,,,,,,,2,1,0.99968808054,,,,,,2016_Sep_21_1425,P15,PLC_L_D1S1,NHGX,60.0201702357,
stim/posf.jpg,stim/negf.jpg,stim/5.jpg,stim/2.jpg,stim/latef.jpg,AB,1,2,,,,,0,44,44,3,,,,,,,,,,,,,,2,1,0.966276785889,,,,,,2016_Sep_21_1425,P15,PLC_L_D1S1,NHGX,60.0201702357,
stim/negf.jpg,stim/posf.jpg,stim/1.jpg,stim/4.jpg,stim/latef.jpg,CD,2,4,,,,,0,45,45,37,,,,,,,,,,,,,,4,1,1.29958517605,,,,,,2016_Sep_21_1425,P15,PLC_L_D1S1,NHGX,60.0201702357,
stim/posf.jpg,stim/negf.jpg,stim/5.jpg,stim/2.jpg,stim/latef.jpg,AB,1,2,,,,,0,46,46,2,,,,,,,,,,,,,,2,1,1.2495980361,,,,,,2016_Sep_21_1425,P15,PLC_L_D1S1,NHGX,60.0201702357,
stim/negf.jpg,stim/posf.jpg,stim/5.jpg,stim/2.jpg,stim/latef.jpg,AB,1,2,,,,,0,47,47,8,,,,,,,,,,,,,,2,1,0.716399151886,,,,,,2016_Sep_21_1425,P15,PLC_L_D1S1,NHGX,60.0201702357,
stim/posf.jpg,stim/negf.jpg,stim/6.jpg,stim/3.jpg,stim/latef.jpg,EF,2,4,,,,,0,48,48,55,,,,,,,,,,,,,,2,0,1.06631255103,,,,,,2016_Sep_21_1425,P15,PLC_L_D1S1,NHGX,60.0201702357,
stim/posf.jpg,stim/negf.jpg,stim/1.jpg,stim/4.jpg,stim/latef.jpg,CD,2,4,,,,,0,49,49,30,,,,,,,,,,,,,,4,1,1.06630616612,,,,,,2016_Sep_21_1425,P15,PLC_L_D1S1,NHGX,60.0201702357,
stim/posf.jpg,stim/negf.jpg,stim/2.jpg,stim/5.jpg,stim/latef.jpg,AB,2,4,,,,,0,50,50,15,,,,,,,,,,,,,,4,1,0.966363272457,,,,,,2016_Sep_21_1425,P15,PLC_L_D1S1,NHGX,60.0201702357,
stim/posf.jpg,stim/negf.jpg,stim/6.jpg,stim/3.jpg,stim/latef.jpg,EF,2,4,,,,,0,51,51,50,,,,,,,,,,,,,,4,1,1.54950079473,,,,,,2016_Sep_21_1425,P15,PLC_L_D1S1,NHGX,60.0201702357,
stim/posf.jpg,stim/negf.jpg,stim/5.jpg,stim/2.jpg,stim/latef.jpg,AB,1,2,,,,,0,52,52,4,,,,,,,,,,,,,,2,1,0.983049595116,,,,,,2016_Sep_21_1425,P15,PLC_L_D1S1,NHGX,60.0201702357,
stim/posf.jpg,stim/negf.jpg,stim/5.jpg,stim/2.jpg,stim/latef.jpg,AB,1,2,,,,,0,53,53,7,,,,,,,,,,,,,,2,1,1.01631325178,,,,,,2016_Sep_21_1425,P15,PLC_L_D1S1,NHGX,60.0201702357,
stim/posf.jpg,stim/negf.jpg,stim/5.jpg,stim/2.jpg,stim/latef.jpg,AB,1,2,,,,,0,54,54,5,,,,,,,,,,,,,,2,1,1.11630413907,,,,,,2016_Sep_21_1425,P15,PLC_L_D1S1,NHGX,60.0201702357,
stim/posf.jpg,stim/negf.jpg,stim/3.jpg,stim/6.jpg,stim/latef.jpg,EF,1,2,,,,,0,55,55,40,,,,,,,,,,,,,,2,1,0.999663788994,,,,,,2016_Sep_21_1425,P15,PLC_L_D1S1,NHGX,60.0201702357,
stim/posf.jpg,stim/negf.jpg,stim/2.jpg,stim/5.jpg,stim/latef.jpg,AB,2,4,,,,,0,56,56,12,,,,,,,,,,,,,,4,1,0.649767583702,,,,,,2016_Sep_21_1425,P15,PLC_L_D1S1,NHGX,60.0201702357,
stim/posf.jpg,stim/negf.jpg,stim/3.jpg,stim/6.jpg,stim/latef.jpg,EF,1,2,,,,,0,57,57,41,,,,,,,,,,,,,,2,1,1.01627852422,,,,,,2016_Sep_21_1425,P15,PLC_L_D1S1,NHGX,60.0201702357,
stim/negf.jpg,stim/posf.jpg,stim/1.jpg,stim/4.jpg,stim/latef.jpg,CD,2,4,,,,,0,58,58,38,,,,,,,,,,,,,,4,1,1.03298835949,,,,,,2016_Sep_21_1425,P15,PLC_L_D1S1,NHGX,60.0201702357,
stim/posf.jpg,stim/negf.jpg,stim/6.jpg,stim/3.jpg,stim/latef.jpg,EF,2,4,,,,,0,59,59,54,,,,,,,,,,,,,,4,1,0.9663547041,,,,,,2016_Sep_21_1425,P15,PLC_L_D1S1,NHGX,60.0201702357,
,,,,,,,,,,,,,,,,,,,,,,,,,,,,,,,,0.9984375,0.044921875,1,0,0,2016_Sep_21_1425,P15,PLC_L_D1S1,NHGX,60.0201702357,
stim/negf.jpg,stim/posf.jpg,stim/5.jpg,stim/2.jpg,stim/latef.jpg,AB,1,2,,,,,,,,,0,0,0,9,,,,,,,,,,2,1,0.983037162127,,,,,,2016_Sep_21_1425,P15,PLC_L_D1S1,NHGX,60.0201702357,
stim/negf.jpg,stim/posf.jpg,stim/4.jpg,stim/1.jpg,stim/latef.jpg,CD,1,2,,,,,,,,,0,1,1,27,,,,,,,,,,2,1,0.983027258442,,,,,,2016_Sep_21_1425,P15,PLC_L_D1S1,NHGX,60.0201702357,
stim/posf.jpg,stim/negf.jpg,stim/4.jpg,stim/1.jpg,stim/latef.jpg,CD,1,2,,,,,,,,,0,2,2,25,,,,,,,,,,2,1,1.33293905459,,,,,,2016_Sep_21_1425,P15,PLC_L_D1S1,NHGX,60.0201702357,
stim/negf.jpg,stim/posf.jpg,stim/5.jpg,stim/2.jpg,stim/latef.jpg,AB,1,2,,,,,,,,,0,3,3,8,,,,,,,,,,2,1,0.716429055421,,,,,,2016_Sep_21_1425,P15,PLC_L_D1S1,NHGX,60.0201702357,
stim/posf.jpg,stim/negf.jpg,stim/6.jpg,stim/3.jpg,stim/latef.jpg,EF,2,4,,,,,,,,,0,4,4,52,,,,,,,,,,4,1,0.91629334817,,,,,,2016_Sep_21_1425,P15,PLC_L_D1S1,NHGX,60.0201702357,
stim/posf.jpg,stim/negf.jpg,stim/6.jpg,stim/3.jpg,stim/latef.jpg,EF,2,4,,,,,,,,,0,5,5,55,,,,,,,,,,4,1,0.766401001496,,,,,,2016_Sep_21_1425,P15,PLC_L_D1S1,NHGX,60.0201702357,
stim/negf.jpg,stim/posf.jpg,stim/1.jpg,stim/4.jpg,stim/latef.jpg,CD,2,4,,,,,,,,,0,6,6,37,,,,,,,,,,4,1,0.733065793491,,,,,,2016_Sep_21_1425,P15,PLC_L_D1S1,NHGX,60.0201702357,
stim/negf.jpg,stim/posf.jpg,stim/6.jpg,stim/3.jpg,stim/latef.jpg,EF,2,4,,,,,,,,,0,7,7,57,,,,,,,,,,4,1,0.749740230524,,,,,,2016_Sep_21_1425,P15,PLC_L_D1S1,NHGX,60.0201702357,
stim/negf.jpg,stim/posf.jpg,stim/3.jpg,stim/6.jpg,stim/latef.jpg,EF,1,2,,,,,,,,,0,8,8,47,,,,,,,,,,2,1,1.29957325133,,,,,,2016_Sep_21_1425,P15,PLC_L_D1S1,NHGX,60.0201702357,
stim/negf.jpg,stim/posf.jpg,stim/1.jpg,stim/4.jpg,stim/latef.jpg,CD,2,4,,,,,,,,,0,9,9,39,,,,,,,,,,2,0,1.38286689273,,,,,,2016_Sep_21_1425,P15,PLC_L_D1S1,NHGX,60.0201702357,
stim/posf.jpg,stim/negf.jpg,stim/2.jpg,stim/5.jpg,stim/latef.jpg,AB,2,4,,,,,,,,,0,10,10,17,,,,,,,,,,2,0,1.28284944624,,,,,,2016_Sep_21_1425,P15,PLC_L_D1S1,NHGX,60.0201702357,
stim/posf.jpg,stim/negf.jpg,stim/3.jpg,stim/6.jpg,stim/latef.jpg,EF,1,2,,,,,,,,,0,11,11,40,,,,,,,,,,2,1,0.78307933023,,,,,,2016_Sep_21_1425,P15,PLC_L_D1S1,NHGX,60.0201702357,
stim/posf.jpg,stim/negf.jpg,stim/1.jpg,stim/4.jpg,stim/latef.jpg,CD,2,4,,,,,,,,,0,12,12,34,,,,,,,,,,2,0,1.09964316358,,,,,,2016_Sep_21_1425,P15,PLC_L_D1S1,NHGX,60.0201702357,
stim/posf.jpg,stim/negf.jpg,stim/3.jpg,stim/6.jpg,stim/latef.jpg,EF,1,2,,,,,,,,,0,13,13,42,,,,,,,,,,2,1,1.16629964587,,,,,,2016_Sep_21_1425,P15,PLC_L_D1S1,NHGX,60.0201702357,
stim/posf.jpg,stim/negf.jpg,stim/5.jpg,stim/2.jpg,stim/latef.jpg,AB,1,2,,,,,,,,,0,14,14,6,,,,,,,,,,2,1,0.833057483778,,,,,,2016_Sep_21_1425,P15,PLC_L_D1S1,NHGX,60.0201702357,
stim/posf.jpg,stim/negf.jpg,stim/2.jpg,stim/5.jpg,stim/latef.jpg,AB,2,4,,,,,,,,,0,15,15,14,,,,,,,,,,4,1,0.633113338997,,,,,,2016_Sep_21_1425,P15,PLC_L_D1S1,NHGX,60.0201702357,
stim/posf.jpg,stim/negf.jpg,stim/4.jpg,stim/1.jpg,stim/latef.jpg,CD,1,2,,,,,,,,,0,16,16,24,,,,,,,,,,2,1,1.28283519372,,,,,,2016_Sep_21_1425,P15,PLC_L_D1S1,NHGX,60.0201702357,
stim/negf.jpg,stim/posf.jpg,stim/2.jpg,stim/5.jpg,stim/latef.jpg,AB,2,4,,,,,,,,,0,17,17,18,,,,,,,,,,4,1,0.766448989105,,,,,,2016_Sep_21_1425,P15,PLC_L_D1S1,NHGX,60.0201702357,
stim/posf.jpg,stim/negf.jpg,stim/5.jpg,stim/2.jpg,stim/latef.jpg,AB,1,2,,,,,,,,,0,18,18,7,,,,,,,,,,2,1,1.08302328253,,,,,,2016_Sep_21_1425,P15,PLC_L_D1S1,NHGX,60.0201702357,
stim/posf.jpg,stim/negf.jpg,stim/5.jpg,stim/2.jpg,stim/latef.jpg,AB,1,2,,,,,,,,,0,19,19,3,,,,,,,,,,2,1,0.766422393816,,,,,,2016_Sep_21_1425,P15,PLC_L_D1S1,NHGX,60.0201702357,
stim/posf.jpg,stim/negf.jpg,stim/6.jpg,stim/3.jpg,stim/latef.jpg,EF,2,4,,,,,,,,,0,20,20,51,,,,,,,,,,4,1,0.666412730731,,,,,,2016_Sep_21_1425,P15,PLC_L_D1S1,NHGX,60.0201702357,
stim/posf.jpg,stim/negf.jpg,stim/4.jpg,stim/1.jpg,stim/latef.jpg,CD,1,2,,,,,,,,,0,21,21,26,,,,,,,,,,2,1,1.16629853911,,,,,,2016_Sep_21_1425,P15,PLC_L_D1S1,NHGX,60.0201702357,
stim/negf.jpg,stim/posf.jpg,stim/2.jpg,stim/5.jpg,stim/latef.jpg,AB,2,4,,,,,,,,,0,22,22,19,,,,,,,,,,4,1,0.999679827972,,,,,,2016_Sep_21_1425,P15,PLC_L_D1S1,NHGX,60.0201702357,
stim/posf.jpg,stim/negf.jpg,stim/2.jpg,stim/5.jpg,stim/latef.jpg,AB,2,4,,,,,,,,,0,23,23,12,,,,,,,,,,4,1,0.949673710724,,,,,,2016_Sep_21_1425,P15,PLC_L_D1S1,NHGX,60.0201702357,
stim/posf.jpg,stim/negf.jpg,stim/4.jpg,stim/1.jpg,stim/latef.jpg,CD,1,2,,,,,,,,,0,24,24,23,,,,,,,,,,2,1,0.99960178946,,,,,,2016_Sep_21_1425,P15,PLC_L_D1S1,NHGX,60.0201702357,
stim/posf.jpg,stim/negf.jpg,stim/4.jpg,stim/1.jpg,stim/latef.jpg,CD,1,2,,,,,,,,,0,25,25,22,,,,,,,,,,2,1,1.08293188172,,,,,,2016_Sep_21_1425,P15,PLC_L_D1S1,NHGX,60.0201702357,
stim/posf.jpg,stim/negf.jpg,stim/2.jpg,stim/5.jpg,stim/latef.jpg,AB,2,4,,,,,,,,,0,26,26,10,,,,,,,,,,4,1,0.86637232502,,,,,,2016_Sep_21_1425,P15,PLC_L_D1S1,NHGX,60.0201702357,
stim/negf.jpg,stim/posf.jpg,stim/1.jpg,stim/4.jpg,stim/latef.jpg,CD,2,4,,,,,,,,,0,27,27,38,,,,,,,,,,4,1,1.2496053744,,,,,,2016_Sep_21_1425,P15,PLC_L_D1S1,NHGX,60.0201702357,
stim/posf.jpg,stim/negf.jpg,stim/2.jpg,stim/5.jpg,stim/latef.jpg,AB,2,4,,,,,,,,,0,28,28,11,,,,,,,,,,4,1,0.883021011872,,,,,,2016_Sep_21_1425,P15,PLC_L_D1S1,NHGX,60.0201702357,
stim/posf.jpg,stim/negf.jpg,stim/2.jpg,stim/5.jpg,stim/latef.jpg,AB,2,4,,,,,,,,,0,29,29,15,,,,,,,,,,4,1,1.416212636,,,,,,2016_Sep_21_1425,P15,PLC_L_D1S1,NHGX,60.0201702357,
stim/negf.jpg,stim/posf.jpg,stim/4.jpg,stim/1.jpg,stim/latef.jpg,CD,1,2,,,,,,,,,0,30,30,28,,,,,,,,,,2,1,0.866331847129,,,,,,2016_Sep_21_1425,P15,PLC_L_D1S1,NHGX,60.0201702357,
stim/posf.jpg,stim/negf.jpg,stim/5.jpg,stim/2.jpg,stim/latef.jpg,AB,1,2,,,,,,,,,0,31,31,4,,,,,,,,,,2,1,0.88301834723,,,,,,2016_Sep_21_1425,P15,PLC_L_D1S1,NHGX,60.0201702357,
stim/posf.jpg,stim/negf.jpg,stim/1.jpg,stim/4.jpg,stim/latef.jpg,CD,2,4,,,,,,,,,0,32,32,36,,,,,,,,,,4,1,0.999685214397,,,,,,2016_Sep_21_1425,P15,PLC_L_D1S1,NHGX,60.0201702357,
stim/posf.jpg,stim/negf.jpg,stim/2.jpg,stim/5.jpg,stim/latef.jpg,AB,2,4,,,,,,,,,0,33,33,13,,,,,,,,,,4,1,0.88303057571,,,,,,2016_Sep_21_1425,P15,PLC_L_D1S1,NHGX,60.0201702357,
stim/posf.jpg,stim/negf.jpg,stim/3.jpg,stim/6.jpg,stim/latef.jpg,EF,1,2,,,,,,,,,0,34,34,41,,,,,,,,,,2,1,1.06632388629,,,,,,2016_Sep_21_1425,P15,PLC_L_D1S1,NHGX,60.0201702357,
stim/posf.jpg,stim/negf.jpg,stim/3.jpg,stim/6.jpg,stim/latef.jpg,EF,1,2,,,,,,,,,0,35,35,44,,,,,,,,,,2,1,1.04965867926,,,,,,2016_Sep_21_1425,P15,PLC_L_D1S1,NHGX,60.0201702357,
stim/negf.jpg,stim/posf.jpg,stim/3.jpg,stim/6.jpg,stim/latef.jpg,EF,1,2,,,,,,,,,0,36,36,49,,,,,,,,,,2,1,1.03300947812,,,,,,2016_Sep_21_1425,P15,PLC_L_D1S1,NHGX,60.0201702357,
stim/posf.jpg,stim/negf.jpg,stim/4.jpg,stim/1.jpg,stim/latef.jpg,CD,1,2,,,,,,,,,0,37,37,20,,,,,,,,,,2,1,1.01631468636,,,,,,2016_Sep_21_1425,P15,PLC_L_D1S1,NHGX,60.0201702357,
stim/posf.jpg,stim/negf.jpg,stim/6.jpg,stim/3.jpg,stim/latef.jpg,EF,2,4,,,,,,,,,0,38,38,53,,,,,,,,,,4,1,0.783073300201,,,,,,2016_Sep_21_1425,P15,PLC_L_D1S1,NHGX,60.0201702357,
stim/negf.jpg,stim/posf.jpg,stim/4.jpg,stim/1.jpg,stim/latef.jpg,CD,1,2,,,,,,,,,0,39,39,29,,,,,,,,,,2,1,0.799688697078,,,,,,2016_Sep_21_1425,P15,PLC_L_D1S1,NHGX,60.0201702357,
stim/posf.jpg,stim/negf.jpg,stim/4.jpg,stim/1.jpg,stim/latef.jpg,CD,1,2,,,,,,,,,0,40,40,21,,,,,,,,,,2,1,0.99965470034,,,,,,2016_Sep_21_1425,P15,PLC_L_D1S1,NHGX,60.0201702357,
stim/posf.jpg,stim/negf.jpg,stim/1.jpg,stim/4.jpg,stim/latef.jpg,CD,2,4,,,,,,,,,0,41,41,33,,,,,,,,,,4,1,1.01632253893,,,,,,2016_Sep_21_1425,P15,PLC_L_D1S1,NHGX,60.0201702357,
stim/negf.jpg,stim/posf.jpg,stim/6.jpg,stim/3.jpg,stim/latef.jpg,EF,2,4,,,,,,,,,0,42,42,56,,,,,,,,,,4,1,1.09962825543,,,,,,2016_Sep_21_1425,P15,PLC_L_D1S1,NHGX,60.0201702357,
stim/posf.jpg,stim/negf.jpg,stim/5.jpg,stim/2.jpg,stim/latef.jpg,AB,1,2,,,,,,,,,0,43,43,0,,,,,,,,,,2,1,1.33292353291,,,,,,2016_Sep_21_1425,P15,PLC_L_D1S1,NHGX,60.0201702357,
stim/posf.jpg,stim/negf.jpg,stim/1.jpg,stim/4.jpg,stim/latef.jpg,CD,2,4,,,,,,,,,0,44,44,35,,,,,,,,,,4,1,0.999634808761,,,,,,2016_Sep_21_1425,P15,PLC_L_D1S1,NHGX,60.0201702357,
stim/negf.jpg,stim/posf.jpg,stim/3.jpg,stim/6.jpg,stim/latef.jpg,EF,1,2,,,,,,,,,0,45,45,48,,,,,,,,,,2,1,1.21626130931,,,,,,2016_Sep_21_1425,P15,PLC_L_D1S1,NHGX,60.0201702357,
stim/negf.jpg,stim/posf.jpg,stim/6.jpg,stim/3.jpg,stim/latef.jpg,EF,2,4,,,,,,,,,0,46,46,58,,,,,,,,,,4,1,1.04965842663,,,,,,2016_Sep_21_1425,P15,PLC_L_D1S1,NHGX,60.0201702357,
stim/negf.jpg,stim/posf.jpg,stim/3.jpg,stim/6.jpg,stim/latef.jpg,EF,1,2,,,,,,,,,0,47,47,46,,,,,,,,,,2,1,1.03303487041,,,,,,2016_Sep_21_1425,P15,PLC_L_D1S1,NHGX,60.0201702357,
stim/posf.jpg,stim/negf.jpg,stim/1.jpg,stim/4.jpg,stim/latef.jpg,CD,2,4,,,,,,,,,0,48,48,31,,,,,,,,,,4,1,0.483185548981,,,,,,2016_Sep_21_1425,P15,PLC_L_D1S1,NHGX,60.0201702357,
stim/posf.jpg,stim/negf.jpg,stim/1.jpg,stim/4.jpg,stim/latef.jpg,CD,2,4,,,,,,,,,0,49,49,30,,,,,,,,,,4,1,0.899706263863,,,,,,2016_Sep_21_1425,P15,PLC_L_D1S1,NHGX,60.0201702357,
stim/negf.jpg,stim/posf.jpg,stim/6.jpg,stim/3.jpg,stim/latef.jpg,EF,2,4,,,,,,,,,0,50,50,59,,,,,,,,,,4,1,1.03309407899,,,,,,2016_Sep_21_1425,P15,PLC_L_D1S1,NHGX,60.0201702357,
stim/posf.jpg,stim/negf.jpg,stim/5.jpg,stim/2.jpg,stim/latef.jpg,AB,1,2,,,,,,,,,0,51,51,2,,,,,,,,,,2,1,1.06632229532,,,,,,2016_Sep_21_1425,P15,PLC_L_D1S1,NHGX,60.0201702357,
stim/posf.jpg,stim/negf.jpg,stim/1.jpg,stim/4.jpg,stim/latef.jpg,CD,2,4,,,,,,,,,0,52,52,32,,,,,,,,,,4,1,1.13295641085,,,,,,2016_Sep_21_1425,P15,PLC_L_D1S1,NHGX,60.0201702357,
stim/posf.jpg,stim/negf.jpg,stim/6.jpg,stim/3.jpg,stim/latef.jpg,EF,2,4,,,,,,,,,0,53,53,54,,,,,,,,,,4,1,0.832991992541,,,,,,2016_Sep_21_1425,P15,PLC_L_D1S1,NHGX,60.0201702357,
stim/posf.jpg,stim/negf.jpg,stim/2.jpg,stim/5.jpg,stim/latef.jpg,AB,2,4,,,,,,,,,0,54,54,16,,,,,,,,,,4,1,0.849777800167,,,,,,2016_Sep_21_1425,P15,PLC_L_D1S1,NHGX,60.0201702357,
stim/posf.jpg,stim/negf.jpg,stim/5.jpg,stim/2.jpg,stim/latef.jpg,AB,1,2,,,,,,,,,0,55,55,5,,,,,,,,,,2,1,1.06632004571,,,,,,2016_Sep_21_1425,P15,PLC_L_D1S1,NHGX,60.0201702357,
stim/posf.jpg,stim/negf.jpg,stim/3.jpg,stim/6.jpg,stim/latef.jpg,EF,1,2,,,,,,,,,0,56,56,45,,,,,,,,,,2,1,1.13295569507,,,,,,2016_Sep_21_1425,P15,PLC_L_D1S1,NHGX,60.0201702357,
stim/posf.jpg,stim/negf.jpg,stim/6.jpg,stim/3.jpg,stim/latef.jpg,EF,2,4,,,,,,,,,0,57,57,50,,,,,,,,,,4,1,1.11630511951,,,,,,2016_Sep_21_1425,P15,PLC_L_D1S1,NHGX,60.0201702357,
stim/posf.jpg,stim/negf.jpg,stim/5.jpg,stim/2.jpg,stim/latef.jpg,AB,1,2,,,,,,,,,0,58,58,1,,,,,,,,,,2,1,0.983014350268,,,,,,2016_Sep_21_1425,P15,PLC_L_D1S1,NHGX,60.0201702357,
stim/posf.jpg,stim/negf.jpg,stim/3.jpg,stim/6.jpg,stim/latef.jpg,EF,1,2,,,,,,,,,0,59,59,43,,,,,,,,,,2,1,0.949676588897,,,,,,2016_Sep_21_1425,P15,PLC_L_D1S1,NHGX,60.0201702357,
,,,,,,,,,,,,,,,,,,,,,,,,,,,,,,,,0.9984375,0.044921875,1,0,0,2016_Sep_21_1425,P15,PLC_L_D1S1,NHGX,60.0201702357,
stim/posf.jpg,stim/negf.jpg,stim/5.jpg,stim/2.jpg,stim/latef.jpg,AB,1,2,,,,,,,,,,,,,0,0,0,3,,,,,,2,1,0.949674552823,,,,,,2016_Sep_21_1425,P15,PLC_L_D1S1,NHGX,60.0201702357,
stim/posf.jpg,stim/negf.jpg,stim/3.jpg,stim/6.jpg,stim/latef.jpg,EF,1,2,,,,,,,,,,,,,0,1,1,44,,,,,,2,1,1.14960779242,,,,,,2016_Sep_21_1425,P15,PLC_L_D1S1,NHGX,60.0201702357,
stim/posf.jpg,stim/negf.jpg,stim/3.jpg,stim/6.jpg,stim/latef.jpg,EF,1,2,,,,,,,,,,,,,0,2,2,42,,,,,,2,1,0.766402192465,,,,,,2016_Sep_21_1425,P15,PLC_L_D1S1,NHGX,60.0201702357,
stim/negf.jpg,stim/posf.jpg,stim/4.jpg,stim/1.jpg,stim/latef.jpg,CD,1,2,,,,,,,,,,,,,0,3,3,27,,,,,,2,1,0.866346337246,,,,,,2016_Sep_21_1425,P15,PLC_L_D1S1,NHGX,60.0201702357,
stim/posf.jpg,stim/negf.jpg,stim/2.jpg,stim/5.jpg,stim/latef.jpg,AB,2,4,,,,,,,,,,,,,0,4,4,13,,,,,,4,1,0.999673364861,,,,,,2016_Sep_21_1425,P15,PLC_L_D1S1,NHGX,60.0201702357,
stim/posf.jpg,stim/negf.jpg,stim/4.jpg,stim/1.jpg,stim/latef.jpg,CD,1,2,,,,,,,,,,,,,0,5,5,26,,,,,,2,1,1.0496565289,,,,,,2016_Sep_21_1425,P15,PLC_L_D1S1,NHGX,60.0201702357,
stim/posf.jpg,stim/negf.jpg,stim/2.jpg,stim/5.jpg,stim/latef.jpg,AB,2,4,,,,,,,,,,,,,0,6,6,14,,,,,,4,1,0.982993198548,,,,,,2016_Sep_21_1425,P15,PLC_L_D1S1,NHGX,60.0201702357,
stim/posf.jpg,stim/negf.jpg,stim/2.jpg,stim/5.jpg,stim/latef.jpg,AB,2,4,,,,,,,,,,,,,0,7,7,15,,,,,,4,1,1.03304813347,,,,,,2016_Sep_21_1425,P15,PLC_L_D1S1,NHGX,60.0201702357,
stim/posf.jpg,stim/negf.jpg,stim/3.jpg,stim/6.jpg,stim/latef.jpg,EF,1,2,,,,,,,,,,,,,0,8,8,40,,,,,,2,1,1.06627834678,,,,,,2016_Sep_21_1425,P15,PLC_L_D1S1,NHGX,60.0201702357,
stim/posf.jpg,stim/negf.jpg,stim/6.jpg,stim/3.jpg,stim/latef.jpg,EF,2,4,,,,,,,,,,,,,0,9,9,50,,,,,,4,1,1.54951139315,,,,,,2016_Sep_21_1425,P15,PLC_L_D1S1,NHGX,60.0201702357,
stim/negf.jpg,stim/posf.jpg,stim/6.jpg,stim/3.jpg,stim/latef.jpg,EF,2,4,,,,,,,,,,,,,0,10,10,59,,,,,,4,1,0.98301090067,,,,,,2016_Sep_21_1425,P15,PLC_L_D1S1,NHGX,60.0201702357,
stim/posf.jpg,stim/negf.jpg,stim/5.jpg,stim/2.jpg,stim/latef.jpg,AB,1,2,,,,,,,,,,,,,0,11,11,1,,,,,,2,1,0.916352195848,,,,,,2016_Sep_21_1425,P15,PLC_L_D1S1,NHGX,60.0201702357,
stim/negf.jpg,stim/posf.jpg,stim/5.jpg,stim/2.jpg,stim/latef.jpg,AB,1,2,,,,,,,,,,,,,0,12,12,9,,,,,,2,1,0.899709878873,,,,,,2016_Sep_21_1425,P15,PLC_L_D1S1,NHGX,60.0201702357,
stim/negf.jpg,stim/posf.jpg,stim/4.jpg,stim/1.jpg,stim/latef.jpg,CD,1,2,,,,,,,,,,,,,0,13,13,28,,,,,,2,1,1.06631581717,,,,,,2016_Sep_21_1425,P15,PLC_L_D1S1,NHGX,60.0201702357,
stim/negf.jpg,stim/posf.jpg,stim/3.jpg,stim/6.jpg,stim/latef.jpg,EF,1,2,,,,,,,,,,,,,0,14,14,47,,,,,,2,1,0.966372896445,,,,,,2016_Sep_21_1425,P15,PLC_L_D1S1,NHGX,60.0201702357,
stim/posf.jpg,stim/negf.jpg,stim/5.jpg,stim/2.jpg,stim/latef.jpg,AB,1,2,,,,,,,,,,,,,0,15,15,6,,,,,,2,1,0.932971219765,,,,,,2016_Sep_21_1425,P15,PLC_L_D1S1,NHGX,60.0201702357,
stim/negf.jpg,stim/posf.jpg,stim/3.jpg,stim/6.jpg,stim/latef.jpg,EF,1,2,,,,,,,,,,,,,0,16,16,46,,,,,,2,1,0.699812079608,,,,,,2016_Sep_21_1425,P15,PLC_L_D1S1,NHGX,60.0201702357,
stim/negf.jpg,stim/posf.jpg,stim/2.jpg,stim/5.jpg,stim/latef.jpg,AB,2,4,,,,,,,,,,,,,0,17,17,19,,,,,,4,1,1.09960310073,,,,,,2016_Sep_21_1425,P15,PLC_L_D1S1,NHGX,60.0201702357,
stim/posf.jpg,stim/negf.jpg,stim/4.jpg,stim/1.jpg,stim/latef.jpg,CD,1,2,,,,,,,,,,,,,0,18,18,21,,,,,,2,1,0.816367275434,,,,,,2016_Sep_21_1425,P15,PLC_L_D1S1,NHGX,60.0201702357,
stim/posf.jpg,stim/negf.jpg,stim/1.jpg,stim/4.jpg,stim/latef.jpg,CD,2,4,,,,,,,,,,,,,0,19,19,32,,,,,,4,1,1.21624830189,,,,,,2016_Sep_21_1425,P15,PLC_L_D1S1,NHGX,60.0201702357,
stim/negf.jpg,stim/posf.jpg,stim/6.jpg,stim/3.jpg,stim/latef.jpg,EF,2,4,,,,,,,,,,,,,0,20,20,57,,,,,,4,1,0.866376303938,,,,,,2016_Sep_21_1425,P15,PLC_L_D1S1,NHGX,60.0201702357,
stim/posf.jpg,stim/negf.jpg,stim/6.jpg,stim/3.jpg,stim/latef.jpg,EF,2,4,,,,,,,,,,,,,0,21,21,52,,,,,,4,1,0.883100821798,,,,,,2016_Sep_21_1425,P15,PLC_L_D1S1,NHGX,60.0201702357,
stim/posf.jpg,stim/negf.jpg,stim/5.jpg,stim/2.jpg,stim/latef.jpg,AB,1,2,,,,,,,,,,,,,0,22,22,0,,,,,,2,1,0.98293627266,,,,,,2016_Sep_21_1425,P15,PLC_L_D1S1,NHGX,60.0201702357,
stim/negf.jpg,stim/posf.jpg,stim/6.jpg,stim/3.jpg,stim/latef.jpg,EF,2,4,,,,,,,,,,,,,0,23,23,58,,,,,,4,1,1.06630050902,,,,,,2016_Sep_21_1425,P15,PLC_L_D1S1,NHGX,60.0201702357,
stim/negf.jpg,stim/posf.jpg,stim/2.jpg,stim/5.jpg,stim/latef.jpg,AB,2,4,,,,,,,,,,,,,0,24,24,18,,,,,,4,1,1.08298923166,,,,,,2016_Sep_21_1425,P15,PLC_L_D1S1,NHGX,60.0201702357,
stim/negf.jpg,stim/posf.jpg,stim/1.jpg,stim/4.jpg,stim/latef.jpg,CD,2,4,,,,,,,,,,,,,0,25,25,37,,,,,,4,1,0.833063381478,,,,,,2016_Sep_21_1425,P15,PLC_L_D1S1,NHGX,60.0201702357,
stim/posf.jpg,stim/negf.jpg,stim/3.jpg,stim/6.jpg,stim/latef.jpg,EF,1,2,,,,,,,,,,,,,0,26,26,45,,,,,,2,1,0.916363173209,,,,,,2016_Sep_21_1425,P15,PLC_L_D1S1,NHGX,60.0201702357,
stim/posf.jpg,stim/negf.jpg,stim/2.jpg,stim/5.jpg,stim/latef.jpg,AB,2,4,,,,,,,,,,,,,0,27,27,12,,,,,,4,1,1.16632973286,,,,,,2016_Sep_21_1425,P15,PLC_L_D1S1,NHGX,60.0201702357,
stim/negf.jpg,stim/posf.jpg,stim/1.jpg,stim/4.jpg,stim/latef.jpg,CD,2,4,,,,,,,,,,,,,0,28,28,38,,,,,,4,1,1.21629609702,,,,,,2016_Sep_21_1425,P15,PLC_L_D1S1,NHGX,60.0201702357,
stim/posf.jpg,stim/negf.jpg,stim/2.jpg,stim/5.jpg,stim/latef.jpg,AB,2,4,,,,,,,,,,,,,0,29,29,10,,,,,,4,1,0.766446134991,,,,,,2016_Sep_21_1425,P15,PLC_L_D1S1,NHGX,60.0201702357,
stim/posf.jpg,stim/negf.jpg,stim/6.jpg,stim/3.jpg,stim/latef.jpg,EF,2,4,,,,,,,,,,,,,0,30,30,53,,,,,,4,1,1.58281478184,,,,,,2016_Sep_21_1425,P15,PLC_L_D1S1,NHGX,60.0201702357,
stim/posf.jpg,stim/negf.jpg,stim/1.jpg,stim/4.jpg,stim/latef.jpg,CD,2,4,,,,,,,,,,,,,0,31,31,34,,,,,,4,1,0.649790705334,,,,,,2016_Sep_21_1425,P15,PLC_L_D1S1,NHGX,60.0201702357,
stim/posf.jpg,stim/negf.jpg,stim/6.jpg,stim/3.jpg,stim/latef.jpg,EF,2,4,,,,,,,,,,,,,0,32,32,51,,,,,,4,1,0.949672125774,,,,,,2016_Sep_21_1425,P15,PLC_L_D1S1,NHGX,60.0201702357,
stim/posf.jpg,stim/negf.jpg,stim/5.jpg,stim/2.jpg,stim/latef.jpg,AB,1,2,,,,,,,,,,,,,0,33,33,2,,,,,,2,1,0.916343919218,,,,,,2016_Sep_21_1425,P15,PLC_L_D1S1,NHGX,60.0201702357,
stim/posf.jpg,stim/negf.jpg,stim/2.jpg,stim/5.jpg,stim/latef.jpg,AB,2,4,,,,,,,,,,,,,0,34,34,11,,,,,,4,1,0.816393467719,,,,,,2016_Sep_21_1425,P15,PLC_L_D1S1,NHGX,60.0201702357,
stim/posf.jpg,stim/negf.jpg,stim/5.jpg,stim/2.jpg,stim/latef.jpg,AB,1,2,,,,,,,,,,,,,0,35,35,4,,,,,,2,1,1.01632348328,,,,,,2016_Sep_21_1425,P15,PLC_L_D1S1,NHGX,60.0201702357,
stim/posf.jpg,stim/negf.jpg,stim/4.jpg,stim/1.jpg,stim/latef.jpg,CD,1,2,,,,,,,,,,,,,0,36,36,23,,,,,,2,1,0.866386932429,,,,,,2016_Sep_21_1425,P15,PLC_L_D1S1,NHGX,60.0201702357,
stim/posf.jpg,stim/negf.jpg,stim/1.jpg,stim/4.jpg,stim/latef.jpg,CD,2,4,,,,,,,,,,,,,0,37,37,36,,,,,,4,1,1.18294735228,,,,,,2016_Sep_21_1425,P15,PLC_L_D1S1,NHGX,60.0201702357,
stim/posf.jpg,stim/negf.jpg,stim/4.jpg,stim/1.jpg,stim/latef.jpg,CD,1,2,,,,,,,,,,,,,0,38,38,24,,,,,,2,1,1.14961910061,,,,,,2016_Sep_21_1425,P15,PLC_L_D1S1,NHGX,60.0201702357,
stim/negf.jpg,stim/posf.jpg,stim/5.jpg,stim/2.jpg,stim/latef.jpg,AB,1,2,,,,,,,,,,,,,0,39,39,8,,,,,,2,1,1.01630486387,,,,,,2016_Sep_21_1425,P15,PLC_L_D1S1,NHGX,60.0201702357,
stim/posf.jpg,stim/negf.jpg,stim/5.jpg,stim/2.jpg,stim/latef.jpg,AB,1,2,,,,,,,,,,,,,0,40,40,5,,,,,,2,1,1.3495510951,,,,,,2016_Sep_21_1425,P15,PLC_L_D1S1,NHGX,60.0201702357,
stim/negf.jpg,stim/posf.jpg,stim/4.jpg,stim/1.jpg,stim/latef.jpg,CD,1,2,,,,,,,,,,,,,0,41,41,29,,,,,,2,1,0.883025487027,,,,,,2016_Sep_21_1425,P15,PLC_L_D1S1,NHGX,60.0201702357,
stim/posf.jpg,stim/negf.jpg,stim/2.jpg,stim/5.jpg,stim/latef.jpg,AB,2,4,,,,,,,,,,,,,0,42,42,16,,,,,,4,1,0.949692095548,,,,,,2016_Sep_21_1425,P15,PLC_L_D1S1,NHGX,60.0201702357,
stim/posf.jpg,stim/negf.jpg,stim/1.jpg,stim/4.jpg,stim/latef.jpg,CD,2,4,,,,,,,,,,,,,0,43,43,35,,,,,,4,1,0.916393416591,,,,,,2016_Sep_21_1425,P15,PLC_L_D1S1,NHGX,60.0201702357,
stim/negf.jpg,stim/posf.jpg,stim/3.jpg,stim/6.jpg,stim/latef.jpg,EF,1,2,,,,,,,,,,,,,0,44,44,49,,,,,,2,1,0.899678892641,,,,,,2016_Sep_21_1425,P15,PLC_L_D1S1,NHGX,60.0201702357,
stim/posf.jpg,stim/negf.jpg,stim/1.jpg,stim/4.jpg,stim/latef.jpg,CD,2,4,,,,,,,,,,,,,0,45,45,30,,,,,,4,1,1.08292998699,,,,,,2016_Sep_21_1425,P15,PLC_L_D1S1,NHGX,60.0201702357,
stim/posf.jpg,stim/negf.jpg,stim/4.jpg,stim/1.jpg,stim/latef.jpg,CD,1,2,,,,,,,,,,,,,0,46,46,22,,,,,,2,1,0.899670591951,,,,,,2016_Sep_21_1425,P15,PLC_L_D1S1,NHGX,60.0201702357,
stim/posf.jpg,stim/negf.jpg,stim/3.jpg,stim/6.jpg,stim/latef.jpg,EF,1,2,,,,,,,,,,,,,0,47,47,41,,,,,,2,1,0.93304838911,,,,,,2016_Sep_21_1425,P15,PLC_L_D1S1,NHGX,60.0201702357,
stim/negf.jpg,stim/posf.jpg,stim/3.jpg,stim/6.jpg,stim/latef.jpg,EF,1,2,,,,,,,,,,,,,0,48,48,48,,,,,,2,1,1.03298241968,,,,,,2016_Sep_21_1425,P15,PLC_L_D1S1,NHGX,60.0201702357,
stim/posf.jpg,stim/negf.jpg,stim/6.jpg,stim/3.jpg,stim/latef.jpg,EF,2,4,,,,,,,,,,,,,0,49,49,55,,,,,,4,1,0.733102250359,,,,,,2016_Sep_21_1425,P15,PLC_L_D1S1,NHGX,60.0201702357,
stim/posf.jpg,stim/negf.jpg,stim/5.jpg,stim/2.jpg,stim/latef.jpg,AB,1,2,,,,,,,,,,,,,0,50,50,7,,,,,,2,1,0.932980837738,,,,,,2016_Sep_21_1425,P15,PLC_L_D1S1,NHGX,60.0201702357,
stim/posf.jpg,stim/negf.jpg,stim/6.jpg,stim/3.jpg,stim/latef.jpg,EF,2,4,,,,,,,,,,,,,0,51,51,54,,,,,,4,1,0.916356406343,,,,,,2016_Sep_21_1425,P15,PLC_L_D1S1,NHGX,60.0201702357,
stim/negf.jpg,stim/posf.jpg,stim/6.jpg,stim/3.jpg,stim/latef.jpg,EF,2,4,,,,,,,,,,,,,0,52,52,56,,,,,,4,1,0.683061832618,,,,,,2016_Sep_21_1425,P15,PLC_L_D1S1,NHGX,60.0201702357,
stim/posf.jpg,stim/negf.jpg,stim/1.jpg,stim/4.jpg,stim/latef.jpg,CD,2,4,,,,,,,,,,,,,0,53,53,33,,,,,,4,1,0.716448697378,,,,,,2016_Sep_21_1425,P15,PLC_L_D1S1,NHGX,60.0201702357,
stim/negf.jpg,stim/posf.jpg,stim/1.jpg,stim/4.jpg,stim/latef.jpg,CD,2,4,,,,,,,,,,,,,0,54,54,39,,,,,,4,1,0.99965149435,,,,,,2016_Sep_21_1425,P15,PLC_L_D1S1,NHGX,60.0201702357,
stim/posf.jpg,stim/negf.jpg,stim/4.jpg,stim/1.jpg,stim/latef.jpg,CD,1,2,,,,,,,,,,,,,0,55,55,20,,,,,,2,1,1.1330277216,,,,,,2016_Sep_21_1425,P15,PLC_L_D1S1,NHGX,60.0201702357,
stim/posf.jpg,stim/negf.jpg,stim/2.jpg,stim/5.jpg,stim/latef.jpg,AB,2,4,,,,,,,,,,,,,0,56,56,17,,,,,,4,1,0.816444065834,,,,,,2016_Sep_21_1425,P15,PLC_L_D1S1,NHGX,60.0201702357,
stim/posf.jpg,stim/negf.jpg,stim/4.jpg,stim/1.jpg,stim/latef.jpg,CD,1,2,,,,,,,,,,,,,0,57,57,25,,,,,,2,1,1.11627363403,,,,,,2016_Sep_21_1425,P15,PLC_L_D1S1,NHGX,60.0201702357,
stim/posf.jpg,stim/negf.jpg,stim/3.jpg,stim/6.jpg,stim/latef.jpg,EF,1,2,,,,,,,,,,,,,0,58,58,43,,,,,,2,1,0.916357519116,,,,,,2016_Sep_21_1425,P15,PLC_L_D1S1,NHGX,60.0201702357,
stim/posf.jpg,stim/negf.jpg,stim/1.jpg,stim/4.jpg,stim/latef.jpg,CD,2,4,,,,,,,,,,,,,0,59,59,31,,,,,,4,1,1.14961260442,,,,,,2016_Sep_21_1425,P15,PLC_L_D1S1,NHGX,60.0201702357,
