fb_corr,fb_incorr,symbol2,symbol1,fb_late,pair,position,correct,block_01.thisRepN,block_01.thisTrialN,block_01.thisN,block_01.thisIndex,block_02.thisRepN,block_02.thisTrialN,block_02.thisN,block_02.thisIndex,block_03.thisRepN,block_03.thisTrialN,block_03.thisN,block_03.thisIndex,block_04.thisRepN,block_04.thisTrialN,block_04.thisN,block_04.thisIndex,mouse.x,mouse.y,mouse.leftButton,mouse.midButton,mouse.rightButton,buttonBox_2.keys,buttonBox_2.corr,buttonBox_2.rt,mouse_2.x,mouse_2.y,mouse_2.leftButton,mouse_2.midButton,mouse_2.rightButton,date,Participant,expName,Group,frameRate,
,,,,,,,,,,,,,,,,,,,,,,,,0.9984375,0.802734375,1,0,0,,,,,,,,,2016_Jun_27_0920,P1,PLC_L_D1S1,NHGX,60.0201258154,
stim/posf.jpg,stim/negf.jpg,stim/3.jpg,stim/2.jpg,stim/latef.jpg,AB,1,2,0,0,0,7,,,,,,,,,,,,,,,,,,None,0,,,,,,,2016_Jun_27_0920,P1,PLC_L_D1S1,NHGX,60.0201258154,
stim/posf.jpg,stim/negf.jpg,stim/4.jpg,stim/6.jpg,stim/latef.jpg,EF,2,4,0,1,1,55,,,,,,,,,,,,,,,,,,4,1,0.733131786979,,,,,,2016_Jun_27_0920,P1,PLC_L_D1S1,NHGX,60.0201258154,
stim/posf.jpg,stim/negf.jpg,stim/1.jpg,stim/5.jpg,stim/latef.jpg,CD,2,4,0,2,2,36,,,,,,,,,,,,,,,,,,2,0,0.933027715581,,,,,,2016_Jun_27_0920,P1,PLC_L_D1S1,NHGX,60.0201258154,
stim/posf.jpg,stim/negf.jpg,stim/1.jpg,stim/5.jpg,stim/latef.jpg,CD,2,4,0,3,3,32,,,,,,,,,,,,,,,,,,2,0,0.733104057864,,,,,,2016_Jun_27_0920,P1,PLC_L_D1S1,NHGX,60.0201258154,
stim/negf.jpg,stim/posf.jpg,stim/4.jpg,stim/6.jpg,stim/latef.jpg,EF,2,4,0,4,4,59,,,,,,,,,,,,,,,,,,4,1,0.549845381614,,,,,,2016_Jun_27_0920,P1,PLC_L_D1S1,NHGX,60.0201258154,
stim/posf.jpg,stim/negf.jpg,stim/6.jpg,stim/4.jpg,stim/latef.jpg,EF,1,2,0,5,5,41,,,,,,,,,,,,,,,,,,2,1,1.28292315095,,,,,,2016_Jun_27_0920,P1,PLC_L_D1S1,NHGX,60.0201258154,
stim/negf.jpg,stim/posf.jpg,stim/2.jpg,stim/3.jpg,stim/latef.jpg,AB,2,4,0,6,6,18,,,,,,,,,,,,,,,,,,2,0,1.0663163074,,,,,,2016_Jun_27_0920,P1,PLC_L_D1S1,NHGX,60.0201258154,
stim/posf.jpg,stim/negf.jpg,stim/1.jpg,stim/5.jpg,stim/latef.jpg,CD,2,4,0,7,7,30,,,,,,,,,,,,,,,,,,2,0,1.0497016263,,,,,,2016_Jun_27_0920,P1,PLC_L_D1S1,NHGX,60.0201258154,
stim/posf.jpg,stim/negf.jpg,stim/5.jpg,stim/1.jpg,stim/latef.jpg,CD,1,2,0,8,8,25,,,,,,,,,,,,,,,,,,4,0,1.03300447365,,,,,,2016_Jun_27_0920,P1,PLC_L_D1S1,NHGX,60.0201258154,
stim/posf.jpg,stim/negf.jpg,stim/6.jpg,stim/4.jpg,stim/latef.jpg,EF,1,2,0,9,9,42,,,,,,,,,,,,,,,,,,4,0,1.23298354448,,,,,,2016_Jun_27_0920,P1,PLC_L_D1S1,NHGX,60.0201258154,
stim/negf.jpg,stim/posf.jpg,stim/3.jpg,stim/2.jpg,stim/latef.jpg,AB,1,2,0,10,10,9,,,,,,,,,,,,,,,,,,2,1,1.28289337073,,,,,,2016_Jun_27_0920,P1,PLC_L_D1S1,NHGX,60.0201258154,
stim/negf.jpg,stim/posf.jpg,stim/2.jpg,stim/3.jpg,stim/latef.jpg,AB,2,4,0,11,11,19,,,,,,,,,,,,,,,,,,2,0,1.44951201871,,,,,,2016_Jun_27_0920,P1,PLC_L_D1S1,NHGX,60.0201258154,
stim/posf.jpg,stim/negf.jpg,stim/4.jpg,stim/6.jpg,stim/latef.jpg,EF,2,4,0,12,12,54,,,,,,,,,,,,,,,,,,4,1,1.04967050473,,,,,,2016_Jun_27_0920,P1,PLC_L_D1S1,NHGX,60.0201258154,
stim/posf.jpg,stim/negf.jpg,stim/3.jpg,stim/2.jpg,stim/latef.jpg,AB,1,2,0,13,13,6,,,,,,,,,,,,,,,,,,4,0,1.51616058827,,,,,,2016_Jun_27_0920,P1,PLC_L_D1S1,NHGX,60.0201258154,
stim/posf.jpg,stim/negf.jpg,stim/1.jpg,stim/5.jpg,stim/latef.jpg,CD,2,4,0,14,14,35,,,,,,,,,,,,,,,,,,2,0,1.18287479342,,,,,,2016_Jun_27_0920,P1,PLC_L_D1S1,NHGX,60.0201258154,
stim/negf.jpg,stim/posf.jpg,stim/4.jpg,stim/6.jpg,stim/latef.jpg,EF,2,4,0,15,15,57,,,,,,,,,,,,,,,,,,4,1,0.71644691694,,,,,,2016_Jun_27_0920,P1,PLC_L_D1S1,NHGX,60.0201258154,
stim/negf.jpg,stim/posf.jpg,stim/5.jpg,stim/1.jpg,stim/latef.jpg,CD,1,2,0,16,16,28,,,,,,,,,,,,,,,,,,2,1,1.24959042112,,,,,,2016_Jun_27_0920,P1,PLC_L_D1S1,NHGX,60.0201258154,
stim/posf.jpg,stim/negf.jpg,stim/3.jpg,stim/2.jpg,stim/latef.jpg,AB,1,2,0,17,17,1,,,,,,,,,,,,,,,,,,4,0,1.1163180758,,,,,,2016_Jun_27_0920,P1,PLC_L_D1S1,NHGX,60.0201258154,
stim/posf.jpg,stim/negf.jpg,stim/5.jpg,stim/1.jpg,stim/latef.jpg,CD,1,2,0,18,18,24,,,,,,,,,,,,,,,,,,4,0,0.699740095187,,,,,,2016_Jun_27_0920,P1,PLC_L_D1S1,NHGX,60.0201258154,
stim/negf.jpg,stim/posf.jpg,stim/6.jpg,stim/4.jpg,stim/latef.jpg,EF,1,2,0,19,19,48,,,,,,,,,,,,,,,,,,2,1,0.699776167097,,,,,,2016_Jun_27_0920,P1,PLC_L_D1S1,NHGX,60.0201258154,
stim/posf.jpg,stim/negf.jpg,stim/2.jpg,stim/3.jpg,stim/latef.jpg,AB,2,4,0,20,20,15,,,,,,,,,,,,,,,,,,2,0,0.833024996805,,,,,,2016_Jun_27_0920,P1,PLC_L_D1S1,NHGX,60.0201258154,
stim/negf.jpg,stim/posf.jpg,stim/3.jpg,stim/2.jpg,stim/latef.jpg,AB,1,2,0,21,21,8,,,,,,,,,,,,,,,,,,4,0,0.766395212066,,,,,,2016_Jun_27_0920,P1,PLC_L_D1S1,NHGX,60.0201258154,
stim/posf.jpg,stim/negf.jpg,stim/1.jpg,stim/5.jpg,stim/latef.jpg,CD,2,4,0,22,22,33,,,,,,,,,,,,,,,,,,4,1,0.866382607649,,,,,,2016_Jun_27_0920,P1,PLC_L_D1S1,NHGX,60.0201258154,
stim/negf.jpg,stim/posf.jpg,stim/1.jpg,stim/5.jpg,stim/latef.jpg,CD,2,4,0,23,23,37,,,,,,,,,,,,,,,,,,4,1,0.749718817152,,,,,,2016_Jun_27_0920,P1,PLC_L_D1S1,NHGX,60.0201258154,
stim/negf.jpg,stim/posf.jpg,stim/4.jpg,stim/6.jpg,stim/latef.jpg,EF,2,4,0,24,24,58,,,,,,,,,,,,,,,,,,2,0,1.23294358689,,,,,,2016_Jun_27_0920,P1,PLC_L_D1S1,NHGX,60.0201258154,
stim/posf.jpg,stim/negf.jpg,stim/2.jpg,stim/3.jpg,stim/latef.jpg,AB,2,4,0,25,25,10,,,,,,,,,,,,,,,,,,2,0,1.08294993572,,,,,,2016_Jun_27_0920,P1,PLC_L_D1S1,NHGX,60.0201258154,
stim/negf.jpg,stim/posf.jpg,stim/4.jpg,stim/6.jpg,stim/latef.jpg,EF,2,4,0,26,26,56,,,,,,,,,,,,,,,,,,2,0,1.31622029007,,,,,,2016_Jun_27_0920,P1,PLC_L_D1S1,NHGX,60.0201258154,
stim/posf.jpg,stim/negf.jpg,stim/4.jpg,stim/6.jpg,stim/latef.jpg,EF,2,4,0,27,27,53,,,,,,,,,,,,,,,,,,2,0,1.13294789663,,,,,,2016_Jun_27_0920,P1,PLC_L_D1S1,NHGX,60.0201258154,
stim/posf.jpg,stim/negf.jpg,stim/2.jpg,stim/3.jpg,stim/latef.jpg,AB,2,4,0,28,28,13,,,,,,,,,,,,,,,,,,4,1,0.899704949587,,,,,,2016_Jun_27_0920,P1,PLC_L_D1S1,NHGX,60.0201258154,
stim/posf.jpg,stim/negf.jpg,stim/2.jpg,stim/3.jpg,stim/latef.jpg,AB,2,4,0,29,29,12,,,,,,,,,,,,,,,,,,4,1,0.733084241472,,,,,,2016_Jun_27_0920,P1,PLC_L_D1S1,NHGX,60.0201258154,
stim/posf.jpg,stim/negf.jpg,stim/4.jpg,stim/6.jpg,stim/latef.jpg,EF,2,4,0,30,30,51,,,,,,,,,,,,,,,,,,4,1,1.3495898106,,,,,,2016_Jun_27_0920,P1,PLC_L_D1S1,NHGX,60.0201258154,
stim/posf.jpg,stim/negf.jpg,stim/6.jpg,stim/4.jpg,stim/latef.jpg,EF,1,2,0,31,31,40,,,,,,,,,,,,,,,,,,2,1,1.26627293629,,,,,,2016_Jun_27_0920,P1,PLC_L_D1S1,NHGX,60.0201258154,
stim/posf.jpg,stim/negf.jpg,stim/2.jpg,stim/3.jpg,stim/latef.jpg,AB,2,4,0,32,32,14,,,,,,,,,,,,,,,,,,4,1,1.34951448485,,,,,,2016_Jun_27_0920,P1,PLC_L_D1S1,NHGX,60.0201258154,
stim/posf.jpg,stim/negf.jpg,stim/3.jpg,stim/2.jpg,stim/latef.jpg,AB,1,2,0,33,33,2,,,,,,,,,,,,,,,,,,2,1,1.14958947677,,,,,,2016_Jun_27_0920,P1,PLC_L_D1S1,NHGX,60.0201258154,
stim/posf.jpg,stim/negf.jpg,stim/5.jpg,stim/1.jpg,stim/latef.jpg,CD,1,2,0,34,34,23,,,,,,,,,,,,,,,,,,2,1,1.31616066947,,,,,,2016_Jun_27_0920,P1,PLC_L_D1S1,NHGX,60.0201258154,
stim/posf.jpg,stim/negf.jpg,stim/2.jpg,stim/3.jpg,stim/latef.jpg,AB,2,4,0,35,35,17,,,,,,,,,,,,,,,,,,4,1,1.13296493711,,,,,,2016_Jun_27_0920,P1,PLC_L_D1S1,NHGX,60.0201258154,
stim/posf.jpg,stim/negf.jpg,stim/6.jpg,stim/4.jpg,stim/latef.jpg,EF,1,2,0,36,36,44,,,,,,,,,,,,,,,,,,4,0,1.3329091661,,,,,,2016_Jun_27_0920,P1,PLC_L_D1S1,NHGX,60.0201258154,
stim/posf.jpg,stim/negf.jpg,stim/3.jpg,stim/2.jpg,stim/latef.jpg,AB,1,2,0,37,37,3,,,,,,,,,,,,,,,,,,2,1,1.13297514756,,,,,,2016_Jun_27_0920,P1,PLC_L_D1S1,NHGX,60.0201258154,
stim/negf.jpg,stim/posf.jpg,stim/6.jpg,stim/4.jpg,stim/latef.jpg,EF,1,2,0,38,38,46,,,,,,,,,,,,,,,,,,2,1,0.966360773227,,,,,,2016_Jun_27_0920,P1,PLC_L_D1S1,NHGX,60.0201258154,
stim/posf.jpg,stim/negf.jpg,stim/2.jpg,stim/3.jpg,stim/latef.jpg,AB,2,4,0,39,39,16,,,,,,,,,,,,,,,,,,2,0,1.4161735205,,,,,,2016_Jun_27_0920,P1,PLC_L_D1S1,NHGX,60.0201258154,
stim/posf.jpg,stim/negf.jpg,stim/4.jpg,stim/6.jpg,stim/latef.jpg,EF,2,4,0,40,40,52,,,,,,,,,,,,,,,,,,2,0,1.0496451365,,,,,,2016_Jun_27_0920,P1,PLC_L_D1S1,NHGX,60.0201258154,
stim/posf.jpg,stim/negf.jpg,stim/1.jpg,stim/5.jpg,stim/latef.jpg,CD,2,4,0,41,41,34,,,,,,,,,,,,,,,,,,4,1,0.999661130368,,,,,,2016_Jun_27_0920,P1,PLC_L_D1S1,NHGX,60.0201258154,
stim/negf.jpg,stim/posf.jpg,stim/6.jpg,stim/4.jpg,stim/latef.jpg,EF,1,2,0,42,42,49,,,,,,,,,,,,,,,,,,4,0,0.949669650604,,,,,,2016_Jun_27_0920,P1,PLC_L_D1S1,NHGX,60.0201258154,
stim/posf.jpg,stim/negf.jpg,stim/3.jpg,stim/2.jpg,stim/latef.jpg,AB,1,2,0,43,43,4,,,,,,,,,,,,,,,,,,4,0,0.933026473484,,,,,,2016_Jun_27_0920,P1,PLC_L_D1S1,NHGX,60.0201258154,
stim/negf.jpg,stim/posf.jpg,stim/5.jpg,stim/1.jpg,stim/latef.jpg,CD,1,2,0,44,44,29,,,,,,,,,,,,,,,,,,2,1,0.89977499718,,,,,,2016_Jun_27_0920,P1,PLC_L_D1S1,NHGX,60.0201258154,
stim/negf.jpg,stim/posf.jpg,stim/5.jpg,stim/1.jpg,stim/latef.jpg,CD,1,2,0,45,45,27,,,,,,,,,,,,,,,,,,2,1,1.04962413215,,,,,,2016_Jun_27_0920,P1,PLC_L_D1S1,NHGX,60.0201258154,
stim/posf.jpg,stim/negf.jpg,stim/4.jpg,stim/6.jpg,stim/latef.jpg,EF,2,4,0,46,46,50,,,,,,,,,,,,,,,,,,4,1,1.11627700544,,,,,,2016_Jun_27_0920,P1,PLC_L_D1S1,NHGX,60.0201258154,
stim/posf.jpg,stim/negf.jpg,stim/2.jpg,stim/3.jpg,stim/latef.jpg,AB,2,4,0,47,47,11,,,,,,,,,,,,,,,,,,4,1,0.966405380411,,,,,,2016_Jun_27_0920,P1,PLC_L_D1S1,NHGX,60.0201258154,
stim/posf.jpg,stim/negf.jpg,stim/3.jpg,stim/2.jpg,stim/latef.jpg,AB,1,2,0,48,48,5,,,,,,,,,,,,,,,,,,4,0,0.483151931189,,,,,,2016_Jun_27_0920,P1,PLC_L_D1S1,NHGX,60.0201258154,
stim/posf.jpg,stim/negf.jpg,stim/5.jpg,stim/1.jpg,stim/latef.jpg,CD,1,2,0,49,49,26,,,,,,,,,,,,,,,,,,2,1,1.14960044812,,,,,,2016_Jun_27_0920,P1,PLC_L_D1S1,NHGX,60.0201258154,
stim/negf.jpg,stim/posf.jpg,stim/1.jpg,stim/5.jpg,stim/latef.jpg,CD,2,4,0,50,50,39,,,,,,,,,,,,,,,,,,2,0,0.916367720543,,,,,,2016_Jun_27_0920,P1,PLC_L_D1S1,NHGX,60.0201258154,
stim/posf.jpg,stim/negf.jpg,stim/3.jpg,stim/2.jpg,stim/latef.jpg,AB,1,2,0,51,51,0,,,,,,,,,,,,,,,,,,2,1,1.14961264051,,,,,,2016_Jun_27_0920,P1,PLC_L_D1S1,NHGX,60.0201258154,
stim/posf.jpg,stim/negf.jpg,stim/6.jpg,stim/4.jpg,stim/latef.jpg,EF,1,2,0,52,52,43,,,,,,,,,,,,,,,,,,4,0,1.24959521507,,,,,,2016_Jun_27_0920,P1,PLC_L_D1S1,NHGX,60.0201258154,
stim/posf.jpg,stim/negf.jpg,stim/6.jpg,stim/4.jpg,stim/latef.jpg,EF,1,2,0,53,53,45,,,,,,,,,,,,,,,,,,2,1,1.19962313968,,,,,,2016_Jun_27_0920,P1,PLC_L_D1S1,NHGX,60.0201258154,
stim/negf.jpg,stim/posf.jpg,stim/1.jpg,stim/5.jpg,stim/latef.jpg,CD,2,4,0,54,54,38,,,,,,,,,,,,,,,,,,2,0,0.999691088037,,,,,,2016_Jun_27_0920,P1,PLC_L_D1S1,NHGX,60.0201258154,
stim/posf.jpg,stim/negf.jpg,stim/5.jpg,stim/1.jpg,stim/latef.jpg,CD,1,2,0,55,55,20,,,,,,,,,,,,,,,,,,4,0,1.23193704108,,,,,,2016_Jun_27_0920,P1,PLC_L_D1S1,NHGX,60.0201258154,
stim/posf.jpg,stim/negf.jpg,stim/5.jpg,stim/1.jpg,stim/latef.jpg,CD,1,2,0,56,56,21,,,,,,,,,,,,,,,,,,4,0,1.06632440057,,,,,,2016_Jun_27_0920,P1,PLC_L_D1S1,NHGX,60.0201258154,
stim/posf.jpg,stim/negf.jpg,stim/5.jpg,stim/1.jpg,stim/latef.jpg,CD,1,2,0,57,57,22,,,,,,,,,,,,,,,,,,2,1,1.04965076353,,,,,,2016_Jun_27_0920,P1,PLC_L_D1S1,NHGX,60.0201258154,
stim/negf.jpg,stim/posf.jpg,stim/6.jpg,stim/4.jpg,stim/latef.jpg,EF,1,2,0,58,58,47,,,,,,,,,,,,,,,,,,2,1,1.24958321817,,,,,,2016_Jun_27_0920,P1,PLC_L_D1S1,NHGX,60.0201258154,
stim/posf.jpg,stim/negf.jpg,stim/1.jpg,stim/5.jpg,stim/latef.jpg,CD,2,4,0,59,59,31,,,,,,,,,,,,,,,,,,2,0,1.09959856242,,,,,,2016_Jun_27_0920,P1,PLC_L_D1S1,NHGX,60.0201258154,
,,,,,,,,,,,,,,,,,,,,,,,,,,,,,,,,0.9984375,0.802734375,1,0,0,2016_Jun_27_0920,P1,PLC_L_D1S1,NHGX,60.0201258154,
stim/negf.jpg,stim/posf.jpg,stim/4.jpg,stim/6.jpg,stim/latef.jpg,EF,2,4,,,,,0,0,0,56,,,,,,,,,,,,,,2,0,0.566462161939,,,,,,2016_Jun_27_0920,P1,PLC_L_D1S1,NHGX,60.0201258154,
stim/posf.jpg,stim/negf.jpg,stim/4.jpg,stim/6.jpg,stim/latef.jpg,EF,2,4,,,,,0,1,1,53,,,,,,,,,,,,,,2,0,1.1496277652,,,,,,2016_Jun_27_0920,P1,PLC_L_D1S1,NHGX,60.0201258154,
stim/posf.jpg,stim/negf.jpg,stim/4.jpg,stim/6.jpg,stim/latef.jpg,EF,2,4,,,,,0,2,2,50,,,,,,,,,,,,,,4,1,0.949691668484,,,,,,2016_Jun_27_0920,P1,PLC_L_D1S1,NHGX,60.0201258154,
stim/posf.jpg,stim/negf.jpg,stim/3.jpg,stim/2.jpg,stim/latef.jpg,AB,1,2,,,,,0,3,3,4,,,,,,,,,,,,,,2,1,1.04970660672,,,,,,2016_Jun_27_0920,P1,PLC_L_D1S1,NHGX,60.0201258154,
stim/posf.jpg,stim/negf.jpg,stim/6.jpg,stim/4.jpg,stim/latef.jpg,EF,1,2,,,,,0,4,4,42,,,,,,,,,,,,,,4,0,1.0163367704,,,,,,2016_Jun_27_0920,P1,PLC_L_D1S1,NHGX,60.0201258154,
stim/posf.jpg,stim/negf.jpg,stim/3.jpg,stim/2.jpg,stim/latef.jpg,AB,1,2,,,,,0,5,5,7,,,,,,,,,,,,,,2,1,0.849715917925,,,,,,2016_Jun_27_0920,P1,PLC_L_D1S1,NHGX,60.0201258154,
stim/negf.jpg,stim/posf.jpg,stim/3.jpg,stim/2.jpg,stim/latef.jpg,AB,1,2,,,,,0,6,6,8,,,,,,,,,,,,,,2,1,1.03299284066,,,,,,2016_Jun_27_0920,P1,PLC_L_D1S1,NHGX,60.0201258154,
stim/negf.jpg,stim/posf.jpg,stim/5.jpg,stim/1.jpg,stim/latef.jpg,CD,1,2,,,,,0,7,7,29,,,,,,,,,,,,,,4,0,1.04965281163,,,,,,2016_Jun_27_0920,P1,PLC_L_D1S1,NHGX,60.0201258154,
stim/posf.jpg,stim/negf.jpg,stim/4.jpg,stim/6.jpg,stim/latef.jpg,EF,2,4,,,,,0,8,8,55,,,,,,,,,,,,,,4,1,1.33291977053,,,,,,2016_Jun_27_0920,P1,PLC_L_D1S1,NHGX,60.0201258154,
stim/negf.jpg,stim/posf.jpg,stim/6.jpg,stim/4.jpg,stim/latef.jpg,EF,1,2,,,,,0,9,9,48,,,,,,,,,,,,,,4,0,1.08295134623,,,,,,2016_Jun_27_0920,P1,PLC_L_D1S1,NHGX,60.0201258154,
stim/posf.jpg,stim/negf.jpg,stim/3.jpg,stim/2.jpg,stim/latef.jpg,AB,1,2,,,,,0,10,10,3,,,,,,,,,,,,,,4,0,1.31623679521,,,,,,2016_Jun_27_0920,P1,PLC_L_D1S1,NHGX,60.0201258154,
stim/posf.jpg,stim/negf.jpg,stim/5.jpg,stim/1.jpg,stim/latef.jpg,CD,1,2,,,,,0,11,11,24,,,,,,,,,,,,,,4,0,1.49956403937,,,,,,2016_Jun_27_0920,P1,PLC_L_D1S1,NHGX,60.0201258154,
stim/posf.jpg,stim/negf.jpg,stim/2.jpg,stim/3.jpg,stim/latef.jpg,AB,2,4,,,,,0,12,12,14,,,,,,,,,,,,,,2,0,1.09962922384,,,,,,2016_Jun_27_0920,P1,PLC_L_D1S1,NHGX,60.0201258154,
stim/negf.jpg,stim/posf.jpg,stim/1.jpg,stim/5.jpg,stim/latef.jpg,CD,2,4,,,,,0,13,13,38,,,,,,,,,,,,,,4,1,1.21627460846,,,,,,2016_Jun_27_0920,P1,PLC_L_D1S1,NHGX,60.0201258154,
stim/posf.jpg,stim/negf.jpg,stim/1.jpg,stim/5.jpg,stim/latef.jpg,CD,2,4,,,,,0,14,14,35,,,,,,,,,,,,,,2,0,1.23288143097,,,,,,2016_Jun_27_0920,P1,PLC_L_D1S1,NHGX,60.0201258154,
stim/posf.jpg,stim/negf.jpg,stim/5.jpg,stim/1.jpg,stim/latef.jpg,CD,1,2,,,,,0,15,15,25,,,,,,,,,,,,,,2,1,1.23292846219,,,,,,2016_Jun_27_0920,P1,PLC_L_D1S1,NHGX,60.0201258154,
stim/negf.jpg,stim/posf.jpg,stim/4.jpg,stim/6.jpg,stim/latef.jpg,EF,2,4,,,,,0,16,16,58,,,,,,,,,,,,,,2,0,1.04961829159,,,,,,2016_Jun_27_0920,P1,PLC_L_D1S1,NHGX,60.0201258154,
stim/posf.jpg,stim/negf.jpg,stim/1.jpg,stim/5.jpg,stim/latef.jpg,CD,2,4,,,,,0,17,17,31,,,,,,,,,,,,,,2,0,1.14958327832,,,,,,2016_Jun_27_0920,P1,PLC_L_D1S1,NHGX,60.0201258154,
stim/posf.jpg,stim/negf.jpg,stim/1.jpg,stim/5.jpg,stim/latef.jpg,CD,2,4,,,,,0,18,18,34,,,,,,,,,,,,,,4,1,0.99967494079,,,,,,2016_Jun_27_0920,P1,PLC_L_D1S1,NHGX,60.0201258154,
stim/negf.jpg,stim/posf.jpg,stim/3.jpg,stim/2.jpg,stim/latef.jpg,AB,1,2,,,,,0,19,19,9,,,,,,,,,,,,,,4,0,1.08296669048,,,,,,2016_Jun_27_0920,P1,PLC_L_D1S1,NHGX,60.0201258154,
stim/posf.jpg,stim/negf.jpg,stim/5.jpg,stim/1.jpg,stim/latef.jpg,CD,1,2,,,,,0,20,20,20,,,,,,,,,,,,,,2,1,0.982981264803,,,,,,2016_Jun_27_0920,P1,PLC_L_D1S1,NHGX,60.0201258154,
stim/negf.jpg,stim/posf.jpg,stim/4.jpg,stim/6.jpg,stim/latef.jpg,EF,2,4,,,,,0,21,21,57,,,,,,,,,,,,,,4,1,0.966358692041,,,,,,2016_Jun_27_0920,P1,PLC_L_D1S1,NHGX,60.0201258154,
stim/posf.jpg,stim/negf.jpg,stim/2.jpg,stim/3.jpg,stim/latef.jpg,AB,2,4,,,,,0,22,22,12,,,,,,,,,,,,,,4,1,1.34954604552,,,,,,2016_Jun_27_0920,P1,PLC_L_D1S1,NHGX,60.0201258154,
stim/posf.jpg,stim/negf.jpg,stim/6.jpg,stim/4.jpg,stim/latef.jpg,EF,1,2,,,,,0,23,23,43,,,,,,,,,,,,,,2,1,1.09957810242,,,,,,2016_Jun_27_0920,P1,PLC_L_D1S1,NHGX,60.0201258154,
stim/posf.jpg,stim/negf.jpg,stim/6.jpg,stim/4.jpg,stim/latef.jpg,EF,1,2,,,,,0,24,24,41,,,,,,,,,,,,,,4,0,1.16628288208,,,,,,2016_Jun_27_0920,P1,PLC_L_D1S1,NHGX,60.0201258154,
stim/posf.jpg,stim/negf.jpg,stim/6.jpg,stim/4.jpg,stim/latef.jpg,EF,1,2,,,,,0,25,25,40,,,,,,,,,,,,,,2,1,1.33294969211,,,,,,2016_Jun_27_0920,P1,PLC_L_D1S1,NHGX,60.0201258154,
stim/posf.jpg,stim/negf.jpg,stim/4.jpg,stim/6.jpg,stim/latef.jpg,EF,2,4,,,,,0,26,26,51,,,,,,,,,,,,,,4,1,1.54948237081,,,,,,2016_Jun_27_0920,P1,PLC_L_D1S1,NHGX,60.0201258154,
stim/posf.jpg,stim/negf.jpg,stim/3.jpg,stim/2.jpg,stim/latef.jpg,AB,1,2,,,,,0,27,27,6,,,,,,,,,,,,,,4,0,1.54948249412,,,,,,2016_Jun_27_0920,P1,PLC_L_D1S1,NHGX,60.0201258154,
stim/negf.jpg,stim/posf.jpg,stim/5.jpg,stim/1.jpg,stim/latef.jpg,CD,1,2,,,,,0,28,28,28,,,,,,,,,,,,,,4,0,0.916400090225,,,,,,2016_Jun_27_0920,P1,PLC_L_D1S1,NHGX,60.0201258154,
stim/negf.jpg,stim/posf.jpg,stim/6.jpg,stim/4.jpg,stim/latef.jpg,EF,1,2,,,,,0,29,29,46,,,,,,,,,,,,,,4,0,1.18295923189,,,,,,2016_Jun_27_0920,P1,PLC_L_D1S1,NHGX,60.0201258154,
stim/posf.jpg,stim/negf.jpg,stim/1.jpg,stim/5.jpg,stim/latef.jpg,CD,2,4,,,,,0,30,30,30,,,,,,,,,,,,,,2,0,1.64943239224,,,,,,2016_Jun_27_0920,P1,PLC_L_D1S1,NHGX,60.0201258154,
stim/posf.jpg,stim/negf.jpg,stim/5.jpg,stim/1.jpg,stim/latef.jpg,CD,1,2,,,,,0,31,31,22,,,,,,,,,,,,,,4,0,1.36621147209,,,,,,2016_Jun_27_0920,P1,PLC_L_D1S1,NHGX,60.0201258154,
stim/posf.jpg,stim/negf.jpg,stim/6.jpg,stim/4.jpg,stim/latef.jpg,EF,1,2,,,,,0,32,32,45,,,,,,,,,,,,,,4,0,0.983017977309,,,,,,2016_Jun_27_0920,P1,PLC_L_D1S1,NHGX,60.0201258154,
stim/posf.jpg,stim/negf.jpg,stim/3.jpg,stim/2.jpg,stim/latef.jpg,AB,1,2,,,,,0,33,33,5,,,,,,,,,,,,,,2,1,1.36621912016,,,,,,2016_Jun_27_0920,P1,PLC_L_D1S1,NHGX,60.0201258154,
stim/negf.jpg,stim/posf.jpg,stim/4.jpg,stim/6.jpg,stim/latef.jpg,EF,2,4,,,,,0,34,34,59,,,,,,,,,,,,,,2,0,0.816375600183,,,,,,2016_Jun_27_0920,P1,PLC_L_D1S1,NHGX,60.0201258154,
stim/posf.jpg,stim/negf.jpg,stim/6.jpg,stim/4.jpg,stim/latef.jpg,EF,1,2,,,,,0,35,35,44,,,,,,,,,,,,,,4,0,1.43286813783,,,,,,2016_Jun_27_0920,P1,PLC_L_D1S1,NHGX,60.0201258154,
stim/negf.jpg,stim/posf.jpg,stim/1.jpg,stim/5.jpg,stim/latef.jpg,CD,2,4,,,,,0,36,36,39,,,,,,,,,,,,,,2,0,1.64944674401,,,,,,2016_Jun_27_0920,P1,PLC_L_D1S1,NHGX,60.0201258154,
stim/negf.jpg,stim/posf.jpg,stim/5.jpg,stim/1.jpg,stim/latef.jpg,CD,1,2,,,,,0,37,37,27,,,,,,,,,,,,,,2,1,1.33289202638,,,,,,2016_Jun_27_0920,P1,PLC_L_D1S1,NHGX,60.0201258154,
stim/negf.jpg,stim/posf.jpg,stim/1.jpg,stim/5.jpg,stim/latef.jpg,CD,2,4,,,,,0,38,38,37,,,,,,,,,,,,,,2,0,1.23289896768,,,,,,2016_Jun_27_0920,P1,PLC_L_D1S1,NHGX,60.0201258154,
stim/posf.jpg,stim/negf.jpg,stim/1.jpg,stim/5.jpg,stim/latef.jpg,CD,2,4,,,,,0,39,39,32,,,,,,,,,,,,,,2,0,1.28291936452,,,,,,2016_Jun_27_0920,P1,PLC_L_D1S1,NHGX,60.0201258154,
stim/posf.jpg,stim/negf.jpg,stim/2.jpg,stim/3.jpg,stim/latef.jpg,AB,2,4,,,,,0,40,40,15,,,,,,,,,,,,,,4,1,1.16628567304,,,,,,2016_Jun_27_0920,P1,PLC_L_D1S1,NHGX,60.0201258154,
stim/posf.jpg,stim/negf.jpg,stim/3.jpg,stim/2.jpg,stim/latef.jpg,AB,1,2,,,,,0,41,41,2,,,,,,,,,,,,,,2,1,1.0829691476,,,,,,2016_Jun_27_0920,P1,PLC_L_D1S1,NHGX,60.0201258154,
stim/posf.jpg,stim/negf.jpg,stim/1.jpg,stim/5.jpg,stim/latef.jpg,CD,2,4,,,,,0,42,42,36,,,,,,,,,,,,,,2,0,1.63279945865,,,,,,2016_Jun_27_0920,P1,PLC_L_D1S1,NHGX,60.0201258154,
stim/posf.jpg,stim/negf.jpg,stim/2.jpg,stim/3.jpg,stim/latef.jpg,AB,2,4,,,,,0,43,43,11,,,,,,,,,,,,,,2,0,1.51617164683,,,,,,2016_Jun_27_0920,P1,PLC_L_D1S1,NHGX,60.0201258154,
stim/negf.jpg,stim/posf.jpg,stim/2.jpg,stim/3.jpg,stim/latef.jpg,AB,2,4,,,,,0,44,44,18,,,,,,,,,,,,,,4,1,0.833006521755,,,,,,2016_Jun_27_0920,P1,PLC_L_D1S1,NHGX,60.0201258154,
stim/posf.jpg,stim/negf.jpg,stim/2.jpg,stim/3.jpg,stim/latef.jpg,AB,2,4,,,,,0,45,45,16,,,,,,,,,,,,,,2,0,1.04963637266,,,,,,2016_Jun_27_0920,P1,PLC_L_D1S1,NHGX,60.0201258154,
stim/negf.jpg,stim/posf.jpg,stim/6.jpg,stim/4.jpg,stim/latef.jpg,EF,1,2,,,,,0,46,46,49,,,,,,,,,,,,,,4,0,0.933028945647,,,,,,2016_Jun_27_0920,P1,PLC_L_D1S1,NHGX,60.0201258154,
stim/posf.jpg,stim/negf.jpg,stim/4.jpg,stim/6.jpg,stim/latef.jpg,EF,2,4,,,,,0,47,47,54,,,,,,,,,,,,,,4,1,0.966323164487,,,,,,2016_Jun_27_0920,P1,PLC_L_D1S1,NHGX,60.0201258154,
stim/posf.jpg,stim/negf.jpg,stim/4.jpg,stim/6.jpg,stim/latef.jpg,EF,2,4,,,,,0,48,48,52,,,,,,,,,,,,,,2,0,1.16627901745,,,,,,2016_Jun_27_0920,P1,PLC_L_D1S1,NHGX,60.0201258154,
stim/negf.jpg,stim/posf.jpg,stim/2.jpg,stim/3.jpg,stim/latef.jpg,AB,2,4,,,,,0,49,49,19,,,,,,,,,,,,,,4,1,1.29957319118,,,,,,2016_Jun_27_0920,P1,PLC_L_D1S1,NHGX,60.0201258154,
stim/posf.jpg,stim/negf.jpg,stim/3.jpg,stim/2.jpg,stim/latef.jpg,AB,1,2,,,,,0,50,50,1,,,,,,,,,,,,,,4,0,1.58279989474,,,,,,2016_Jun_27_0920,P1,PLC_L_D1S1,NHGX,60.0201258154,
stim/negf.jpg,stim/posf.jpg,stim/6.jpg,stim/4.jpg,stim/latef.jpg,EF,1,2,,,,,0,51,51,47,,,,,,,,,,,,,,4,0,0.733022774265,,,,,,2016_Jun_27_0920,P1,PLC_L_D1S1,NHGX,60.0201258154,
stim/posf.jpg,stim/negf.jpg,stim/5.jpg,stim/1.jpg,stim/latef.jpg,CD,1,2,,,,,0,52,52,23,,,,,,,,,,,,,,4,0,1.19959377448,,,,,,2016_Jun_27_0920,P1,PLC_L_D1S1,NHGX,60.0201258154,
stim/posf.jpg,stim/negf.jpg,stim/2.jpg,stim/3.jpg,stim/latef.jpg,AB,2,4,,,,,0,53,53,17,,,,,,,,,,,,,,4,1,1.33289373463,,,,,,2016_Jun_27_0920,P1,PLC_L_D1S1,NHGX,60.0201258154,
stim/posf.jpg,stim/negf.jpg,stim/5.jpg,stim/1.jpg,stim/latef.jpg,CD,1,2,,,,,0,54,54,21,,,,,,,,,,,,,,2,1,1.38293156292,,,,,,2016_Jun_27_0920,P1,PLC_L_D1S1,NHGX,60.0201258154,
stim/posf.jpg,stim/negf.jpg,stim/2.jpg,stim/3.jpg,stim/latef.jpg,AB,2,4,,,,,0,55,55,13,,,,,,,,,,,,,,2,0,1.08297449794,,,,,,2016_Jun_27_0920,P1,PLC_L_D1S1,NHGX,60.0201258154,
stim/posf.jpg,stim/negf.jpg,stim/5.jpg,stim/1.jpg,stim/latef.jpg,CD,1,2,,,,,0,56,56,26,,,,,,,,,,,,,,2,1,1.04966357847,,,,,,2016_Jun_27_0920,P1,PLC_L_D1S1,NHGX,60.0201258154,
stim/posf.jpg,stim/negf.jpg,stim/1.jpg,stim/5.jpg,stim/latef.jpg,CD,2,4,,,,,0,57,57,33,,,,,,,,,,,,,,2,0,1.36723639672,,,,,,2016_Jun_27_0920,P1,PLC_L_D1S1,NHGX,60.0201258154,
stim/posf.jpg,stim/negf.jpg,stim/3.jpg,stim/2.jpg,stim/latef.jpg,AB,1,2,,,,,0,58,58,0,,,,,,,,,,,,,,4,0,1.01632342915,,,,,,2016_Jun_27_0920,P1,PLC_L_D1S1,NHGX,60.0201258154,
stim/posf.jpg,stim/negf.jpg,stim/2.jpg,stim/3.jpg,stim/latef.jpg,AB,2,4,,,,,0,59,59,10,,,,,,,,,,,,,,4,1,0.8164491876,,,,,,2016_Jun_27_0920,P1,PLC_L_D1S1,NHGX,60.0201258154,
,,,,,,,,,,,,,,,,,,,,,,,,,,,,,,,,0.80625,-0.998046875,1,0,0,2016_Jun_27_0920,P1,PLC_L_D1S1,NHGX,60.0201258154,
stim/posf.jpg,stim/negf.jpg,stim/4.jpg,stim/6.jpg,stim/latef.jpg,EF,2,4,,,,,,,,,0,0,0,51,,,,,,,,,,2,0,0.916377630243,,,,,,2016_Jun_27_0920,P1,PLC_L_D1S1,NHGX,60.0201258154,
stim/posf.jpg,stim/negf.jpg,stim/5.jpg,stim/1.jpg,stim/latef.jpg,CD,1,2,,,,,,,,,0,1,1,25,,,,,,,,,,2,1,0.716408550311,,,,,,2016_Jun_27_0920,P1,PLC_L_D1S1,NHGX,60.0201258154,
stim/negf.jpg,stim/posf.jpg,stim/6.jpg,stim/4.jpg,stim/latef.jpg,EF,1,2,,,,,,,,,0,2,2,48,,,,,,,,,,4,0,1.23292405019,,,,,,2016_Jun_27_0920,P1,PLC_L_D1S1,NHGX,60.0201258154,
stim/negf.jpg,stim/posf.jpg,stim/5.jpg,stim/1.jpg,stim/latef.jpg,CD,1,2,,,,,,,,,0,3,3,28,,,,,,,,,,4,0,0.816498859407,,,,,,2016_Jun_27_0920,P1,PLC_L_D1S1,NHGX,60.0201258154,
stim/posf.jpg,stim/negf.jpg,stim/1.jpg,stim/5.jpg,stim/latef.jpg,CD,2,4,,,,,,,,,0,4,4,31,,,,,,,,,,2,0,0.899705262366,,,,,,2016_Jun_27_0920,P1,PLC_L_D1S1,NHGX,60.0201258154,
stim/posf.jpg,stim/negf.jpg,stim/4.jpg,stim/6.jpg,stim/latef.jpg,EF,2,4,,,,,,,,,0,5,5,52,,,,,,,,,,4,1,0.96634115533,,,,,,2016_Jun_27_0920,P1,PLC_L_D1S1,NHGX,60.0201258154,
stim/posf.jpg,stim/negf.jpg,stim/6.jpg,stim/4.jpg,stim/latef.jpg,EF,1,2,,,,,,,,,0,6,6,45,,,,,,,,,,2,1,0.649722588551,,,,,,2016_Jun_27_0920,P1,PLC_L_D1S1,NHGX,60.0201258154,
stim/negf.jpg,stim/posf.jpg,stim/1.jpg,stim/5.jpg,stim/latef.jpg,CD,2,4,,,,,,,,,0,7,7,37,,,,,,,,,,4,1,1.04967056789,,,,,,2016_Jun_27_0920,P1,PLC_L_D1S1,NHGX,60.0201258154,
stim/posf.jpg,stim/negf.jpg,stim/3.jpg,stim/2.jpg,stim/latef.jpg,AB,1,2,,,,,,,,,0,8,8,5,,,,,,,,,,4,0,1.39952683664,,,,,,2016_Jun_27_0920,P1,PLC_L_D1S1,NHGX,60.0201258154,
stim/posf.jpg,stim/negf.jpg,stim/2.jpg,stim/3.jpg,stim/latef.jpg,AB,2,4,,,,,,,,,0,9,9,12,,,,,,,,,,2,0,0.982990452704,,,,,,2016_Jun_27_0920,P1,PLC_L_D1S1,NHGX,60.0201258154,
stim/posf.jpg,stim/negf.jpg,stim/6.jpg,stim/4.jpg,stim/latef.jpg,EF,1,2,,,,,,,,,0,10,10,41,,,,,,,,,,4,0,1.26622844339,,,,,,2016_Jun_27_0920,P1,PLC_L_D1S1,NHGX,60.0201258154,
stim/posf.jpg,stim/negf.jpg,stim/1.jpg,stim/5.jpg,stim/latef.jpg,CD,2,4,,,,,,,,,0,11,11,32,,,,,,,,,,4,1,1.04965623717,,,,,,2016_Jun_27_0920,P1,PLC_L_D1S1,NHGX,60.0201258154,
stim/negf.jpg,stim/posf.jpg,stim/4.jpg,stim/6.jpg,stim/latef.jpg,EF,2,4,,,,,,,,,0,12,12,56,,,,,,,,,,4,1,1.44951904422,,,,,,2016_Jun_27_0920,P1,PLC_L_D1S1,NHGX,60.0201258154,
stim/negf.jpg,stim/posf.jpg,stim/4.jpg,stim/6.jpg,stim/latef.jpg,EF,2,4,,,,,,,,,0,13,13,57,,,,,,,,,,2,0,0.916265173945,,,,,,2016_Jun_27_0920,P1,PLC_L_D1S1,NHGX,60.0201258154,
stim/negf.jpg,stim/posf.jpg,stim/2.jpg,stim/3.jpg,stim/latef.jpg,AB,2,4,,,,,,,,,0,14,14,18,,,,,,,,,,2,0,1.39958927226,,,,,,2016_Jun_27_0920,P1,PLC_L_D1S1,NHGX,60.0201258154,
stim/negf.jpg,stim/posf.jpg,stim/6.jpg,stim/4.jpg,stim/latef.jpg,EF,1,2,,,,,,,,,0,15,15,47,,,,,,,,,,2,1,1.5494607018,,,,,,2016_Jun_27_0920,P1,PLC_L_D1S1,NHGX,60.0201258154,
stim/negf.jpg,stim/posf.jpg,stim/1.jpg,stim/5.jpg,stim/latef.jpg,CD,2,4,,,,,,,,,0,16,16,38,,,,,,,,,,4,1,1.06634274028,,,,,,2016_Jun_27_0920,P1,PLC_L_D1S1,NHGX,60.0201258154,
stim/posf.jpg,stim/negf.jpg,stim/4.jpg,stim/6.jpg,stim/latef.jpg,EF,2,4,,,,,,,,,0,17,17,54,,,,,,,,,,2,0,1.01633141104,,,,,,2016_Jun_27_0920,P1,PLC_L_D1S1,NHGX,60.0201258154,
stim/posf.jpg,stim/negf.jpg,stim/1.jpg,stim/5.jpg,stim/latef.jpg,CD,2,4,,,,,,,,,0,18,18,36,,,,,,,,,,2,0,0.949699250382,,,,,,2016_Jun_27_0920,P1,PLC_L_D1S1,NHGX,60.0201258154,
stim/posf.jpg,stim/negf.jpg,stim/1.jpg,stim/5.jpg,stim/latef.jpg,CD,2,4,,,,,,,,,0,19,19,35,,,,,,,,,,4,1,0.949679355794,,,,,,2016_Jun_27_0920,P1,PLC_L_D1S1,NHGX,60.0201258154,
stim/posf.jpg,stim/negf.jpg,stim/4.jpg,stim/6.jpg,stim/latef.jpg,EF,2,4,,,,,,,,,0,20,20,53,,,,,,,,,,4,1,1.13294798986,,,,,,2016_Jun_27_0920,P1,PLC_L_D1S1,NHGX,60.0201258154,
stim/posf.jpg,stim/negf.jpg,stim/3.jpg,stim/2.jpg,stim/latef.jpg,AB,1,2,,,,,,,,,0,21,21,1,,,,,,,,,,4,0,1.16625441914,,,,,,2016_Jun_27_0920,P1,PLC_L_D1S1,NHGX,60.0201258154,
stim/negf.jpg,stim/posf.jpg,stim/6.jpg,stim/4.jpg,stim/latef.jpg,EF,1,2,,,,,,,,,0,22,22,46,,,,,,,,,,2,1,0.983022981782,,,,,,2016_Jun_27_0920,P1,PLC_L_D1S1,NHGX,60.0201258154,
stim/posf.jpg,stim/negf.jpg,stim/6.jpg,stim/4.jpg,stim/latef.jpg,EF,1,2,,,,,,,,,0,23,23,42,,,,,,,,,,2,1,0.816392956443,,,,,,2016_Jun_27_0920,P1,PLC_L_D1S1,NHGX,60.0201258154,
stim/negf.jpg,stim/posf.jpg,stim/3.jpg,stim/2.jpg,stim/latef.jpg,AB,1,2,,,,,,,,,0,24,24,9,,,,,,,,,,4,0,1.33289424591,,,,,,2016_Jun_27_0920,P1,PLC_L_D1S1,NHGX,60.0201258154,
stim/posf.jpg,stim/negf.jpg,stim/3.jpg,stim/2.jpg,stim/latef.jpg,AB,1,2,,,,,,,,,0,25,25,6,,,,,,,,,,4,0,0.999672576898,,,,,,2016_Jun_27_0920,P1,PLC_L_D1S1,NHGX,60.0201258154,
stim/posf.jpg,stim/negf.jpg,stim/2.jpg,stim/3.jpg,stim/latef.jpg,AB,2,4,,,,,,,,,0,26,26,13,,,,,,,,,,2,0,1.23292426974,,,,,,2016_Jun_27_0920,P1,PLC_L_D1S1,NHGX,60.0201258154,
stim/negf.jpg,stim/posf.jpg,stim/2.jpg,stim/3.jpg,stim/latef.jpg,AB,2,4,,,,,,,,,0,27,27,19,,,,,,,,,,4,1,0.999677785881,,,,,,2016_Jun_27_0920,P1,PLC_L_D1S1,NHGX,60.0201258154,
stim/negf.jpg,stim/posf.jpg,stim/5.jpg,stim/1.jpg,stim/latef.jpg,CD,1,2,,,,,,,,,0,28,28,27,,,,,,,,,,2,1,1.24955634318,,,,,,2016_Jun_27_0920,P1,PLC_L_D1S1,NHGX,60.0201258154,
stim/posf.jpg,stim/negf.jpg,stim/6.jpg,stim/4.jpg,stim/latef.jpg,EF,1,2,,,,,,,,,0,29,29,44,,,,,,,,,,2,1,0.833057164984,,,,,,2016_Jun_27_0920,P1,PLC_L_D1S1,NHGX,60.0201258154,
stim/negf.jpg,stim/posf.jpg,stim/6.jpg,stim/4.jpg,stim/latef.jpg,EF,1,2,,,,,,,,,0,30,30,49,,,,,,,,,,2,1,0.916386291832,,,,,,2016_Jun_27_0920,P1,PLC_L_D1S1,NHGX,60.0201258154,
stim/posf.jpg,stim/negf.jpg,stim/2.jpg,stim/3.jpg,stim/latef.jpg,AB,2,4,,,,,,,,,0,31,31,17,,,,,,,,,,2,0,1.19961589161,,,,,,2016_Jun_27_0920,P1,PLC_L_D1S1,NHGX,60.0201258154,
stim/posf.jpg,stim/negf.jpg,stim/3.jpg,stim/2.jpg,stim/latef.jpg,AB,1,2,,,,,,,,,0,32,32,0,,,,,,,,,,4,0,0.233243560575,,,,,,2016_Jun_27_0920,P1,PLC_L_D1S1,NHGX,60.0201258154,
stim/posf.jpg,stim/negf.jpg,stim/1.jpg,stim/5.jpg,stim/latef.jpg,CD,2,4,,,,,,,,,0,33,33,30,,,,,,,,,,4,1,0.899723132909,,,,,,2016_Jun_27_0920,P1,PLC_L_D1S1,NHGX,60.0201258154,
stim/posf.jpg,stim/negf.jpg,stim/2.jpg,stim/3.jpg,stim/latef.jpg,AB,2,4,,,,,,,,,0,34,34,14,,,,,,,,,,4,1,1.1996535996,,,,,,2016_Jun_27_0920,P1,PLC_L_D1S1,NHGX,60.0201258154,
stim/posf.jpg,stim/negf.jpg,stim/1.jpg,stim/5.jpg,stim/latef.jpg,CD,2,4,,,,,,,,,0,35,35,34,,,,,,,,,,4,1,1.31620620597,,,,,,2016_Jun_27_0920,P1,PLC_L_D1S1,NHGX,60.0201258154,
stim/posf.jpg,stim/negf.jpg,stim/4.jpg,stim/6.jpg,stim/latef.jpg,EF,2,4,,,,,,,,,0,36,36,50,,,,,,,,,,4,1,1.1996110736,,,,,,2016_Jun_27_0920,P1,PLC_L_D1S1,NHGX,60.0201258154,
stim/posf.jpg,stim/negf.jpg,stim/6.jpg,stim/4.jpg,stim/latef.jpg,EF,1,2,,,,,,,,,0,37,37,43,,,,,,,,,,2,1,1.59947692123,,,,,,2016_Jun_27_0920,P1,PLC_L_D1S1,NHGX,60.0201258154,
stim/posf.jpg,stim/negf.jpg,stim/2.jpg,stim/3.jpg,stim/latef.jpg,AB,2,4,,,,,,,,,0,38,38,16,,,,,,,,,,2,0,1.4328233893,,,,,,2016_Jun_27_0920,P1,PLC_L_D1S1,NHGX,60.0201258154,
stim/posf.jpg,stim/negf.jpg,stim/5.jpg,stim/1.jpg,stim/latef.jpg,CD,1,2,,,,,,,,,0,39,39,24,,,,,,,,,,2,1,0.999671455102,,,,,,2016_Jun_27_0920,P1,PLC_L_D1S1,NHGX,60.0201258154,
stim/posf.jpg,stim/negf.jpg,stim/4.jpg,stim/6.jpg,stim/latef.jpg,EF,2,4,,,,,,,,,0,40,40,55,,,,,,,,,,2,0,1.26625968827,,,,,,2016_Jun_27_0920,P1,PLC_L_D1S1,NHGX,60.0201258154,
stim/posf.jpg,stim/negf.jpg,stim/2.jpg,stim/3.jpg,stim/latef.jpg,AB,2,4,,,,,,,,,0,41,41,15,,,,,,,,,,4,1,1.09964523274,,,,,,2016_Jun_27_0920,P1,PLC_L_D1S1,NHGX,60.0201258154,
stim/negf.jpg,stim/posf.jpg,stim/5.jpg,stim/1.jpg,stim/latef.jpg,CD,1,2,,,,,,,,,0,42,42,29,,,,,,,,,,4,0,1.2829133014,,,,,,2016_Jun_27_0920,P1,PLC_L_D1S1,NHGX,60.0201258154,
stim/negf.jpg,stim/posf.jpg,stim/1.jpg,stim/5.jpg,stim/latef.jpg,CD,2,4,,,,,,,,,0,43,43,39,,,,,,,,,,2,0,1.11630677664,,,,,,2016_Jun_27_0920,P1,PLC_L_D1S1,NHGX,60.0201258154,
stim/posf.jpg,stim/negf.jpg,stim/5.jpg,stim/1.jpg,stim/latef.jpg,CD,1,2,,,,,,,,,0,44,44,20,,,,,,,,,,2,1,1.2995351644,,,,,,2016_Jun_27_0920,P1,PLC_L_D1S1,NHGX,60.0201258154,
stim/posf.jpg,stim/negf.jpg,stim/2.jpg,stim/3.jpg,stim/latef.jpg,AB,2,4,,,,,,,,,0,45,45,11,,,,,,,,,,4,1,1.23292891332,,,,,,2016_Jun_27_0920,P1,PLC_L_D1S1,NHGX,60.0201258154,
stim/posf.jpg,stim/negf.jpg,stim/5.jpg,stim/1.jpg,stim/latef.jpg,CD,1,2,,,,,,,,,0,46,46,26,,,,,,,,,,4,0,1.18294226359,,,,,,2016_Jun_27_0920,P1,PLC_L_D1S1,NHGX,60.0201258154,
stim/negf.jpg,stim/posf.jpg,stim/4.jpg,stim/6.jpg,stim/latef.jpg,EF,2,4,,,,,,,,,0,47,47,59,,,,,,,,,,4,1,1.13298743618,,,,,,2016_Jun_27_0920,P1,PLC_L_D1S1,NHGX,60.0201258154,
stim/posf.jpg,stim/negf.jpg,stim/1.jpg,stim/5.jpg,stim/latef.jpg,CD,2,4,,,,,,,,,0,48,48,33,,,,,,,,,,4,1,1.38283180427,,,,,,2016_Jun_27_0920,P1,PLC_L_D1S1,NHGX,60.0201258154,
stim/posf.jpg,stim/negf.jpg,stim/3.jpg,stim/2.jpg,stim/latef.jpg,AB,1,2,,,,,,,,,0,49,49,3,,,,,,,,,,2,1,1.31623544785,,,,,,2016_Jun_27_0920,P1,PLC_L_D1S1,NHGX,60.0201258154,
stim/posf.jpg,stim/negf.jpg,stim/5.jpg,stim/1.jpg,stim/latef.jpg,CD,1,2,,,,,,,,,0,50,50,23,,,,,,,,,,4,0,1.36622826595,,,,,,2016_Jun_27_0920,P1,PLC_L_D1S1,NHGX,60.0201258154,
stim/posf.jpg,stim/negf.jpg,stim/3.jpg,stim/2.jpg,stim/latef.jpg,AB,1,2,,,,,,,,,0,51,51,4,,,,,,,,,,2,1,1.49951164578,,,,,,2016_Jun_27_0920,P1,PLC_L_D1S1,NHGX,60.0201258154,
stim/negf.jpg,stim/posf.jpg,stim/4.jpg,stim/6.jpg,stim/latef.jpg,EF,2,4,,,,,,,,,0,52,52,58,,,,,,,,,,2,0,1.31620578191,,,,,,2016_Jun_27_0920,P1,PLC_L_D1S1,NHGX,60.0201258154,
stim/posf.jpg,stim/negf.jpg,stim/2.jpg,stim/3.jpg,stim/latef.jpg,AB,2,4,,,,,,,,,0,53,53,10,,,,,,,,,,4,1,1.21625018459,,,,,,2016_Jun_27_0920,P1,PLC_L_D1S1,NHGX,60.0201258154,
stim/negf.jpg,stim/posf.jpg,stim/3.jpg,stim/2.jpg,stim/latef.jpg,AB,1,2,,,,,,,,,0,54,54,8,,,,,,,,,,4,0,1.06630883978,,,,,,2016_Jun_27_0920,P1,PLC_L_D1S1,NHGX,60.0201258154,
stim/posf.jpg,stim/negf.jpg,stim/5.jpg,stim/1.jpg,stim/latef.jpg,CD,1,2,,,,,,,,,0,55,55,22,,,,,,,,,,2,1,1.08290091653,,,,,,2016_Jun_27_0920,P1,PLC_L_D1S1,NHGX,60.0201258154,
stim/posf.jpg,stim/negf.jpg,stim/5.jpg,stim/1.jpg,stim/latef.jpg,CD,1,2,,,,,,,,,0,56,56,21,,,,,,,,,,2,1,1.46617249795,,,,,,2016_Jun_27_0920,P1,PLC_L_D1S1,NHGX,60.0201258154,
stim/posf.jpg,stim/negf.jpg,stim/3.jpg,stim/2.jpg,stim/latef.jpg,AB,1,2,,,,,,,,,0,57,57,2,,,,,,,,,,4,0,1.23292005323,,,,,,2016_Jun_27_0920,P1,PLC_L_D1S1,NHGX,60.0201258154,
stim/posf.jpg,stim/negf.jpg,stim/3.jpg,stim/2.jpg,stim/latef.jpg,AB,1,2,,,,,,,,,0,58,58,7,,,,,,,,,,2,1,1.28293735536,,,,,,2016_Jun_27_0920,P1,PLC_L_D1S1,NHGX,60.0201258154,
stim/posf.jpg,stim/negf.jpg,stim/6.jpg,stim/4.jpg,stim/latef.jpg,EF,1,2,,,,,,,,,0,59,59,40,,,,,,,,,,2,1,1.06623640424,,,,,,2016_Jun_27_0920,P1,PLC_L_D1S1,NHGX,60.0201258154,
,,,,,,,,,,,,,,,,,,,,,,,,,,,,,,,,-0.6234375,-0.998046875,1,0,0,2016_Jun_27_0920,P1,PLC_L_D1S1,NHGX,60.0201258154,
stim/negf.jpg,stim/posf.jpg,stim/5.jpg,stim/1.jpg,stim/latef.jpg,CD,1,2,,,,,,,,,,,,,0,0,0,28,,,,,,2,1,0.78308024451,,,,,,2016_Jun_27_0920,P1,PLC_L_D1S1,NHGX,60.0201258154,
stim/posf.jpg,stim/negf.jpg,stim/1.jpg,stim/5.jpg,stim/latef.jpg,CD,2,4,,,,,,,,,,,,,0,1,1,33,,,,,,2,0,1.48276693258,,,,,,2016_Jun_27_0920,P1,PLC_L_D1S1,NHGX,60.0201258154,
stim/negf.jpg,stim/posf.jpg,stim/5.jpg,stim/1.jpg,stim/latef.jpg,CD,1,2,,,,,,,,,,,,,0,2,2,27,,,,,,2,1,0.966351774799,,,,,,2016_Jun_27_0920,P1,PLC_L_D1S1,NHGX,60.0201258154,
stim/posf.jpg,stim/negf.jpg,stim/3.jpg,stim/2.jpg,stim/latef.jpg,AB,1,2,,,,,,,,,,,,,0,3,3,6,,,,,,2,1,1.29955795821,,,,,,2016_Jun_27_0920,P1,PLC_L_D1S1,NHGX,60.0201258154,
stim/posf.jpg,stim/negf.jpg,stim/3.jpg,stim/2.jpg,stim/latef.jpg,AB,1,2,,,,,,,,,,,,,0,4,4,4,,,,,,4,0,0.983032494492,,,,,,2016_Jun_27_0920,P1,PLC_L_D1S1,NHGX,60.0201258154,
stim/negf.jpg,stim/posf.jpg,stim/4.jpg,stim/6.jpg,stim/latef.jpg,EF,2,4,,,,,,,,,,,,,0,5,5,58,,,,,,4,1,0.94969459177,,,,,,2016_Jun_27_0920,P1,PLC_L_D1S1,NHGX,60.0201258154,
stim/negf.jpg,stim/posf.jpg,stim/4.jpg,stim/6.jpg,stim/latef.jpg,EF,2,4,,,,,,,,,,,,,0,6,6,56,,,,,,2,0,0.816404815001,,,,,,2016_Jun_27_0920,P1,PLC_L_D1S1,NHGX,60.0201258154,
stim/posf.jpg,stim/negf.jpg,stim/2.jpg,stim/3.jpg,stim/latef.jpg,AB,2,4,,,,,,,,,,,,,0,7,7,15,,,,,,2,0,1.46616426944,,,,,,2016_Jun_27_0920,P1,PLC_L_D1S1,NHGX,60.0201258154,
stim/negf.jpg,stim/posf.jpg,stim/3.jpg,stim/2.jpg,stim/latef.jpg,AB,1,2,,,,,,,,,,,,,0,8,8,9,,,,,,4,0,1.06629700228,,,,,,2016_Jun_27_0920,P1,PLC_L_D1S1,NHGX,60.0201258154,
stim/posf.jpg,stim/negf.jpg,stim/2.jpg,stim/3.jpg,stim/latef.jpg,AB,2,4,,,,,,,,,,,,,0,9,9,16,,,,,,2,0,1.41615297329,,,,,,2016_Jun_27_0920,P1,PLC_L_D1S1,NHGX,60.0201258154,
stim/posf.jpg,stim/negf.jpg,stim/1.jpg,stim/5.jpg,stim/latef.jpg,CD,2,4,,,,,,,,,,,,,0,10,10,32,,,,,,4,1,1.64948245201,,,,,,2016_Jun_27_0920,P1,PLC_L_D1S1,NHGX,60.0201258154,
stim/posf.jpg,stim/negf.jpg,stim/5.jpg,stim/1.jpg,stim/latef.jpg,CD,1,2,,,,,,,,,,,,,0,11,11,26,,,,,,4,0,1.11628730912,,,,,,2016_Jun_27_0920,P1,PLC_L_D1S1,NHGX,60.0201258154,
stim/posf.jpg,stim/negf.jpg,stim/5.jpg,stim/1.jpg,stim/latef.jpg,CD,1,2,,,,,,,,,,,,,0,12,12,21,,,,,,2,1,1.29955504695,,,,,,2016_Jun_27_0920,P1,PLC_L_D1S1,NHGX,60.0201258154,
stim/posf.jpg,stim/negf.jpg,stim/1.jpg,stim/5.jpg,stim/latef.jpg,CD,2,4,,,,,,,,,,,,,0,13,13,36,,,,,,2,0,1.19959910978,,,,,,2016_Jun_27_0920,P1,PLC_L_D1S1,NHGX,60.0201258154,
stim/posf.jpg,stim/negf.jpg,stim/6.jpg,stim/4.jpg,stim/latef.jpg,EF,1,2,,,,,,,,,,,,,0,14,14,43,,,,,,4,0,1.59947776333,,,,,,2016_Jun_27_0920,P1,PLC_L_D1S1,NHGX,60.0201258154,
stim/negf.jpg,stim/posf.jpg,stim/2.jpg,stim/3.jpg,stim/latef.jpg,AB,2,4,,,,,,,,,,,,,0,15,15,19,,,,,,4,1,0.866359973233,,,,,,2016_Jun_27_0920,P1,PLC_L_D1S1,NHGX,60.0201258154,
stim/posf.jpg,stim/negf.jpg,stim/6.jpg,stim/4.jpg,stim/latef.jpg,EF,1,2,,,,,,,,,,,,,0,16,16,42,,,,,,2,1,1.11630256915,,,,,,2016_Jun_27_0920,P1,PLC_L_D1S1,NHGX,60.0201258154,
stim/posf.jpg,stim/negf.jpg,stim/5.jpg,stim/1.jpg,stim/latef.jpg,CD,1,2,,,,,,,,,,,,,0,17,17,22,,,,,,2,1,1.48285526876,,,,,,2016_Jun_27_0920,P1,PLC_L_D1S1,NHGX,60.0201258154,
stim/negf.jpg,stim/posf.jpg,stim/1.jpg,stim/5.jpg,stim/latef.jpg,CD,2,4,,,,,,,,,,,,,0,18,18,38,,,,,,None,0,,,,,,,2016_Jun_27_0920,P1,PLC_L_D1S1,NHGX,60.0201258154,
stim/negf.jpg,stim/posf.jpg,stim/4.jpg,stim/6.jpg,stim/latef.jpg,EF,2,4,,,,,,,,,,,,,0,19,19,59,,,,,,4,1,0.866358484523,,,,,,2016_Jun_27_0920,P1,PLC_L_D1S1,NHGX,60.0201258154,
stim/posf.jpg,stim/negf.jpg,stim/4.jpg,stim/6.jpg,stim/latef.jpg,EF,2,4,,,,,,,,,,,,,0,20,20,55,,,,,,2,0,0.816542486147,,,,,,2016_Jun_27_0920,P1,PLC_L_D1S1,NHGX,60.0201258154,
stim/posf.jpg,stim/negf.jpg,stim/2.jpg,stim/3.jpg,stim/latef.jpg,AB,2,4,,,,,,,,,,,,,0,21,21,17,,,,,,2,0,0.983005372892,,,,,,2016_Jun_27_0920,P1,PLC_L_D1S1,NHGX,60.0201258154,
stim/posf.jpg,stim/negf.jpg,stim/3.jpg,stim/2.jpg,stim/latef.jpg,AB,1,2,,,,,,,,,,,,,0,22,22,3,,,,,,4,0,0.983016684085,,,,,,2016_Jun_27_0920,P1,PLC_L_D1S1,NHGX,60.0201258154,
stim/posf.jpg,stim/negf.jpg,stim/1.jpg,stim/5.jpg,stim/latef.jpg,CD,2,4,,,,,,,,,,,,,0,23,23,34,,,,,,4,1,0.783102584192,,,,,,2016_Jun_27_0920,P1,PLC_L_D1S1,NHGX,60.0201258154,
stim/posf.jpg,stim/negf.jpg,stim/3.jpg,stim/2.jpg,stim/latef.jpg,AB,1,2,,,,,,,,,,,,,0,24,24,7,,,,,,4,0,1.09962768099,,,,,,2016_Jun_27_0920,P1,PLC_L_D1S1,NHGX,60.0201258154,
stim/posf.jpg,stim/negf.jpg,stim/5.jpg,stim/1.jpg,stim/latef.jpg,CD,1,2,,,,,,,,,,,,,0,25,25,20,,,,,,2,1,1.03299169781,,,,,,2016_Jun_27_0920,P1,PLC_L_D1S1,NHGX,60.0201258154,
stim/posf.jpg,stim/negf.jpg,stim/3.jpg,stim/2.jpg,stim/latef.jpg,AB,1,2,,,,,,,,,,,,,0,26,26,1,,,,,,2,1,1.26626176044,,,,,,2016_Jun_27_0920,P1,PLC_L_D1S1,NHGX,60.0201258154,
stim/posf.jpg,stim/negf.jpg,stim/1.jpg,stim/5.jpg,stim/latef.jpg,CD,2,4,,,,,,,,,,,,,0,27,27,31,,,,,,4,1,1.49950309847,,,,,,2016_Jun_27_0920,P1,PLC_L_D1S1,NHGX,60.0201258154,
stim/negf.jpg,stim/posf.jpg,stim/6.jpg,stim/4.jpg,stim/latef.jpg,EF,1,2,,,,,,,,,,,,,0,28,28,48,,,,,,4,0,1.16627136037,,,,,,2016_Jun_27_0920,P1,PLC_L_D1S1,NHGX,60.0201258154,
stim/posf.jpg,stim/negf.jpg,stim/4.jpg,stim/6.jpg,stim/latef.jpg,EF,2,4,,,,,,,,,,,,,0,29,29,51,,,,,,4,1,1.26623180578,,,,,,2016_Jun_27_0920,P1,PLC_L_D1S1,NHGX,60.0201258154,
stim/posf.jpg,stim/negf.jpg,stim/2.jpg,stim/3.jpg,stim/latef.jpg,AB,2,4,,,,,,,,,,,,,0,30,30,10,,,,,,4,1,1.29953651777,,,,,,2016_Jun_27_0920,P1,PLC_L_D1S1,NHGX,60.0201258154,
stim/negf.jpg,stim/posf.jpg,stim/6.jpg,stim/4.jpg,stim/latef.jpg,EF,1,2,,,,,,,,,,,,,0,31,31,47,,,,,,4,0,1.59947477989,,,,,,2016_Jun_27_0920,P1,PLC_L_D1S1,NHGX,60.0201258154,
stim/posf.jpg,stim/negf.jpg,stim/1.jpg,stim/5.jpg,stim/latef.jpg,CD,2,4,,,,,,,,,,,,,0,32,32,30,,,,,,2,0,1.36618193247,,,,,,2016_Jun_27_0920,P1,PLC_L_D1S1,NHGX,60.0201258154,
stim/negf.jpg,stim/posf.jpg,stim/2.jpg,stim/3.jpg,stim/latef.jpg,AB,2,4,,,,,,,,,,,,,0,33,33,18,,,,,,4,1,1.09961971113,,,,,,2016_Jun_27_0920,P1,PLC_L_D1S1,NHGX,60.0201258154,
stim/posf.jpg,stim/negf.jpg,stim/2.jpg,stim/3.jpg,stim/latef.jpg,AB,2,4,,,,,,,,,,,,,0,34,34,14,,,,,,2,0,0.999662089758,,,,,,2016_Jun_27_0920,P1,PLC_L_D1S1,NHGX,60.0201258154,
stim/posf.jpg,stim/negf.jpg,stim/3.jpg,stim/2.jpg,stim/latef.jpg,AB,1,2,,,,,,,,,,,,,0,35,35,0,,,,,,2,1,1.01636151909,,,,,,2016_Jun_27_0920,P1,PLC_L_D1S1,NHGX,60.0201258154,
stim/posf.jpg,stim/negf.jpg,stim/6.jpg,stim/4.jpg,stim/latef.jpg,EF,1,2,,,,,,,,,,,,,0,36,36,45,,,,,,2,1,1.14962464944,,,,,,2016_Jun_27_0920,P1,PLC_L_D1S1,NHGX,60.0201258154,
stim/negf.jpg,stim/posf.jpg,stim/1.jpg,stim/5.jpg,stim/latef.jpg,CD,2,4,,,,,,,,,,,,,0,37,37,39,,,,,,4,1,1.1329412651,,,,,,2016_Jun_27_0920,P1,PLC_L_D1S1,NHGX,60.0201258154,
stim/posf.jpg,stim/negf.jpg,stim/4.jpg,stim/6.jpg,stim/latef.jpg,EF,2,4,,,,,,,,,,,,,0,38,38,54,,,,,,4,1,0.933009787896,,,,,,2016_Jun_27_0920,P1,PLC_L_D1S1,NHGX,60.0201258154,
stim/posf.jpg,stim/negf.jpg,stim/5.jpg,stim/1.jpg,stim/latef.jpg,CD,1,2,,,,,,,,,,,,,0,39,39,23,,,,,,2,1,1.39957297163,,,,,,2016_Jun_27_0920,P1,PLC_L_D1S1,NHGX,60.0201258154,
stim/negf.jpg,stim/posf.jpg,stim/5.jpg,stim/1.jpg,stim/latef.jpg,CD,1,2,,,,,,,,,,,,,0,40,40,29,,,,,,2,1,1.34957218667,,,,,,2016_Jun_27_0920,P1,PLC_L_D1S1,NHGX,60.0201258154,
stim/posf.jpg,stim/negf.jpg,stim/2.jpg,stim/3.jpg,stim/latef.jpg,AB,2,4,,,,,,,,,,,,,0,41,41,13,,,,,,4,1,1.26625244321,,,,,,2016_Jun_27_0920,P1,PLC_L_D1S1,NHGX,60.0201258154,
stim/posf.jpg,stim/negf.jpg,stim/6.jpg,stim/4.jpg,stim/latef.jpg,EF,1,2,,,,,,,,,,,,,0,42,42,41,,,,,,2,1,1.18293860948,,,,,,2016_Jun_27_0920,P1,PLC_L_D1S1,NHGX,60.0201258154,
stim/negf.jpg,stim/posf.jpg,stim/6.jpg,stim/4.jpg,stim/latef.jpg,EF,1,2,,,,,,,,,,,,,0,43,43,49,,,,,,4,0,1.18294886505,,,,,,2016_Jun_27_0920,P1,PLC_L_D1S1,NHGX,60.0201258154,
stim/posf.jpg,stim/negf.jpg,stim/5.jpg,stim/1.jpg,stim/latef.jpg,CD,1,2,,,,,,,,,,,,,0,44,44,24,,,,,,4,0,1.28285862813,,,,,,2016_Jun_27_0920,P1,PLC_L_D1S1,NHGX,60.0201258154,
stim/posf.jpg,stim/negf.jpg,stim/6.jpg,stim/4.jpg,stim/latef.jpg,EF,1,2,,,,,,,,,,,,,0,45,45,40,,,,,,None,0,,,,,,,2016_Jun_27_0920,P1,PLC_L_D1S1,NHGX,60.0201258154,
stim/posf.jpg,stim/negf.jpg,stim/5.jpg,stim/1.jpg,stim/latef.jpg,CD,1,2,,,,,,,,,,,,,0,46,46,25,,,,,,4,0,0.566453987564,,,,,,2016_Jun_27_0920,P1,PLC_L_D1S1,NHGX,60.0201258154,
stim/posf.jpg,stim/negf.jpg,stim/2.jpg,stim/3.jpg,stim/latef.jpg,AB,2,4,,,,,,,,,,,,,0,47,47,12,,,,,,4,1,0.86632104721,,,,,,2016_Jun_27_0920,P1,PLC_L_D1S1,NHGX,60.0201258154,
stim/negf.jpg,stim/posf.jpg,stim/4.jpg,stim/6.jpg,stim/latef.jpg,EF,2,4,,,,,,,,,,,,,0,48,48,57,,,,,,2,0,1.08296676867,,,,,,2016_Jun_27_0920,P1,PLC_L_D1S1,NHGX,60.0201258154,
stim/posf.jpg,stim/negf.jpg,stim/3.jpg,stim/2.jpg,stim/latef.jpg,AB,1,2,,,,,,,,,,,,,0,49,49,5,,,,,,2,1,1.28291326832,,,,,,2016_Jun_27_0920,P1,PLC_L_D1S1,NHGX,60.0201258154,
stim/posf.jpg,stim/negf.jpg,stim/2.jpg,stim/3.jpg,stim/latef.jpg,AB,2,4,,,,,,,,,,,,,0,50,50,11,,,,,,4,1,1.06629775415,,,,,,2016_Jun_27_0920,P1,PLC_L_D1S1,NHGX,60.0201258154,
stim/posf.jpg,stim/negf.jpg,stim/1.jpg,stim/5.jpg,stim/latef.jpg,CD,2,4,,,,,,,,,,,,,0,51,51,35,,,,,,2,0,1.31621366757,,,,,,2016_Jun_27_0920,P1,PLC_L_D1S1,NHGX,60.0201258154,
stim/negf.jpg,stim/posf.jpg,stim/1.jpg,stim/5.jpg,stim/latef.jpg,CD,2,4,,,,,,,,,,,,,0,52,52,37,,,,,,4,1,0.916263360426,,,,,,2016_Jun_27_0920,P1,PLC_L_D1S1,NHGX,60.0201258154,
stim/negf.jpg,stim/posf.jpg,stim/6.jpg,stim/4.jpg,stim/latef.jpg,EF,1,2,,,,,,,,,,,,,0,53,53,46,,,,,,2,1,1.09963190051,,,,,,2016_Jun_27_0920,P1,PLC_L_D1S1,NHGX,60.0201258154,
stim/posf.jpg,stim/negf.jpg,stim/3.jpg,stim/2.jpg,stim/latef.jpg,AB,1,2,,,,,,,,,,,,,0,54,54,2,,,,,,4,0,0.999658330389,,,,,,2016_Jun_27_0920,P1,PLC_L_D1S1,NHGX,60.0201258154,
stim/posf.jpg,stim/negf.jpg,stim/4.jpg,stim/6.jpg,stim/latef.jpg,EF,2,4,,,,,,,,,,,,,0,55,55,52,,,,,,4,1,0.666446429726,,,,,,2016_Jun_27_0920,P1,PLC_L_D1S1,NHGX,60.0201258154,
stim/negf.jpg,stim/posf.jpg,stim/3.jpg,stim/2.jpg,stim/latef.jpg,AB,1,2,,,,,,,,,,,,,0,56,56,8,,,,,,4,0,0.933024951692,,,,,,2016_Jun_27_0920,P1,PLC_L_D1S1,NHGX,60.0201258154,
stim/posf.jpg,stim/negf.jpg,stim/4.jpg,stim/6.jpg,stim/latef.jpg,EF,2,4,,,,,,,,,,,,,0,57,57,53,,,,,,4,1,1.28293562605,,,,,,2016_Jun_27_0920,P1,PLC_L_D1S1,NHGX,60.0201258154,
stim/posf.jpg,stim/negf.jpg,stim/6.jpg,stim/4.jpg,stim/latef.jpg,EF,1,2,,,,,,,,,,,,,0,58,58,44,,,,,,2,1,1.29957485132,,,,,,2016_Jun_27_0920,P1,PLC_L_D1S1,NHGX,60.0201258154,
stim/posf.jpg,stim/negf.jpg,stim/4.jpg,stim/6.jpg,stim/latef.jpg,EF,2,4,,,,,,,,,,,,,0,59,59,50,,,,,,4,1,1.29955733867,,,,,,2016_Jun_27_0920,P1,PLC_L_D1S1,NHGX,60.0201258154,
