fb_corr,fb_incorr,symbol2,symbol1,fb_late,pair,position,correct,block_01.thisRepN,block_01.thisTrialN,block_01.thisN,block_01.thisIndex,block_02.thisRepN,block_02.thisTrialN,block_02.thisN,block_02.thisIndex,block_03.thisRepN,block_03.thisTrialN,block_03.thisN,block_03.thisIndex,block_04.thisRepN,block_04.thisTrialN,block_04.thisN,block_04.thisIndex,mouse.x,mouse.y,mouse.leftButton,mouse.midButton,mouse.rightButton,buttonBox_2.keys,buttonBox_2.corr,buttonBox_2.rt,mouse_2.x,mouse_2.y,mouse_2.leftButton,mouse_2.midButton,mouse_2.rightButton,date,Participant,expName,Group,frameRate,
,,,,,,,,,,,,,,,,,,,,,,,,0.9984375,0.94921875,1,0,0,,,,,,,,,2016_Aug_04_1515,P2,PLC_L_D1S1,NHGX,60.0180099605,
stim/negf.jpg,stim/posf.jpg,stim/2.jpg,stim/5.jpg,stim/latef.jpg,EF,1,2,0,0,0,46,,,,,,,,,,,,,,,,,,4,0,0.966330746385,,,,,,2016_Aug_04_1515,P2,PLC_L_D1S1,NHGX,60.0180099605,
stim/posf.jpg,stim/negf.jpg,stim/4.jpg,stim/3.jpg,stim/latef.jpg,CD,1,2,0,1,1,21,,,,,,,,,,,,,,,,,,4,0,1.216277634,,,,,,2016_Aug_04_1515,P2,PLC_L_D1S1,NHGX,60.0180099605,
stim/posf.jpg,stim/negf.jpg,stim/6.jpg,stim/1.jpg,stim/latef.jpg,AB,1,2,0,2,2,2,,,,,,,,,,,,,,,,,,2,1,0.816387693327,,,,,,2016_Aug_04_1515,P2,PLC_L_D1S1,NHGX,60.0180099605,
stim/posf.jpg,stim/negf.jpg,stim/2.jpg,stim/5.jpg,stim/latef.jpg,EF,1,2,0,3,3,45,,,,,,,,,,,,,,,,,,2,1,1.31623066593,,,,,,2016_Aug_04_1515,P2,PLC_L_D1S1,NHGX,60.0180099605,
stim/negf.jpg,stim/posf.jpg,stim/3.jpg,stim/4.jpg,stim/latef.jpg,CD,2,4,0,4,4,39,,,,,,,,,,,,,,,,,,4,1,1.2829099691,,,,,,2016_Aug_04_1515,P2,PLC_L_D1S1,NHGX,60.0180099605,
stim/posf.jpg,stim/negf.jpg,stim/2.jpg,stim/5.jpg,stim/latef.jpg,EF,1,2,0,5,5,42,,,,,,,,,,,,,,,,,,4,0,1.21628500237,,,,,,2016_Aug_04_1515,P2,PLC_L_D1S1,NHGX,60.0180099605,
stim/negf.jpg,stim/posf.jpg,stim/2.jpg,stim/5.jpg,stim/latef.jpg,EF,1,2,0,6,6,48,,,,,,,,,,,,,,,,,,4,0,1.29958762716,,,,,,2016_Aug_04_1515,P2,PLC_L_D1S1,NHGX,60.0180099605,
stim/negf.jpg,stim/posf.jpg,stim/5.jpg,stim/2.jpg,stim/latef.jpg,EF,2,4,0,7,7,56,,,,,,,,,,,,,,,,,,2,0,1.03299916241,,,,,,2016_Aug_04_1515,P2,PLC_L_D1S1,NHGX,60.0180099605,
stim/posf.jpg,stim/negf.jpg,stim/3.jpg,stim/4.jpg,stim/latef.jpg,CD,2,4,0,8,8,32,,,,,,,,,,,,,,,,,,4,1,0.783081979835,,,,,,2016_Aug_04_1515,P2,PLC_L_D1S1,NHGX,60.0180099605,
stim/posf.jpg,stim/negf.jpg,stim/1.jpg,stim/6.jpg,stim/latef.jpg,AB,2,4,0,9,9,16,,,,,,,,,,,,,,,,,,4,1,1.59947079796,,,,,,2016_Aug_04_1515,P2,PLC_L_D1S1,NHGX,60.0180099605,
stim/posf.jpg,stim/negf.jpg,stim/3.jpg,stim/4.jpg,stim/latef.jpg,CD,2,4,0,10,10,33,,,,,,,,,,,,,,,,,,2,0,1.18298754746,,,,,,2016_Aug_04_1515,P2,PLC_L_D1S1,NHGX,60.0180099605,
stim/negf.jpg,stim/posf.jpg,stim/6.jpg,stim/1.jpg,stim/latef.jpg,AB,1,2,0,11,11,9,,,,,,,,,,,,,,,,,,2,1,0.933012792386,,,,,,2016_Aug_04_1515,P2,PLC_L_D1S1,NHGX,60.0180099605,
stim/posf.jpg,stim/negf.jpg,stim/3.jpg,stim/4.jpg,stim/latef.jpg,CD,2,4,0,12,12,35,,,,,,,,,,,,,,,,,,4,1,0.749765688979,,,,,,2016_Aug_04_1515,P2,PLC_L_D1S1,NHGX,60.0180099605,
stim/negf.jpg,stim/posf.jpg,stim/4.jpg,stim/3.jpg,stim/latef.jpg,CD,1,2,0,13,13,27,,,,,,,,,,,,,,,,,,2,1,0.533160460447,,,,,,2016_Aug_04_1515,P2,PLC_L_D1S1,NHGX,60.0180099605,
stim/posf.jpg,stim/negf.jpg,stim/1.jpg,stim/6.jpg,stim/latef.jpg,AB,2,4,0,14,14,10,,,,,,,,,,,,,,,,,,4,1,0.749771012248,,,,,,2016_Aug_04_1515,P2,PLC_L_D1S1,NHGX,60.0180099605,
stim/posf.jpg,stim/negf.jpg,stim/5.jpg,stim/2.jpg,stim/latef.jpg,EF,2,4,0,15,15,52,,,,,,,,,,,,,,,,,,2,0,0.799750077067,,,,,,2016_Aug_04_1515,P2,PLC_L_D1S1,NHGX,60.0180099605,
stim/posf.jpg,stim/negf.jpg,stim/2.jpg,stim/5.jpg,stim/latef.jpg,EF,1,2,0,16,16,40,,,,,,,,,,,,,,,,,,4,0,0.716437461373,,,,,,2016_Aug_04_1515,P2,PLC_L_D1S1,NHGX,60.0180099605,
stim/posf.jpg,stim/negf.jpg,stim/4.jpg,stim/3.jpg,stim/latef.jpg,CD,1,2,0,17,17,20,,,,,,,,,,,,,,,,,,2,1,0.983019637448,,,,,,2016_Aug_04_1515,P2,PLC_L_D1S1,NHGX,60.0180099605,
stim/negf.jpg,stim/posf.jpg,stim/3.jpg,stim/4.jpg,stim/latef.jpg,CD,2,4,0,18,18,38,,,,,,,,,,,,,,,,,,2,0,0.749736290705,,,,,,2016_Aug_04_1515,P2,PLC_L_D1S1,NHGX,60.0180099605,
stim/posf.jpg,stim/negf.jpg,stim/3.jpg,stim/4.jpg,stim/latef.jpg,CD,2,4,0,19,19,34,,,,,,,,,,,,,,,,,,4,1,1.1663038714,,,,,,2016_Aug_04_1515,P2,PLC_L_D1S1,NHGX,60.0180099605,
stim/posf.jpg,stim/negf.jpg,stim/6.jpg,stim/1.jpg,stim/latef.jpg,AB,1,2,0,20,20,3,,,,,,,,,,,,,,,,,,4,0,1.11628776325,,,,,,2016_Aug_04_1515,P2,PLC_L_D1S1,NHGX,60.0180099605,
stim/posf.jpg,stim/negf.jpg,stim/5.jpg,stim/2.jpg,stim/latef.jpg,EF,2,4,0,21,21,51,,,,,,,,,,,,,,,,,,2,0,0.849718305879,,,,,,2016_Aug_04_1515,P2,PLC_L_D1S1,NHGX,60.0180099605,
stim/posf.jpg,stim/negf.jpg,stim/5.jpg,stim/2.jpg,stim/latef.jpg,EF,2,4,0,22,22,54,,,,,,,,,,,,,,,,,,4,1,0.466523605086,,,,,,2016_Aug_04_1515,P2,PLC_L_D1S1,NHGX,60.0180099605,
stim/posf.jpg,stim/negf.jpg,stim/3.jpg,stim/4.jpg,stim/latef.jpg,CD,2,4,0,23,23,31,,,,,,,,,,,,,,,,,,2,0,1.11625799505,,,,,,2016_Aug_04_1515,P2,PLC_L_D1S1,NHGX,60.0180099605,
stim/negf.jpg,stim/posf.jpg,stim/4.jpg,stim/3.jpg,stim/latef.jpg,CD,1,2,0,24,24,29,,,,,,,,,,,,,,,,,,4,0,0.94967926557,,,,,,2016_Aug_04_1515,P2,PLC_L_D1S1,NHGX,60.0180099605,
stim/negf.jpg,stim/posf.jpg,stim/2.jpg,stim/5.jpg,stim/latef.jpg,EF,1,2,0,25,25,47,,,,,,,,,,,,,,,,,,2,1,0.749745932737,,,,,,2016_Aug_04_1515,P2,PLC_L_D1S1,NHGX,60.0180099605,
stim/posf.jpg,stim/negf.jpg,stim/3.jpg,stim/4.jpg,stim/latef.jpg,CD,2,4,0,26,26,36,,,,,,,,,,,,,,,,,,2,0,1.0163307524,,,,,,2016_Aug_04_1515,P2,PLC_L_D1S1,NHGX,60.0180099605,
stim/posf.jpg,stim/negf.jpg,stim/3.jpg,stim/4.jpg,stim/latef.jpg,CD,2,4,0,27,27,30,,,,,,,,,,,,,,,,,,2,0,1.21627394681,,,,,,2016_Aug_04_1515,P2,PLC_L_D1S1,NHGX,60.0180099605,
stim/posf.jpg,stim/negf.jpg,stim/1.jpg,stim/6.jpg,stim/latef.jpg,AB,2,4,0,28,28,11,,,,,,,,,,,,,,,,,,2,0,0.933032163668,,,,,,2016_Aug_04_1515,P2,PLC_L_D1S1,NHGX,60.0180099605,
stim/posf.jpg,stim/negf.jpg,stim/6.jpg,stim/1.jpg,stim/latef.jpg,AB,1,2,0,29,29,5,,,,,,,,,,,,,,,,,,4,0,0.599758164224,,,,,,2016_Aug_04_1515,P2,PLC_L_D1S1,NHGX,60.0180099605,
stim/posf.jpg,stim/negf.jpg,stim/1.jpg,stim/6.jpg,stim/latef.jpg,AB,2,4,0,30,30,17,,,,,,,,,,,,,,,,,,2,0,0.63309321584,,,,,,2016_Aug_04_1515,P2,PLC_L_D1S1,NHGX,60.0180099605,
stim/posf.jpg,stim/negf.jpg,stim/1.jpg,stim/6.jpg,stim/latef.jpg,AB,2,4,0,31,31,12,,,,,,,,,,,,,,,,,,4,1,0.749779216698,,,,,,2016_Aug_04_1515,P2,PLC_L_D1S1,NHGX,60.0180099605,
stim/negf.jpg,stim/posf.jpg,stim/3.jpg,stim/4.jpg,stim/latef.jpg,CD,2,4,0,32,32,37,,,,,,,,,,,,,,,,,,4,1,0.799717111902,,,,,,2016_Aug_04_1515,P2,PLC_L_D1S1,NHGX,60.0180099605,
stim/posf.jpg,stim/negf.jpg,stim/6.jpg,stim/1.jpg,stim/latef.jpg,AB,1,2,0,33,33,1,,,,,,,,,,,,,,,,,,2,1,1.08298903617,,,,,,2016_Aug_04_1515,P2,PLC_L_D1S1,NHGX,60.0180099605,
stim/posf.jpg,stim/negf.jpg,stim/2.jpg,stim/5.jpg,stim/latef.jpg,EF,1,2,0,34,34,41,,,,,,,,,,,,,,,,,,4,0,0.783084021925,,,,,,2016_Aug_04_1515,P2,PLC_L_D1S1,NHGX,60.0180099605,
stim/negf.jpg,stim/posf.jpg,stim/5.jpg,stim/2.jpg,stim/latef.jpg,EF,2,4,0,35,35,57,,,,,,,,,,,,,,,,,,2,0,0.716431028339,,,,,,2016_Aug_04_1515,P2,PLC_L_D1S1,NHGX,60.0180099605,
stim/negf.jpg,stim/posf.jpg,stim/1.jpg,stim/6.jpg,stim/latef.jpg,AB,2,4,0,36,36,19,,,,,,,,,,,,,,,,,,4,1,0.949683124187,,,,,,2016_Aug_04_1515,P2,PLC_L_D1S1,NHGX,60.0180099605,
stim/posf.jpg,stim/negf.jpg,stim/1.jpg,stim/6.jpg,stim/latef.jpg,AB,2,4,0,37,37,13,,,,,,,,,,,,,,,,,,2,0,0.666382448251,,,,,,2016_Aug_04_1515,P2,PLC_L_D1S1,NHGX,60.0180099605,
stim/posf.jpg,stim/negf.jpg,stim/4.jpg,stim/3.jpg,stim/latef.jpg,CD,1,2,0,38,38,22,,,,,,,,,,,,,,,,,,4,0,1.13298105729,,,,,,2016_Aug_04_1515,P2,PLC_L_D1S1,NHGX,60.0180099605,
stim/posf.jpg,stim/negf.jpg,stim/1.jpg,stim/6.jpg,stim/latef.jpg,AB,2,4,0,39,39,15,,,,,,,,,,,,,,,,,,2,0,0.849720597589,,,,,,2016_Aug_04_1515,P2,PLC_L_D1S1,NHGX,60.0180099605,
stim/negf.jpg,stim/posf.jpg,stim/6.jpg,stim/1.jpg,stim/latef.jpg,AB,1,2,0,40,40,8,,,,,,,,,,,,,,,,,,4,0,0.93306994985,,,,,,2016_Aug_04_1515,P2,PLC_L_D1S1,NHGX,60.0180099605,
stim/posf.jpg,stim/negf.jpg,stim/6.jpg,stim/1.jpg,stim/latef.jpg,AB,1,2,0,41,41,6,,,,,,,,,,,,,,,,,,4,0,1.04964833347,,,,,,2016_Aug_04_1515,P2,PLC_L_D1S1,NHGX,60.0180099605,
stim/posf.jpg,stim/negf.jpg,stim/2.jpg,stim/5.jpg,stim/latef.jpg,EF,1,2,0,42,42,44,,,,,,,,,,,,,,,,,,2,1,0.683149883083,,,,,,2016_Aug_04_1515,P2,PLC_L_D1S1,NHGX,60.0180099605,
stim/posf.jpg,stim/negf.jpg,stim/4.jpg,stim/3.jpg,stim/latef.jpg,CD,1,2,0,43,43,23,,,,,,,,,,,,,,,,,,2,1,1.14960882099,,,,,,2016_Aug_04_1515,P2,PLC_L_D1S1,NHGX,60.0180099605,
stim/posf.jpg,stim/negf.jpg,stim/4.jpg,stim/3.jpg,stim/latef.jpg,CD,1,2,0,44,44,24,,,,,,,,,,,,,,,,,,2,1,1.48280188871,,,,,,2016_Aug_04_1515,P2,PLC_L_D1S1,NHGX,60.0180099605,
stim/posf.jpg,stim/negf.jpg,stim/1.jpg,stim/6.jpg,stim/latef.jpg,AB,2,4,0,45,45,14,,,,,,,,,,,,,,,,,,4,1,1.06634549214,,,,,,2016_Aug_04_1515,P2,PLC_L_D1S1,NHGX,60.0180099605,
stim/posf.jpg,stim/negf.jpg,stim/6.jpg,stim/1.jpg,stim/latef.jpg,AB,1,2,0,46,46,4,,,,,,,,,,,,,,,,,,2,1,1.01633148924,,,,,,2016_Aug_04_1515,P2,PLC_L_D1S1,NHGX,60.0180099605,
stim/posf.jpg,stim/negf.jpg,stim/5.jpg,stim/2.jpg,stim/latef.jpg,EF,2,4,0,47,47,55,,,,,,,,,,,,,,,,,,4,1,1.04965303419,,,,,,2016_Aug_04_1515,P2,PLC_L_D1S1,NHGX,60.0180099605,
stim/posf.jpg,stim/negf.jpg,stim/6.jpg,stim/1.jpg,stim/latef.jpg,AB,1,2,0,48,48,0,,,,,,,,,,,,,,,,,,4,0,1.28290785483,,,,,,2016_Aug_04_1515,P2,PLC_L_D1S1,NHGX,60.0180099605,
stim/posf.jpg,stim/negf.jpg,stim/4.jpg,stim/3.jpg,stim/latef.jpg,CD,1,2,0,49,49,26,,,,,,,,,,,,,,,,,,2,1,0.716426926112,,,,,,2016_Aug_04_1515,P2,PLC_L_D1S1,NHGX,60.0180099605,
stim/negf.jpg,stim/posf.jpg,stim/5.jpg,stim/2.jpg,stim/latef.jpg,EF,2,4,0,50,50,58,,,,,,,,,,,,,,,,,,4,1,0.899704811241,,,,,,2016_Aug_04_1515,P2,PLC_L_D1S1,NHGX,60.0180099605,
stim/negf.jpg,stim/posf.jpg,stim/4.jpg,stim/3.jpg,stim/latef.jpg,CD,1,2,0,51,51,28,,,,,,,,,,,,,,,,,,2,1,0.633103408245,,,,,,2016_Aug_04_1515,P2,PLC_L_D1S1,NHGX,60.0180099605,
stim/posf.jpg,stim/negf.jpg,stim/5.jpg,stim/2.jpg,stim/latef.jpg,EF,2,4,0,52,52,53,,,,,,,,,,,,,,,,,,2,0,1.46618125578,,,,,,2016_Aug_04_1515,P2,PLC_L_D1S1,NHGX,60.0180099605,
stim/negf.jpg,stim/posf.jpg,stim/1.jpg,stim/6.jpg,stim/latef.jpg,AB,2,4,0,53,53,18,,,,,,,,,,,,,,,,,,2,0,0.883053504862,,,,,,2016_Aug_04_1515,P2,PLC_L_D1S1,NHGX,60.0180099605,
stim/posf.jpg,stim/negf.jpg,stim/6.jpg,stim/1.jpg,stim/latef.jpg,AB,1,2,0,54,54,7,,,,,,,,,,,,,,,,,,4,0,0.716460005562,,,,,,2016_Aug_04_1515,P2,PLC_L_D1S1,NHGX,60.0180099605,
stim/posf.jpg,stim/negf.jpg,stim/4.jpg,stim/3.jpg,stim/latef.jpg,CD,1,2,0,55,55,25,,,,,,,,,,,,,,,,,,4,0,1.18298125277,,,,,,2016_Aug_04_1515,P2,PLC_L_D1S1,NHGX,60.0180099605,
stim/negf.jpg,stim/posf.jpg,stim/5.jpg,stim/2.jpg,stim/latef.jpg,EF,2,4,0,56,56,59,,,,,,,,,,,,,,,,,,2,0,0.883059748423,,,,,,2016_Aug_04_1515,P2,PLC_L_D1S1,NHGX,60.0180099605,
stim/posf.jpg,stim/negf.jpg,stim/5.jpg,stim/2.jpg,stim/latef.jpg,EF,2,4,0,57,57,50,,,,,,,,,,,,,,,,,,2,0,1.26622118029,,,,,,2016_Aug_04_1515,P2,PLC_L_D1S1,NHGX,60.0180099605,
stim/negf.jpg,stim/posf.jpg,stim/2.jpg,stim/5.jpg,stim/latef.jpg,EF,1,2,0,58,58,49,,,,,,,,,,,,,,,,,,4,0,1.34951908331,,,,,,2016_Aug_04_1515,P2,PLC_L_D1S1,NHGX,60.0180099605,
stim/posf.jpg,stim/negf.jpg,stim/2.jpg,stim/5.jpg,stim/latef.jpg,EF,1,2,0,59,59,43,,,,,,,,,,,,,,,,,,2,1,1.59946697844,,,,,,2016_Aug_04_1515,P2,PLC_L_D1S1,NHGX,60.0180099605,
,,,,,,,,,,,,,,,,,,,,,,,,,,,,,,,,0.9984375,0.94921875,1,0,0,2016_Aug_04_1515,P2,PLC_L_D1S1,NHGX,60.0180099605,
stim/posf.jpg,stim/negf.jpg,stim/3.jpg,stim/4.jpg,stim/latef.jpg,CD,2,4,,,,,0,0,0,36,,,,,,,,,,,,,,2,0,1.16627077992,,,,,,2016_Aug_04_1515,P2,PLC_L_D1S1,NHGX,60.0180099605,
stim/posf.jpg,stim/negf.jpg,stim/2.jpg,stim/5.jpg,stim/latef.jpg,EF,1,2,,,,,0,1,1,45,,,,,,,,,,,,,,4,0,0.932972708475,,,,,,2016_Aug_04_1515,P2,PLC_L_D1S1,NHGX,60.0180099605,
stim/posf.jpg,stim/negf.jpg,stim/2.jpg,stim/5.jpg,stim/latef.jpg,EF,1,2,,,,,0,2,2,42,,,,,,,,,,,,,,4,0,0.833050058271,,,,,,2016_Aug_04_1515,P2,PLC_L_D1S1,NHGX,60.0180099605,
stim/posf.jpg,stim/negf.jpg,stim/5.jpg,stim/2.jpg,stim/latef.jpg,EF,2,4,,,,,0,3,3,53,,,,,,,,,,,,,,2,0,0.933027778738,,,,,,2016_Aug_04_1515,P2,PLC_L_D1S1,NHGX,60.0180099605,
stim/posf.jpg,stim/negf.jpg,stim/3.jpg,stim/4.jpg,stim/latef.jpg,CD,2,4,,,,,0,4,4,34,,,,,,,,,,,,,,4,1,1.23295604995,,,,,,2016_Aug_04_1515,P2,PLC_L_D1S1,NHGX,60.0180099605,
stim/posf.jpg,stim/negf.jpg,stim/6.jpg,stim/1.jpg,stim/latef.jpg,AB,1,2,,,,,0,5,5,7,,,,,,,,,,,,,,4,0,1.04967089872,,,,,,2016_Aug_04_1515,P2,PLC_L_D1S1,NHGX,60.0180099605,
stim/posf.jpg,stim/negf.jpg,stim/5.jpg,stim/2.jpg,stim/latef.jpg,EF,2,4,,,,,0,6,6,52,,,,,,,,,,,,,,2,0,0.799773884408,,,,,,2016_Aug_04_1515,P2,PLC_L_D1S1,NHGX,60.0180099605,
stim/posf.jpg,stim/negf.jpg,stim/5.jpg,stim/2.jpg,stim/latef.jpg,EF,2,4,,,,,0,7,7,55,,,,,,,,,,,,,,4,1,0.933031056909,,,,,,2016_Aug_04_1515,P2,PLC_L_D1S1,NHGX,60.0180099605,
stim/posf.jpg,stim/negf.jpg,stim/3.jpg,stim/4.jpg,stim/latef.jpg,CD,2,4,,,,,0,8,8,30,,,,,,,,,,,,,,4,1,1.21620550522,,,,,,2016_Aug_04_1515,P2,PLC_L_D1S1,NHGX,60.0180099605,
stim/posf.jpg,stim/negf.jpg,stim/2.jpg,stim/5.jpg,stim/latef.jpg,EF,1,2,,,,,0,9,9,44,,,,,,,,,,,,,,2,1,0.833059619101,,,,,,2016_Aug_04_1515,P2,PLC_L_D1S1,NHGX,60.0180099605,
stim/negf.jpg,stim/posf.jpg,stim/4.jpg,stim/3.jpg,stim/latef.jpg,CD,1,2,,,,,0,10,10,27,,,,,,,,,,,,,,2,1,0.916373055843,,,,,,2016_Aug_04_1515,P2,PLC_L_D1S1,NHGX,60.0180099605,
stim/negf.jpg,stim/posf.jpg,stim/2.jpg,stim/5.jpg,stim/latef.jpg,EF,1,2,,,,,0,11,11,46,,,,,,,,,,,,,,4,0,0.816394339892,,,,,,2016_Aug_04_1515,P2,PLC_L_D1S1,NHGX,60.0180099605,
stim/posf.jpg,stim/negf.jpg,stim/6.jpg,stim/1.jpg,stim/latef.jpg,AB,1,2,,,,,0,12,12,0,,,,,,,,,,,,,,2,1,0.699812572839,,,,,,2016_Aug_04_1515,P2,PLC_L_D1S1,NHGX,60.0180099605,
stim/posf.jpg,stim/negf.jpg,stim/6.jpg,stim/1.jpg,stim/latef.jpg,AB,1,2,,,,,0,13,13,1,,,,,,,,,,,,,,4,0,0.66646007173,,,,,,2016_Aug_04_1515,P2,PLC_L_D1S1,NHGX,60.0180099605,
stim/posf.jpg,stim/negf.jpg,stim/2.jpg,stim/5.jpg,stim/latef.jpg,EF,1,2,,,,,0,14,14,41,,,,,,,,,,,,,,4,0,0.833055955971,,,,,,2016_Aug_04_1515,P2,PLC_L_D1S1,NHGX,60.0180099605,
stim/posf.jpg,stim/negf.jpg,stim/3.jpg,stim/4.jpg,stim/latef.jpg,CD,2,4,,,,,0,15,15,33,,,,,,,,,,,,,,4,1,0.883049667296,,,,,,2016_Aug_04_1515,P2,PLC_L_D1S1,NHGX,60.0180099605,
stim/negf.jpg,stim/posf.jpg,stim/5.jpg,stim/2.jpg,stim/latef.jpg,EF,2,4,,,,,0,16,16,58,,,,,,,,,,,,,,2,0,0.633117221676,,,,,,2016_Aug_04_1515,P2,PLC_L_D1S1,NHGX,60.0180099605,
stim/posf.jpg,stim/negf.jpg,stim/5.jpg,stim/2.jpg,stim/latef.jpg,EF,2,4,,,,,0,17,17,51,,,,,,,,,,,,,,4,1,0.666434321545,,,,,,2016_Aug_04_1515,P2,PLC_L_D1S1,NHGX,60.0180099605,
stim/negf.jpg,stim/posf.jpg,stim/2.jpg,stim/5.jpg,stim/latef.jpg,EF,1,2,,,,,0,18,18,47,,,,,,,,,,,,,,2,1,0.799736826038,,,,,,2016_Aug_04_1515,P2,PLC_L_D1S1,NHGX,60.0180099605,
stim/posf.jpg,stim/negf.jpg,stim/1.jpg,stim/6.jpg,stim/latef.jpg,AB,2,4,,,,,0,19,19,15,,,,,,,,,,,,,,4,1,0.649795971458,,,,,,2016_Aug_04_1515,P2,PLC_L_D1S1,NHGX,60.0180099605,
stim/negf.jpg,stim/posf.jpg,stim/3.jpg,stim/4.jpg,stim/latef.jpg,CD,2,4,,,,,0,20,20,38,,,,,,,,,,,,,,2,0,0.53313855986,,,,,,2016_Aug_04_1515,P2,PLC_L_D1S1,NHGX,60.0180099605,
stim/negf.jpg,stim/posf.jpg,stim/3.jpg,stim/4.jpg,stim/latef.jpg,CD,2,4,,,,,0,21,21,39,,,,,,,,,,,,,,4,1,0.933005535297,,,,,,2016_Aug_04_1515,P2,PLC_L_D1S1,NHGX,60.0180099605,
stim/posf.jpg,stim/negf.jpg,stim/2.jpg,stim/5.jpg,stim/latef.jpg,EF,1,2,,,,,0,22,22,40,,,,,,,,,,,,,,4,0,0.766451458261,,,,,,2016_Aug_04_1515,P2,PLC_L_D1S1,NHGX,60.0180099605,
stim/negf.jpg,stim/posf.jpg,stim/2.jpg,stim/5.jpg,stim/latef.jpg,EF,1,2,,,,,0,23,23,49,,,,,,,,,,,,,,2,1,0.866392574491,,,,,,2016_Aug_04_1515,P2,PLC_L_D1S1,NHGX,60.0180099605,
stim/posf.jpg,stim/negf.jpg,stim/3.jpg,stim/4.jpg,stim/latef.jpg,CD,2,4,,,,,0,24,24,35,,,,,,,,,,,,,,4,1,0.849722549454,,,,,,2016_Aug_04_1515,P2,PLC_L_D1S1,NHGX,60.0180099605,
stim/posf.jpg,stim/negf.jpg,stim/4.jpg,stim/3.jpg,stim/latef.jpg,CD,1,2,,,,,0,25,25,25,,,,,,,,,,,,,,2,1,0.716465319809,,,,,,2016_Aug_04_1515,P2,PLC_L_D1S1,NHGX,60.0180099605,
stim/posf.jpg,stim/negf.jpg,stim/1.jpg,stim/6.jpg,stim/latef.jpg,AB,2,4,,,,,0,26,26,17,,,,,,,,,,,,,,2,0,0.799740158345,,,,,,2016_Aug_04_1515,P2,PLC_L_D1S1,NHGX,60.0180099605,
stim/posf.jpg,stim/negf.jpg,stim/1.jpg,stim/6.jpg,stim/latef.jpg,AB,2,4,,,,,0,27,27,13,,,,,,,,,,,,,,4,1,0.59980376388,,,,,,2016_Aug_04_1515,P2,PLC_L_D1S1,NHGX,60.0180099605,
stim/posf.jpg,stim/negf.jpg,stim/6.jpg,stim/1.jpg,stim/latef.jpg,AB,1,2,,,,,0,28,28,3,,,,,,,,,,,,,,4,0,0.583154027414,,,,,,2016_Aug_04_1515,P2,PLC_L_D1S1,NHGX,60.0180099605,
stim/posf.jpg,stim/negf.jpg,stim/4.jpg,stim/3.jpg,stim/latef.jpg,CD,1,2,,,,,0,29,29,23,,,,,,,,,,,,,,4,0,0.516447331975,,,,,,2016_Aug_04_1515,P2,PLC_L_D1S1,NHGX,60.0180099605,
stim/posf.jpg,stim/negf.jpg,stim/1.jpg,stim/6.jpg,stim/latef.jpg,AB,2,4,,,,,0,30,30,12,,,,,,,,,,,,,,2,0,0.716432011788,,,,,,2016_Aug_04_1515,P2,PLC_L_D1S1,NHGX,60.0180099605,
stim/posf.jpg,stim/negf.jpg,stim/6.jpg,stim/1.jpg,stim/latef.jpg,AB,1,2,,,,,0,31,31,4,,,,,,,,,,,,,,4,0,0.866378953542,,,,,,2016_Aug_04_1515,P2,PLC_L_D1S1,NHGX,60.0180099605,
stim/negf.jpg,stim/posf.jpg,stim/2.jpg,stim/5.jpg,stim/latef.jpg,EF,1,2,,,,,0,32,32,48,,,,,,,,,,,,,,2,1,0.783058316856,,,,,,2016_Aug_04_1515,P2,PLC_L_D1S1,NHGX,60.0180099605,
stim/posf.jpg,stim/negf.jpg,stim/4.jpg,stim/3.jpg,stim/latef.jpg,CD,1,2,,,,,0,33,33,22,,,,,,,,,,,,,,2,1,0.816401963895,,,,,,2016_Aug_04_1515,P2,PLC_L_D1S1,NHGX,60.0180099605,
stim/posf.jpg,stim/negf.jpg,stim/6.jpg,stim/1.jpg,stim/latef.jpg,AB,1,2,,,,,0,34,34,5,,,,,,,,,,,,,,2,1,0.883057607087,,,,,,2016_Aug_04_1515,P2,PLC_L_D1S1,NHGX,60.0180099605,
stim/posf.jpg,stim/negf.jpg,stim/3.jpg,stim/4.jpg,stim/latef.jpg,CD,2,4,,,,,0,35,35,32,,,,,,,,,,,,,,4,1,0.999667028067,,,,,,2016_Aug_04_1515,P2,PLC_L_D1S1,NHGX,60.0180099605,
stim/posf.jpg,stim/negf.jpg,stim/1.jpg,stim/6.jpg,stim/latef.jpg,AB,2,4,,,,,0,36,36,11,,,,,,,,,,,,,,4,1,0.882991207585,,,,,,2016_Aug_04_1515,P2,PLC_L_D1S1,NHGX,60.0180099605,
stim/posf.jpg,stim/negf.jpg,stim/4.jpg,stim/3.jpg,stim/latef.jpg,CD,1,2,,,,,0,37,37,20,,,,,,,,,,,,,,2,1,0.799706757092,,,,,,2016_Aug_04_1515,P2,PLC_L_D1S1,NHGX,60.0180099605,
stim/negf.jpg,stim/posf.jpg,stim/1.jpg,stim/6.jpg,stim/latef.jpg,AB,2,4,,,,,0,38,38,18,,,,,,,,,,,,,,4,1,0.816397091752,,,,,,2016_Aug_04_1515,P2,PLC_L_D1S1,NHGX,60.0180099605,
stim/posf.jpg,stim/negf.jpg,stim/6.jpg,stim/1.jpg,stim/latef.jpg,AB,1,2,,,,,0,39,39,2,,,,,,,,,,,,,,2,1,0.849707075888,,,,,,2016_Aug_04_1515,P2,PLC_L_D1S1,NHGX,60.0180099605,
stim/posf.jpg,stim/negf.jpg,stim/1.jpg,stim/6.jpg,stim/latef.jpg,AB,2,4,,,,,0,40,40,14,,,,,,,,,,,,,,4,1,0.649786269278,,,,,,2016_Aug_04_1515,P2,PLC_L_D1S1,NHGX,60.0180099605,
stim/negf.jpg,stim/posf.jpg,stim/5.jpg,stim/2.jpg,stim/latef.jpg,EF,2,4,,,,,0,41,41,59,,,,,,,,,,,,,,4,1,1.1662819648,,,,,,2016_Aug_04_1515,P2,PLC_L_D1S1,NHGX,60.0180099605,
stim/negf.jpg,stim/posf.jpg,stim/5.jpg,stim/2.jpg,stim/latef.jpg,EF,2,4,,,,,0,42,42,56,,,,,,,,,,,,,,2,0,0.883058861211,,,,,,2016_Aug_04_1515,P2,PLC_L_D1S1,NHGX,60.0180099605,
stim/negf.jpg,stim/posf.jpg,stim/3.jpg,stim/4.jpg,stim/latef.jpg,CD,2,4,,,,,0,43,43,37,,,,,,,,,,,,,,4,1,0.932935247103,,,,,,2016_Aug_04_1515,P2,PLC_L_D1S1,NHGX,60.0180099605,
stim/posf.jpg,stim/negf.jpg,stim/2.jpg,stim/5.jpg,stim/latef.jpg,EF,1,2,,,,,0,44,44,43,,,,,,,,,,,,,,4,0,1.44952117052,,,,,,2016_Aug_04_1515,P2,PLC_L_D1S1,NHGX,60.0180099605,
stim/posf.jpg,stim/negf.jpg,stim/4.jpg,stim/3.jpg,stim/latef.jpg,CD,1,2,,,,,0,45,45,21,,,,,,,,,,,,,,2,1,0.86638990985,,,,,,2016_Aug_04_1515,P2,PLC_L_D1S1,NHGX,60.0180099605,
stim/posf.jpg,stim/negf.jpg,stim/6.jpg,stim/1.jpg,stim/latef.jpg,AB,1,2,,,,,0,46,46,6,,,,,,,,,,,,,,2,1,0.766427909566,,,,,,2016_Aug_04_1515,P2,PLC_L_D1S1,NHGX,60.0180099605,
stim/posf.jpg,stim/negf.jpg,stim/1.jpg,stim/6.jpg,stim/latef.jpg,AB,2,4,,,,,0,47,47,16,,,,,,,,,,,,,,4,1,0.616453855233,,,,,,2016_Aug_04_1515,P2,PLC_L_D1S1,NHGX,60.0180099605,
stim/negf.jpg,stim/posf.jpg,stim/6.jpg,stim/1.jpg,stim/latef.jpg,AB,1,2,,,,,0,48,48,8,,,,,,,,,,,,,,2,1,0.849745650034,,,,,,2016_Aug_04_1515,P2,PLC_L_D1S1,NHGX,60.0180099605,
stim/negf.jpg,stim/posf.jpg,stim/1.jpg,stim/6.jpg,stim/latef.jpg,AB,2,4,,,,,0,49,49,19,,,,,,,,,,,,,,4,1,0.633103056367,,,,,,2016_Aug_04_1515,P2,PLC_L_D1S1,NHGX,60.0180099605,
stim/posf.jpg,stim/negf.jpg,stim/4.jpg,stim/3.jpg,stim/latef.jpg,CD,1,2,,,,,0,50,50,26,,,,,,,,,,,,,,2,1,0.633091540665,,,,,,2016_Aug_04_1515,P2,PLC_L_D1S1,NHGX,60.0180099605,
stim/negf.jpg,stim/posf.jpg,stim/6.jpg,stim/1.jpg,stim/latef.jpg,AB,1,2,,,,,0,51,51,9,,,,,,,,,,,,,,2,1,0.833113266819,,,,,,2016_Aug_04_1515,P2,PLC_L_D1S1,NHGX,60.0180099605,
stim/posf.jpg,stim/negf.jpg,stim/1.jpg,stim/6.jpg,stim/latef.jpg,AB,2,4,,,,,0,52,52,10,,,,,,,,,,,,,,4,1,0.666443894406,,,,,,2016_Aug_04_1515,P2,PLC_L_D1S1,NHGX,60.0180099605,
stim/negf.jpg,stim/posf.jpg,stim/4.jpg,stim/3.jpg,stim/latef.jpg,CD,1,2,,,,,0,53,53,28,,,,,,,,,,,,,,2,1,0.63312973286,,,,,,2016_Aug_04_1515,P2,PLC_L_D1S1,NHGX,60.0180099605,
stim/posf.jpg,stim/negf.jpg,stim/5.jpg,stim/2.jpg,stim/latef.jpg,EF,2,4,,,,,0,54,54,54,,,,,,,,,,,,,,2,0,0.99966308524,,,,,,2016_Aug_04_1515,P2,PLC_L_D1S1,NHGX,60.0180099605,
stim/negf.jpg,stim/posf.jpg,stim/5.jpg,stim/2.jpg,stim/latef.jpg,EF,2,4,,,,,0,55,55,57,,,,,,,,,,,,,,4,1,0.666457557463,,,,,,2016_Aug_04_1515,P2,PLC_L_D1S1,NHGX,60.0180099605,
stim/posf.jpg,stim/negf.jpg,stim/3.jpg,stim/4.jpg,stim/latef.jpg,CD,2,4,,,,,0,56,56,31,,,,,,,,,,,,,,4,1,0.74975206803,,,,,,2016_Aug_04_1515,P2,PLC_L_D1S1,NHGX,60.0180099605,
stim/posf.jpg,stim/negf.jpg,stim/4.jpg,stim/3.jpg,stim/latef.jpg,CD,1,2,,,,,0,57,57,24,,,,,,,,,,,,,,2,1,1.19959739551,,,,,,2016_Aug_04_1515,P2,PLC_L_D1S1,NHGX,60.0180099605,
stim/posf.jpg,stim/negf.jpg,stim/5.jpg,stim/2.jpg,stim/latef.jpg,EF,2,4,,,,,0,58,58,50,,,,,,,,,,,,,,4,1,1.01632143819,,,,,,2016_Aug_04_1515,P2,PLC_L_D1S1,NHGX,60.0180099605,
stim/negf.jpg,stim/posf.jpg,stim/4.jpg,stim/3.jpg,stim/latef.jpg,CD,1,2,,,,,0,59,59,29,,,,,,,,,,,,,,2,1,0.84971389388,,,,,,2016_Aug_04_1515,P2,PLC_L_D1S1,NHGX,60.0180099605,
,,,,,,,,,,,,,,,,,,,,,,,,,,,,,,,,0.9984375,0.962890625,1,0,0,2016_Aug_04_1515,P2,PLC_L_D1S1,NHGX,60.0180099605,
stim/posf.jpg,stim/negf.jpg,stim/3.jpg,stim/4.jpg,stim/latef.jpg,CD,2,4,,,,,,,,,0,0,0,35,,,,,,,,,,4,1,0.733083110654,,,,,,2016_Aug_04_1515,P2,PLC_L_D1S1,NHGX,60.0180099605,
stim/posf.jpg,stim/negf.jpg,stim/6.jpg,stim/1.jpg,stim/latef.jpg,AB,1,2,,,,,,,,,0,1,1,6,,,,,,,,,,2,1,0.94971266983,,,,,,2016_Aug_04_1515,P2,PLC_L_D1S1,NHGX,60.0180099605,
stim/posf.jpg,stim/negf.jpg,stim/6.jpg,stim/1.jpg,stim/latef.jpg,AB,1,2,,,,,,,,,0,2,2,7,,,,,,,,,,2,1,0.733063267193,,,,,,2016_Aug_04_1515,P2,PLC_L_D1S1,NHGX,60.0180099605,
stim/negf.jpg,stim/posf.jpg,stim/2.jpg,stim/5.jpg,stim/latef.jpg,EF,1,2,,,,,,,,,0,3,3,47,,,,,,,,,,4,0,0.999674152825,,,,,,2016_Aug_04_1515,P2,PLC_L_D1S1,NHGX,60.0180099605,
stim/posf.jpg,stim/negf.jpg,stim/6.jpg,stim/1.jpg,stim/latef.jpg,AB,1,2,,,,,,,,,0,4,4,4,,,,,,,,,,2,1,0.783089441433,,,,,,2016_Aug_04_1515,P2,PLC_L_D1S1,NHGX,60.0180099605,
stim/posf.jpg,stim/negf.jpg,stim/2.jpg,stim/5.jpg,stim/latef.jpg,EF,1,2,,,,,,,,,0,5,5,41,,,,,,,,,,4,0,1.24960155487,,,,,,2016_Aug_04_1515,P2,PLC_L_D1S1,NHGX,60.0180099605,
stim/posf.jpg,stim/negf.jpg,stim/1.jpg,stim/6.jpg,stim/latef.jpg,AB,2,4,,,,,,,,,0,6,6,14,,,,,,,,,,4,1,0.83303900873,,,,,,2016_Aug_04_1515,P2,PLC_L_D1S1,NHGX,60.0180099605,
stim/posf.jpg,stim/negf.jpg,stim/6.jpg,stim/1.jpg,stim/latef.jpg,AB,1,2,,,,,,,,,0,7,7,5,,,,,,,,,,2,1,0.633119844213,,,,,,2016_Aug_04_1515,P2,PLC_L_D1S1,NHGX,60.0180099605,
stim/negf.jpg,stim/posf.jpg,stim/3.jpg,stim/4.jpg,stim/latef.jpg,CD,2,4,,,,,,,,,0,8,8,39,,,,,,,,,,4,1,0.749752209382,,,,,,2016_Aug_04_1515,P2,PLC_L_D1S1,NHGX,60.0180099605,
stim/posf.jpg,stim/negf.jpg,stim/4.jpg,stim/3.jpg,stim/latef.jpg,CD,1,2,,,,,,,,,0,9,9,23,,,,,,,,,,2,1,0.816381359538,,,,,,2016_Aug_04_1515,P2,PLC_L_D1S1,NHGX,60.0180099605,
stim/posf.jpg,stim/negf.jpg,stim/2.jpg,stim/5.jpg,stim/latef.jpg,EF,1,2,,,,,,,,,0,10,10,40,,,,,,,,,,2,1,0.916373982151,,,,,,2016_Aug_04_1515,P2,PLC_L_D1S1,NHGX,60.0180099605,
stim/posf.jpg,stim/negf.jpg,stim/1.jpg,stim/6.jpg,stim/latef.jpg,AB,2,4,,,,,,,,,0,11,11,10,,,,,,,,,,4,1,0.599795252667,,,,,,2016_Aug_04_1515,P2,PLC_L_D1S1,NHGX,60.0180099605,
stim/posf.jpg,stim/negf.jpg,stim/5.jpg,stim/2.jpg,stim/latef.jpg,EF,2,4,,,,,,,,,0,12,12,52,,,,,,,,,,4,1,0.91635516124,,,,,,2016_Aug_04_1515,P2,PLC_L_D1S1,NHGX,60.0180099605,
stim/negf.jpg,stim/posf.jpg,stim/4.jpg,stim/3.jpg,stim/latef.jpg,CD,1,2,,,,,,,,,0,13,13,28,,,,,,,,,,2,1,0.749735707252,,,,,,2016_Aug_04_1515,P2,PLC_L_D1S1,NHGX,60.0180099605,
stim/negf.jpg,stim/posf.jpg,stim/6.jpg,stim/1.jpg,stim/latef.jpg,AB,1,2,,,,,,,,,0,14,14,8,,,,,,,,,,2,1,0.799724251698,,,,,,2016_Aug_04_1515,P2,PLC_L_D1S1,NHGX,60.0180099605,
stim/posf.jpg,stim/negf.jpg,stim/2.jpg,stim/5.jpg,stim/latef.jpg,EF,1,2,,,,,,,,,0,15,15,42,,,,,,,,,,2,1,0.799736447094,,,,,,2016_Aug_04_1515,P2,PLC_L_D1S1,NHGX,60.0180099605,
stim/posf.jpg,stim/negf.jpg,stim/4.jpg,stim/3.jpg,stim/latef.jpg,CD,1,2,,,,,,,,,0,16,16,26,,,,,,,,,,2,1,0.699768729559,,,,,,2016_Aug_04_1515,P2,PLC_L_D1S1,NHGX,60.0180099605,
stim/posf.jpg,stim/negf.jpg,stim/1.jpg,stim/6.jpg,stim/latef.jpg,AB,2,4,,,,,,,,,0,17,17,15,,,,,,,,,,4,1,0.766346292132,,,,,,2016_Aug_04_1515,P2,PLC_L_D1S1,NHGX,60.0180099605,
stim/posf.jpg,stim/negf.jpg,stim/2.jpg,stim/5.jpg,stim/latef.jpg,EF,1,2,,,,,,,,,0,18,18,43,,,,,,,,,,2,1,0.566463611553,,,,,,2016_Aug_04_1515,P2,PLC_L_D1S1,NHGX,60.0180099605,
stim/negf.jpg,stim/posf.jpg,stim/5.jpg,stim/2.jpg,stim/latef.jpg,EF,2,4,,,,,,,,,0,19,19,56,,,,,,,,,,4,1,0.766448357532,,,,,,2016_Aug_04_1515,P2,PLC_L_D1S1,NHGX,60.0180099605,
stim/negf.jpg,stim/posf.jpg,stim/1.jpg,stim/6.jpg,stim/latef.jpg,AB,2,4,,,,,,,,,0,20,20,19,,,,,,,,,,4,1,0.699766449878,,,,,,2016_Aug_04_1515,P2,PLC_L_D1S1,NHGX,60.0180099605,
stim/posf.jpg,stim/negf.jpg,stim/3.jpg,stim/4.jpg,stim/latef.jpg,CD,2,4,,,,,,,,,0,21,21,32,,,,,,,,,,4,1,0.666447716934,,,,,,2016_Aug_04_1515,P2,PLC_L_D1S1,NHGX,60.0180099605,
stim/posf.jpg,stim/negf.jpg,stim/4.jpg,stim/3.jpg,stim/latef.jpg,CD,1,2,,,,,,,,,0,22,22,21,,,,,,,,,,2,1,0.699780973076,,,,,,2016_Aug_04_1515,P2,PLC_L_D1S1,NHGX,60.0180099605,
stim/posf.jpg,stim/negf.jpg,stim/2.jpg,stim/5.jpg,stim/latef.jpg,EF,1,2,,,,,,,,,0,23,23,45,,,,,,,,,,2,1,0.633113305916,,,,,,2016_Aug_04_1515,P2,PLC_L_D1S1,NHGX,60.0180099605,
stim/negf.jpg,stim/posf.jpg,stim/5.jpg,stim/2.jpg,stim/latef.jpg,EF,2,4,,,,,,,,,0,24,24,57,,,,,,,,,,4,1,0.616463343884,,,,,,2016_Aug_04_1515,P2,PLC_L_D1S1,NHGX,60.0180099605,
stim/negf.jpg,stim/posf.jpg,stim/2.jpg,stim/5.jpg,stim/latef.jpg,EF,1,2,,,,,,,,,0,25,25,48,,,,,,,,,,2,1,0.533167152125,,,,,,2016_Aug_04_1515,P2,PLC_L_D1S1,NHGX,60.0180099605,
stim/posf.jpg,stim/negf.jpg,stim/2.jpg,stim/5.jpg,stim/latef.jpg,EF,1,2,,,,,,,,,0,26,26,44,,,,,,,,,,2,1,1.1829518966,,,,,,2016_Aug_04_1515,P2,PLC_L_D1S1,NHGX,60.0180099605,
stim/posf.jpg,stim/negf.jpg,stim/3.jpg,stim/4.jpg,stim/latef.jpg,CD,2,4,,,,,,,,,0,27,27,30,,,,,,,,,,4,1,0.666405380411,,,,,,2016_Aug_04_1515,P2,PLC_L_D1S1,NHGX,60.0180099605,
stim/negf.jpg,stim/posf.jpg,stim/3.jpg,stim/4.jpg,stim/latef.jpg,CD,2,4,,,,,,,,,0,28,28,37,,,,,,,,,,4,1,0.733096304539,,,,,,2016_Aug_04_1515,P2,PLC_L_D1S1,NHGX,60.0180099605,
stim/negf.jpg,stim/posf.jpg,stim/4.jpg,stim/3.jpg,stim/latef.jpg,CD,1,2,,,,,,,,,0,29,29,27,,,,,,,,,,2,1,0.983046386116,,,,,,2016_Aug_04_1515,P2,PLC_L_D1S1,NHGX,60.0180099605,
stim/posf.jpg,stim/negf.jpg,stim/4.jpg,stim/3.jpg,stim/latef.jpg,CD,1,2,,,,,,,,,0,30,30,22,,,,,,,,,,2,1,0.716441999684,,,,,,2016_Aug_04_1515,P2,PLC_L_D1S1,NHGX,60.0180099605,
stim/posf.jpg,stim/negf.jpg,stim/3.jpg,stim/4.jpg,stim/latef.jpg,CD,2,4,,,,,,,,,0,31,31,34,,,,,,,,,,4,1,0.566452366522,,,,,,2016_Aug_04_1515,P2,PLC_L_D1S1,NHGX,60.0180099605,
stim/posf.jpg,stim/negf.jpg,stim/3.jpg,stim/4.jpg,stim/latef.jpg,CD,2,4,,,,,,,,,0,32,32,31,,,,,,,,,,4,1,0.533158457454,,,,,,2016_Aug_04_1515,P2,PLC_L_D1S1,NHGX,60.0180099605,
stim/negf.jpg,stim/posf.jpg,stim/1.jpg,stim/6.jpg,stim/latef.jpg,AB,2,4,,,,,,,,,0,33,33,18,,,,,,,,,,4,1,0.733102518026,,,,,,2016_Aug_04_1515,P2,PLC_L_D1S1,NHGX,60.0180099605,
stim/posf.jpg,stim/negf.jpg,stim/5.jpg,stim/2.jpg,stim/latef.jpg,EF,2,4,,,,,,,,,0,34,34,51,,,,,,,,,,4,1,0.666435449359,,,,,,2016_Aug_04_1515,P2,PLC_L_D1S1,NHGX,60.0180099605,
stim/negf.jpg,stim/posf.jpg,stim/4.jpg,stim/3.jpg,stim/latef.jpg,CD,1,2,,,,,,,,,0,35,35,29,,,,,,,,,,2,1,0.833053646213,,,,,,2016_Aug_04_1515,P2,PLC_L_D1S1,NHGX,60.0180099605,
stim/posf.jpg,stim/negf.jpg,stim/4.jpg,stim/3.jpg,stim/latef.jpg,CD,1,2,,,,,,,,,0,36,36,25,,,,,,,,,,2,1,0.766403323283,,,,,,2016_Aug_04_1515,P2,PLC_L_D1S1,NHGX,60.0180099605,
stim/posf.jpg,stim/negf.jpg,stim/1.jpg,stim/6.jpg,stim/latef.jpg,AB,2,4,,,,,,,,,0,37,37,13,,,,,,,,,,4,1,0.566474967858,,,,,,2016_Aug_04_1515,P2,PLC_L_D1S1,NHGX,60.0180099605,
stim/posf.jpg,stim/negf.jpg,stim/1.jpg,stim/6.jpg,stim/latef.jpg,AB,2,4,,,,,,,,,0,38,38,17,,,,,,,,,,4,1,0.63313811475,,,,,,2016_Aug_04_1515,P2,PLC_L_D1S1,NHGX,60.0180099605,
stim/posf.jpg,stim/negf.jpg,stim/1.jpg,stim/6.jpg,stim/latef.jpg,AB,2,4,,,,,,,,,0,39,39,11,,,,,,,,,,4,1,0.533118767527,,,,,,2016_Aug_04_1515,P2,PLC_L_D1S1,NHGX,60.0180099605,
stim/posf.jpg,stim/negf.jpg,stim/1.jpg,stim/6.jpg,stim/latef.jpg,AB,2,4,,,,,,,,,0,40,40,16,,,,,,,,,,4,1,0.483154469515,,,,,,2016_Aug_04_1515,P2,PLC_L_D1S1,NHGX,60.0180099605,
stim/posf.jpg,stim/negf.jpg,stim/6.jpg,stim/1.jpg,stim/latef.jpg,AB,1,2,,,,,,,,,0,41,41,2,,,,,,,,,,2,1,0.666510850295,,,,,,2016_Aug_04_1515,P2,PLC_L_D1S1,NHGX,60.0180099605,
stim/posf.jpg,stim/negf.jpg,stim/4.jpg,stim/3.jpg,stim/latef.jpg,CD,1,2,,,,,,,,,0,42,42,24,,,,,,,,,,2,1,0.633166316044,,,,,,2016_Aug_04_1515,P2,PLC_L_D1S1,NHGX,60.0180099605,
stim/posf.jpg,stim/negf.jpg,stim/6.jpg,stim/1.jpg,stim/latef.jpg,AB,1,2,,,,,,,,,0,43,43,0,,,,,,,,,,2,1,0.616450613154,,,,,,2016_Aug_04_1515,P2,PLC_L_D1S1,NHGX,60.0180099605,
stim/posf.jpg,stim/negf.jpg,stim/5.jpg,stim/2.jpg,stim/latef.jpg,EF,2,4,,,,,,,,,0,44,44,54,,,,,,,,,,4,1,0.766416183338,,,,,,2016_Aug_04_1515,P2,PLC_L_D1S1,NHGX,60.0180099605,
stim/posf.jpg,stim/negf.jpg,stim/3.jpg,stim/4.jpg,stim/latef.jpg,CD,2,4,,,,,,,,,0,45,45,33,,,,,,,,,,4,1,0.7330906715,,,,,,2016_Aug_04_1515,P2,PLC_L_D1S1,NHGX,60.0180099605,
stim/posf.jpg,stim/negf.jpg,stim/4.jpg,stim/3.jpg,stim/latef.jpg,CD,1,2,,,,,,,,,0,46,46,20,,,,,,,,,,2,1,0.61645175901,,,,,,2016_Aug_04_1515,P2,PLC_L_D1S1,NHGX,60.0180099605,
stim/negf.jpg,stim/posf.jpg,stim/2.jpg,stim/5.jpg,stim/latef.jpg,EF,1,2,,,,,,,,,0,47,47,46,,,,,,,,,,2,1,0.816417750242,,,,,,2016_Aug_04_1515,P2,PLC_L_D1S1,NHGX,60.0180099605,
stim/negf.jpg,stim/posf.jpg,stim/3.jpg,stim/4.jpg,stim/latef.jpg,CD,2,4,,,,,,,,,0,48,48,38,,,,,,,,,,4,1,0.683122175022,,,,,,2016_Aug_04_1515,P2,PLC_L_D1S1,NHGX,60.0180099605,
stim/negf.jpg,stim/posf.jpg,stim/5.jpg,stim/2.jpg,stim/latef.jpg,EF,2,4,,,,,,,,,0,49,49,58,,,,,,,,,,4,1,0.633117744979,,,,,,2016_Aug_04_1515,P2,PLC_L_D1S1,NHGX,60.0180099605,
stim/posf.jpg,stim/negf.jpg,stim/5.jpg,stim/2.jpg,stim/latef.jpg,EF,2,4,,,,,,,,,0,50,50,53,,,,,,,,,,4,1,0.516497238366,,,,,,2016_Aug_04_1515,P2,PLC_L_D1S1,NHGX,60.0180099605,
stim/negf.jpg,stim/posf.jpg,stim/5.jpg,stim/2.jpg,stim/latef.jpg,EF,2,4,,,,,,,,,0,51,51,59,,,,,,,,,,4,1,0.549824443426,,,,,,2016_Aug_04_1515,P2,PLC_L_D1S1,NHGX,60.0180099605,
stim/posf.jpg,stim/negf.jpg,stim/5.jpg,stim/2.jpg,stim/latef.jpg,EF,2,4,,,,,,,,,0,52,52,50,,,,,,,,,,4,1,0.533168195729,,,,,,2016_Aug_04_1515,P2,PLC_L_D1S1,NHGX,60.0180099605,
stim/negf.jpg,stim/posf.jpg,stim/6.jpg,stim/1.jpg,stim/latef.jpg,AB,1,2,,,,,,,,,0,53,53,9,,,,,,,,,,2,1,0.966333263659,,,,,,2016_Aug_04_1515,P2,PLC_L_D1S1,NHGX,60.0180099605,
stim/posf.jpg,stim/negf.jpg,stim/5.jpg,stim/2.jpg,stim/latef.jpg,EF,2,4,,,,,,,,,0,54,54,55,,,,,,,,,,4,1,0.516536029054,,,,,,2016_Aug_04_1515,P2,PLC_L_D1S1,NHGX,60.0180099605,
stim/negf.jpg,stim/posf.jpg,stim/2.jpg,stim/5.jpg,stim/latef.jpg,EF,1,2,,,,,,,,,0,55,55,49,,,,,,,,,,2,1,0.449859802558,,,,,,2016_Aug_04_1515,P2,PLC_L_D1S1,NHGX,60.0180099605,
stim/posf.jpg,stim/negf.jpg,stim/1.jpg,stim/6.jpg,stim/latef.jpg,AB,2,4,,,,,,,,,0,56,56,12,,,,,,,,,,4,1,0.766382183592,,,,,,2016_Aug_04_1515,P2,PLC_L_D1S1,NHGX,60.0180099605,
stim/posf.jpg,stim/negf.jpg,stim/6.jpg,stim/1.jpg,stim/latef.jpg,AB,1,2,,,,,,,,,0,57,57,1,,,,,,,,,,2,1,0.683114806656,,,,,,2016_Aug_04_1515,P2,PLC_L_D1S1,NHGX,60.0180099605,
stim/posf.jpg,stim/negf.jpg,stim/6.jpg,stim/1.jpg,stim/latef.jpg,AB,1,2,,,,,,,,,0,58,58,3,,,,,,,,,,2,1,0.616484528688,,,,,,2016_Aug_04_1515,P2,PLC_L_D1S1,NHGX,60.0180099605,
stim/posf.jpg,stim/negf.jpg,stim/3.jpg,stim/4.jpg,stim/latef.jpg,CD,2,4,,,,,,,,,0,59,59,36,,,,,,,,,,4,1,0.666455945444,,,,,,2016_Aug_04_1515,P2,PLC_L_D1S1,NHGX,60.0180099605,
,,,,,,,,,,,,,,,,,,,,,,,,,,,,,,,,0.9984375,0.9765625,1,0,0,2016_Aug_04_1515,P2,PLC_L_D1S1,NHGX,60.0180099605,
stim/negf.jpg,stim/posf.jpg,stim/4.jpg,stim/3.jpg,stim/latef.jpg,CD,1,2,,,,,,,,,,,,,0,0,0,27,,,,,,2,1,0.849712302914,,,,,,2016_Aug_04_1515,P2,PLC_L_D1S1,NHGX,60.0180099605,
stim/posf.jpg,stim/negf.jpg,stim/1.jpg,stim/6.jpg,stim/latef.jpg,AB,2,4,,,,,,,,,,,,,0,1,1,12,,,,,,4,1,0.849724317863,,,,,,2016_Aug_04_1515,P2,PLC_L_D1S1,NHGX,60.0180099605,
stim/negf.jpg,stim/posf.jpg,stim/5.jpg,stim/2.jpg,stim/latef.jpg,EF,2,4,,,,,,,,,,,,,0,2,2,56,,,,,,4,1,0.616459876243,,,,,,2016_Aug_04_1515,P2,PLC_L_D1S1,NHGX,60.0180099605,
stim/posf.jpg,stim/negf.jpg,stim/3.jpg,stim/4.jpg,stim/latef.jpg,CD,2,4,,,,,,,,,,,,,0,3,3,30,,,,,,4,1,0.716439055346,,,,,,2016_Aug_04_1515,P2,PLC_L_D1S1,NHGX,60.0180099605,
stim/posf.jpg,stim/negf.jpg,stim/1.jpg,stim/6.jpg,stim/latef.jpg,AB,2,4,,,,,,,,,,,,,0,4,4,13,,,,,,4,1,0.699753117646,,,,,,2016_Aug_04_1515,P2,PLC_L_D1S1,NHGX,60.0180099605,
stim/posf.jpg,stim/negf.jpg,stim/5.jpg,stim/2.jpg,stim/latef.jpg,EF,2,4,,,,,,,,,,,,,0,5,5,51,,,,,,4,1,0.599807664605,,,,,,2016_Aug_04_1515,P2,PLC_L_D1S1,NHGX,60.0180099605,
stim/posf.jpg,stim/negf.jpg,stim/6.jpg,stim/1.jpg,stim/latef.jpg,AB,1,2,,,,,,,,,,,,,0,6,6,0,,,,,,2,1,0.666445407176,,,,,,2016_Aug_04_1515,P2,PLC_L_D1S1,NHGX,60.0180099605,
stim/posf.jpg,stim/negf.jpg,stim/3.jpg,stim/4.jpg,stim/latef.jpg,CD,2,4,,,,,,,,,,,,,0,7,7,31,,,,,,4,1,0.616531331343,,,,,,2016_Aug_04_1515,P2,PLC_L_D1S1,NHGX,60.0180099605,
stim/posf.jpg,stim/negf.jpg,stim/2.jpg,stim/5.jpg,stim/latef.jpg,EF,1,2,,,,,,,,,,,,,0,8,8,43,,,,,,2,1,0.78305315599,,,,,,2016_Aug_04_1515,P2,PLC_L_D1S1,NHGX,60.0180099605,
stim/negf.jpg,stim/posf.jpg,stim/5.jpg,stim/2.jpg,stim/latef.jpg,EF,2,4,,,,,,,,,,,,,0,9,9,57,,,,,,4,1,0.566491758709,,,,,,2016_Aug_04_1515,P2,PLC_L_D1S1,NHGX,60.0180099605,
stim/posf.jpg,stim/negf.jpg,stim/2.jpg,stim/5.jpg,stim/latef.jpg,EF,1,2,,,,,,,,,,,,,0,10,10,42,,,,,,2,1,0.616451031196,,,,,,2016_Aug_04_1515,P2,PLC_L_D1S1,NHGX,60.0180099605,
stim/posf.jpg,stim/negf.jpg,stim/4.jpg,stim/3.jpg,stim/latef.jpg,CD,1,2,,,,,,,,,,,,,0,11,11,23,,,,,,4,0,0.73308814821,,,,,,2016_Aug_04_1515,P2,PLC_L_D1S1,NHGX,60.0180099605,
stim/posf.jpg,stim/negf.jpg,stim/6.jpg,stim/1.jpg,stim/latef.jpg,AB,1,2,,,,,,,,,,,,,0,12,12,3,,,,,,2,1,0.966379970076,,,,,,2016_Aug_04_1515,P2,PLC_L_D1S1,NHGX,60.0180099605,
stim/posf.jpg,stim/negf.jpg,stim/2.jpg,stim/5.jpg,stim/latef.jpg,EF,1,2,,,,,,,,,,,,,0,13,13,40,,,,,,2,1,0.683114463802,,,,,,2016_Aug_04_1515,P2,PLC_L_D1S1,NHGX,60.0180099605,
stim/posf.jpg,stim/negf.jpg,stim/4.jpg,stim/3.jpg,stim/latef.jpg,CD,1,2,,,,,,,,,,,,,0,14,14,24,,,,,,2,1,0.8330642326,,,,,,2016_Aug_04_1515,P2,PLC_L_D1S1,NHGX,60.0180099605,
stim/negf.jpg,stim/posf.jpg,stim/2.jpg,stim/5.jpg,stim/latef.jpg,EF,1,2,,,,,,,,,,,,,0,15,15,48,,,,,,2,1,0.633170682926,,,,,,2016_Aug_04_1515,P2,PLC_L_D1S1,NHGX,60.0180099605,
stim/posf.jpg,stim/negf.jpg,stim/6.jpg,stim/1.jpg,stim/latef.jpg,AB,1,2,,,,,,,,,,,,,0,16,16,2,,,,,,2,1,0.499810633004,,,,,,2016_Aug_04_1515,P2,PLC_L_D1S1,NHGX,60.0180099605,
stim/posf.jpg,stim/negf.jpg,stim/6.jpg,stim/1.jpg,stim/latef.jpg,AB,1,2,,,,,,,,,,,,,0,17,17,1,,,,,,2,1,0.633123675761,,,,,,2016_Aug_04_1515,P2,PLC_L_D1S1,NHGX,60.0180099605,
stim/posf.jpg,stim/negf.jpg,stim/5.jpg,stim/2.jpg,stim/latef.jpg,EF,2,4,,,,,,,,,,,,,0,18,18,52,,,,,,4,1,0.583079083615,,,,,,2016_Aug_04_1515,P2,PLC_L_D1S1,NHGX,60.0180099605,
stim/posf.jpg,stim/negf.jpg,stim/4.jpg,stim/3.jpg,stim/latef.jpg,CD,1,2,,,,,,,,,,,,,0,19,19,22,,,,,,2,1,0.666437280923,,,,,,2016_Aug_04_1515,P2,PLC_L_D1S1,NHGX,60.0180099605,
stim/posf.jpg,stim/negf.jpg,stim/5.jpg,stim/2.jpg,stim/latef.jpg,EF,2,4,,,,,,,,,,,,,0,20,20,54,,,,,,4,1,0.583124331397,,,,,,2016_Aug_04_1515,P2,PLC_L_D1S1,NHGX,60.0180099605,
stim/posf.jpg,stim/negf.jpg,stim/3.jpg,stim/4.jpg,stim/latef.jpg,CD,2,4,,,,,,,,,,,,,0,21,21,33,,,,,,4,1,0.666439295945,,,,,,2016_Aug_04_1515,P2,PLC_L_D1S1,NHGX,60.0180099605,
stim/negf.jpg,stim/posf.jpg,stim/3.jpg,stim/4.jpg,stim/latef.jpg,CD,2,4,,,,,,,,,,,,,0,22,22,39,,,,,,4,1,0.649778546027,,,,,,2016_Aug_04_1515,P2,PLC_L_D1S1,NHGX,60.0180099605,
stim/posf.jpg,stim/negf.jpg,stim/3.jpg,stim/4.jpg,stim/latef.jpg,CD,2,4,,,,,,,,,,,,,0,23,23,34,,,,,,4,1,0.599789363991,,,,,,2016_Aug_04_1515,P2,PLC_L_D1S1,NHGX,60.0180099605,
stim/posf.jpg,stim/negf.jpg,stim/6.jpg,stim/1.jpg,stim/latef.jpg,AB,1,2,,,,,,,,,,,,,0,24,24,5,,,,,,2,1,0.64977226036,,,,,,2016_Aug_04_1515,P2,PLC_L_D1S1,NHGX,60.0180099605,
stim/negf.jpg,stim/posf.jpg,stim/5.jpg,stim/2.jpg,stim/latef.jpg,EF,2,4,,,,,,,,,,,,,0,25,25,59,,,,,,4,1,0.882997998511,,,,,,2016_Aug_04_1515,P2,PLC_L_D1S1,NHGX,60.0180099605,
stim/negf.jpg,stim/posf.jpg,stim/3.jpg,stim/4.jpg,stim/latef.jpg,CD,2,4,,,,,,,,,,,,,0,26,26,38,,,,,,4,1,0.599800290223,,,,,,2016_Aug_04_1515,P2,PLC_L_D1S1,NHGX,60.0180099605,
stim/posf.jpg,stim/negf.jpg,stim/2.jpg,stim/5.jpg,stim/latef.jpg,EF,1,2,,,,,,,,,,,,,0,27,27,44,,,,,,2,1,0.533149326697,,,,,,2016_Aug_04_1515,P2,PLC_L_D1S1,NHGX,60.0180099605,
stim/posf.jpg,stim/negf.jpg,stim/1.jpg,stim/6.jpg,stim/latef.jpg,AB,2,4,,,,,,,,,,,,,0,28,28,15,,,,,,4,1,0.666432923061,,,,,,2016_Aug_04_1515,P2,PLC_L_D1S1,NHGX,60.0180099605,
stim/negf.jpg,stim/posf.jpg,stim/2.jpg,stim/5.jpg,stim/latef.jpg,EF,1,2,,,,,,,,,,,,,0,29,29,46,,,,,,2,1,0.583134650115,,,,,,2016_Aug_04_1515,P2,PLC_L_D1S1,NHGX,60.0180099605,
stim/posf.jpg,stim/negf.jpg,stim/2.jpg,stim/5.jpg,stim/latef.jpg,EF,1,2,,,,,,,,,,,,,0,30,30,41,,,,,,2,1,0.533149251511,,,,,,2016_Aug_04_1515,P2,PLC_L_D1S1,NHGX,60.0180099605,
stim/negf.jpg,stim/posf.jpg,stim/2.jpg,stim/5.jpg,stim/latef.jpg,EF,1,2,,,,,,,,,,,,,0,31,31,49,,,,,,2,1,0.783101522546,,,,,,2016_Aug_04_1515,P2,PLC_L_D1S1,NHGX,60.0180099605,
stim/posf.jpg,stim/negf.jpg,stim/6.jpg,stim/1.jpg,stim/latef.jpg,AB,1,2,,,,,,,,,,,,,0,32,32,4,,,,,,2,1,0.733082485094,,,,,,2016_Aug_04_1515,P2,PLC_L_D1S1,NHGX,60.0180099605,
stim/negf.jpg,stim/posf.jpg,stim/1.jpg,stim/6.jpg,stim/latef.jpg,AB,2,4,,,,,,,,,,,,,0,33,33,18,,,,,,4,1,0.683138304223,,,,,,2016_Aug_04_1515,P2,PLC_L_D1S1,NHGX,60.0180099605,
stim/posf.jpg,stim/negf.jpg,stim/4.jpg,stim/3.jpg,stim/latef.jpg,CD,1,2,,,,,,,,,,,,,0,34,34,26,,,,,,2,1,0.6165072413,,,,,,2016_Aug_04_1515,P2,PLC_L_D1S1,NHGX,60.0180099605,
stim/negf.jpg,stim/posf.jpg,stim/3.jpg,stim/4.jpg,stim/latef.jpg,CD,2,4,,,,,,,,,,,,,0,35,35,37,,,,,,4,1,0.982999378954,,,,,,2016_Aug_04_1515,P2,PLC_L_D1S1,NHGX,60.0180099605,
stim/posf.jpg,stim/negf.jpg,stim/1.jpg,stim/6.jpg,stim/latef.jpg,AB,2,4,,,,,,,,,,,,,0,36,36,11,,,,,,4,1,0.566475295675,,,,,,2016_Aug_04_1515,P2,PLC_L_D1S1,NHGX,60.0180099605,
stim/posf.jpg,stim/negf.jpg,stim/2.jpg,stim/5.jpg,stim/latef.jpg,EF,1,2,,,,,,,,,,,,,0,37,37,45,,,,,,2,1,0.633097501523,,,,,,2016_Aug_04_1515,P2,PLC_L_D1S1,NHGX,60.0180099605,
stim/posf.jpg,stim/negf.jpg,stim/5.jpg,stim/2.jpg,stim/latef.jpg,EF,2,4,,,,,,,,,,,,,0,38,38,55,,,,,,4,1,0.733103940573,,,,,,2016_Aug_04_1515,P2,PLC_L_D1S1,NHGX,60.0180099605,
stim/posf.jpg,stim/negf.jpg,stim/6.jpg,stim/1.jpg,stim/latef.jpg,AB,1,2,,,,,,,,,,,,,0,39,39,7,,,,,,2,1,0.549830813303,,,,,,2016_Aug_04_1515,P2,PLC_L_D1S1,NHGX,60.0180099605,
stim/negf.jpg,stim/posf.jpg,stim/6.jpg,stim/1.jpg,stim/latef.jpg,AB,1,2,,,,,,,,,,,,,0,40,40,8,,,,,,2,1,0.683109778123,,,,,,2016_Aug_04_1515,P2,PLC_L_D1S1,NHGX,60.0180099605,
stim/negf.jpg,stim/posf.jpg,stim/4.jpg,stim/3.jpg,stim/latef.jpg,CD,1,2,,,,,,,,,,,,,0,41,41,28,,,,,,2,1,0.799704522522,,,,,,2016_Aug_04_1515,P2,PLC_L_D1S1,NHGX,60.0180099605,
stim/posf.jpg,stim/negf.jpg,stim/1.jpg,stim/6.jpg,stim/latef.jpg,AB,2,4,,,,,,,,,,,,,0,42,42,14,,,,,,4,1,0.766426610326,,,,,,2016_Aug_04_1515,P2,PLC_L_D1S1,NHGX,60.0180099605,
stim/posf.jpg,stim/negf.jpg,stim/5.jpg,stim/2.jpg,stim/latef.jpg,EF,2,4,,,,,,,,,,,,,0,43,43,53,,,,,,4,1,0.716455644693,,,,,,2016_Aug_04_1515,P2,PLC_L_D1S1,NHGX,60.0180099605,
stim/posf.jpg,stim/negf.jpg,stim/3.jpg,stim/4.jpg,stim/latef.jpg,CD,2,4,,,,,,,,,,,,,0,44,44,35,,,,,,4,1,0.716346815436,,,,,,2016_Aug_04_1515,P2,PLC_L_D1S1,NHGX,60.0180099605,
stim/negf.jpg,stim/posf.jpg,stim/2.jpg,stim/5.jpg,stim/latef.jpg,EF,1,2,,,,,,,,,,,,,0,45,45,47,,,,,,2,1,0.549826070481,,,,,,2016_Aug_04_1515,P2,PLC_L_D1S1,NHGX,60.0180099605,
stim/posf.jpg,stim/negf.jpg,stim/4.jpg,stim/3.jpg,stim/latef.jpg,CD,1,2,,,,,,,,,,,,,0,46,46,25,,,,,,2,1,0.666476916715,,,,,,2016_Aug_04_1515,P2,PLC_L_D1S1,NHGX,60.0180099605,
stim/posf.jpg,stim/negf.jpg,stim/4.jpg,stim/3.jpg,stim/latef.jpg,CD,1,2,,,,,,,,,,,,,0,47,47,20,,,,,,2,1,0.566457232653,,,,,,2016_Aug_04_1515,P2,PLC_L_D1S1,NHGX,60.0180099605,
stim/posf.jpg,stim/negf.jpg,stim/1.jpg,stim/6.jpg,stim/latef.jpg,AB,2,4,,,,,,,,,,,,,0,48,48,17,,,,,,4,1,0.74974356283,,,,,,2016_Aug_04_1515,P2,PLC_L_D1S1,NHGX,60.0180099605,
stim/posf.jpg,stim/negf.jpg,stim/3.jpg,stim/4.jpg,stim/latef.jpg,CD,2,4,,,,,,,,,,,,,0,49,49,32,,,,,,4,1,0.733090012856,,,,,,2016_Aug_04_1515,P2,PLC_L_D1S1,NHGX,60.0180099605,
stim/posf.jpg,stim/negf.jpg,stim/1.jpg,stim/6.jpg,stim/latef.jpg,AB,2,4,,,,,,,,,,,,,0,50,50,10,,,,,,4,1,0.633138890684,,,,,,2016_Aug_04_1515,P2,PLC_L_D1S1,NHGX,60.0180099605,
stim/negf.jpg,stim/posf.jpg,stim/6.jpg,stim/1.jpg,stim/latef.jpg,AB,1,2,,,,,,,,,,,,,0,51,51,9,,,,,,2,1,0.533158683018,,,,,,2016_Aug_04_1515,P2,PLC_L_D1S1,NHGX,60.0180099605,
stim/negf.jpg,stim/posf.jpg,stim/4.jpg,stim/3.jpg,stim/latef.jpg,CD,1,2,,,,,,,,,,,,,0,52,52,29,,,,,,2,1,0.666432108028,,,,,,2016_Aug_04_1515,P2,PLC_L_D1S1,NHGX,60.0180099605,
stim/posf.jpg,stim/negf.jpg,stim/1.jpg,stim/6.jpg,stim/latef.jpg,AB,2,4,,,,,,,,,,,,,0,53,53,16,,,,,,4,1,1.04966085668,,,,,,2016_Aug_04_1515,P2,PLC_L_D1S1,NHGX,60.0180099605,
stim/posf.jpg,stim/negf.jpg,stim/5.jpg,stim/2.jpg,stim/latef.jpg,EF,2,4,,,,,,,,,,,,,0,54,54,50,,,,,,4,1,1.14961295329,,,,,,2016_Aug_04_1515,P2,PLC_L_D1S1,NHGX,60.0180099605,
stim/negf.jpg,stim/posf.jpg,stim/5.jpg,stim/2.jpg,stim/latef.jpg,EF,2,4,,,,,,,,,,,,,0,55,55,58,,,,,,4,1,0.99965330787,,,,,,2016_Aug_04_1515,P2,PLC_L_D1S1,NHGX,60.0180099605,
stim/posf.jpg,stim/negf.jpg,stim/6.jpg,stim/1.jpg,stim/latef.jpg,AB,1,2,,,,,,,,,,,,,0,56,56,6,,,,,,4,0,0.883042031264,,,,,,2016_Aug_04_1515,P2,PLC_L_D1S1,NHGX,60.0180099605,
stim/negf.jpg,stim/posf.jpg,stim/1.jpg,stim/6.jpg,stim/latef.jpg,AB,2,4,,,,,,,,,,,,,0,57,57,19,,,,,,4,1,0.716478561815,,,,,,2016_Aug_04_1515,P2,PLC_L_D1S1,NHGX,60.0180099605,
stim/posf.jpg,stim/negf.jpg,stim/3.jpg,stim/4.jpg,stim/latef.jpg,CD,2,4,,,,,,,,,,,,,0,58,58,36,,,,,,4,1,0.633119453236,,,,,,2016_Aug_04_1515,P2,PLC_L_D1S1,NHGX,60.0180099605,
stim/posf.jpg,stim/negf.jpg,stim/4.jpg,stim/3.jpg,stim/latef.jpg,CD,1,2,,,,,,,,,,,,,0,59,59,21,,,,,,2,1,0.566477265584,,,,,,2016_Aug_04_1515,P2,PLC_L_D1S1,NHGX,60.0180099605,
