fb_corr,fb_incorr,symbol2,symbol1,fb_late,pair,position,correct,block_01.thisRepN,block_01.thisTrialN,block_01.thisN,block_01.thisIndex,block_02.thisRepN,block_02.thisTrialN,block_02.thisN,block_02.thisIndex,block_03.thisRepN,block_03.thisTrialN,block_03.thisN,block_03.thisIndex,block_04.thisRepN,block_04.thisTrialN,block_04.thisN,block_04.thisIndex,mouse.x,mouse.y,mouse.leftButton,mouse.midButton,mouse.rightButton,buttonBox_2.keys,buttonBox_2.corr,buttonBox_2.rt,mouse_2.x,mouse_2.y,mouse_2.leftButton,mouse_2.midButton,mouse_2.rightButton,date,Participant,expName,Group,frameRate,
,,,,,,,,,,,,,,,,,,,,,,,,0.9984375,0.806640625,1,0,0,,,,,,,,,2016_Aug_09_1337,P3,PLC_L_D1S1,NHGX,60.0176676245,
stim/posf.jpg,stim/negf.jpg,stim/4.jpg,stim/6.jpg,stim/latef.jpg,EF,2,4,0,0,0,55,,,,,,,,,,,,,,,,,,None,0,,,,,,,2016_Aug_09_1337,P3,PLC_L_D1S1,NHGX,60.0176676245,
stim/posf.jpg,stim/negf.jpg,stim/1.jpg,stim/2.jpg,stim/latef.jpg,AB,1,2,0,1,1,2,,,,,,,,,,,,,,,,,,4,0,0.749752140209,,,,,,2016_Aug_09_1337,P3,PLC_L_D1S1,NHGX,60.0176676245,
stim/posf.jpg,stim/negf.jpg,stim/1.jpg,stim/2.jpg,stim/latef.jpg,AB,1,2,0,2,2,3,,,,,,,,,,,,,,,,,,2,1,0.86638001218,,,,,,2016_Aug_09_1337,P3,PLC_L_D1S1,NHGX,60.0176676245,
stim/posf.jpg,stim/negf.jpg,stim/6.jpg,stim/4.jpg,stim/latef.jpg,EF,1,2,0,3,3,44,,,,,,,,,,,,,,,,,,2,1,1.39953566364,,,,,,2016_Aug_09_1337,P3,PLC_L_D1S1,NHGX,60.0176676245,
stim/posf.jpg,stim/negf.jpg,stim/4.jpg,stim/6.jpg,stim/latef.jpg,EF,2,4,0,4,4,52,,,,,,,,,,,,,,,,,,4,1,1.416190973,,,,,,2016_Aug_09_1337,P3,PLC_L_D1S1,NHGX,60.0176676245,
stim/posf.jpg,stim/negf.jpg,stim/3.jpg,stim/5.jpg,stim/latef.jpg,CD,1,2,0,5,5,25,,,,,,,,,,,,,,,,,,2,1,1.04964395155,,,,,,2016_Aug_09_1337,P3,PLC_L_D1S1,NHGX,60.0176676245,
stim/negf.jpg,stim/posf.jpg,stim/5.jpg,stim/3.jpg,stim/latef.jpg,CD,2,4,0,6,6,39,,,,,,,,,,,,,,,,,,2,0,1.14953146518,,,,,,2016_Aug_09_1337,P3,PLC_L_D1S1,NHGX,60.0176676245,
stim/posf.jpg,stim/negf.jpg,stim/5.jpg,stim/3.jpg,stim/latef.jpg,CD,2,4,0,7,7,33,,,,,,,,,,,,,,,,,,2,0,0.883043492906,,,,,,2016_Aug_09_1337,P3,PLC_L_D1S1,NHGX,60.0176676245,
stim/posf.jpg,stim/negf.jpg,stim/1.jpg,stim/2.jpg,stim/latef.jpg,AB,1,2,0,8,8,6,,,,,,,,,,,,,,,,,,4,0,1.0163388546,,,,,,2016_Aug_09_1337,P3,PLC_L_D1S1,NHGX,60.0176676245,
stim/posf.jpg,stim/negf.jpg,stim/2.jpg,stim/1.jpg,stim/latef.jpg,AB,2,4,0,9,9,14,,,,,,,,,,,,,,,,,,4,1,1.63278834294,,,,,,2016_Aug_09_1337,P3,PLC_L_D1S1,NHGX,60.0176676245,
stim/posf.jpg,stim/negf.jpg,stim/1.jpg,stim/2.jpg,stim/latef.jpg,AB,1,2,0,10,10,0,,,,,,,,,,,,,,,,,,2,1,1.13297039571,,,,,,2016_Aug_09_1337,P3,PLC_L_D1S1,NHGX,60.0176676245,
stim/posf.jpg,stim/negf.jpg,stim/2.jpg,stim/1.jpg,stim/latef.jpg,AB,2,4,0,11,11,17,,,,,,,,,,,,,,,,,,4,1,1.0329646544,,,,,,2016_Aug_09_1337,P3,PLC_L_D1S1,NHGX,60.0176676245,
stim/posf.jpg,stim/negf.jpg,stim/2.jpg,stim/1.jpg,stim/latef.jpg,AB,2,4,0,12,12,10,,,,,,,,,,,,,,,,,,4,1,1.14962958173,,,,,,2016_Aug_09_1337,P3,PLC_L_D1S1,NHGX,60.0176676245,
stim/posf.jpg,stim/negf.jpg,stim/3.jpg,stim/5.jpg,stim/latef.jpg,CD,1,2,0,13,13,26,,,,,,,,,,,,,,,,,,4,0,1.0163193179,,,,,,2016_Aug_09_1337,P3,PLC_L_D1S1,NHGX,60.0176676245,
stim/negf.jpg,stim/posf.jpg,stim/3.jpg,stim/5.jpg,stim/latef.jpg,CD,1,2,0,14,14,27,,,,,,,,,,,,,,,,,,2,1,1.29962810505,,,,,,2016_Aug_09_1337,P3,PLC_L_D1S1,NHGX,60.0176676245,
stim/posf.jpg,stim/negf.jpg,stim/4.jpg,stim/6.jpg,stim/latef.jpg,EF,2,4,0,15,15,51,,,,,,,,,,,,,,,,,,4,1,1.3162310539,,,,,,2016_Aug_09_1337,P3,PLC_L_D1S1,NHGX,60.0176676245,
stim/negf.jpg,stim/posf.jpg,stim/4.jpg,stim/6.jpg,stim/latef.jpg,EF,2,4,0,16,16,59,,,,,,,,,,,,,,,,,,4,1,1.18294602898,,,,,,2016_Aug_09_1337,P3,PLC_L_D1S1,NHGX,60.0176676245,
stim/posf.jpg,stim/negf.jpg,stim/2.jpg,stim/1.jpg,stim/latef.jpg,AB,2,4,0,17,17,13,,,,,,,,,,,,,,,,,,2,0,1.2495567492,,,,,,2016_Aug_09_1337,P3,PLC_L_D1S1,NHGX,60.0176676245,
stim/posf.jpg,stim/negf.jpg,stim/3.jpg,stim/5.jpg,stim/latef.jpg,CD,1,2,0,18,18,20,,,,,,,,,,,,,,,,,,4,0,1.31624931241,,,,,,2016_Aug_09_1337,P3,PLC_L_D1S1,NHGX,60.0176676245,
stim/posf.jpg,stim/negf.jpg,stim/1.jpg,stim/2.jpg,stim/latef.jpg,AB,1,2,0,19,19,5,,,,,,,,,,,,,,,,,,2,1,1.24958612041,,,,,,2016_Aug_09_1337,P3,PLC_L_D1S1,NHGX,60.0176676245,
stim/posf.jpg,stim/negf.jpg,stim/2.jpg,stim/1.jpg,stim/latef.jpg,AB,2,4,0,20,20,15,,,,,,,,,,,,,,,,,,2,0,1.33283013812,,,,,,2016_Aug_09_1337,P3,PLC_L_D1S1,NHGX,60.0176676245,
stim/negf.jpg,stim/posf.jpg,stim/2.jpg,stim/1.jpg,stim/latef.jpg,AB,2,4,0,21,21,19,,,,,,,,,,,,,,,,,,4,1,0.982996633108,,,,,,2016_Aug_09_1337,P3,PLC_L_D1S1,NHGX,60.0176676245,
stim/negf.jpg,stim/posf.jpg,stim/5.jpg,stim/3.jpg,stim/latef.jpg,CD,2,4,0,22,22,37,,,,,,,,,,,,,,,,,,2,0,1.08296692506,,,,,,2016_Aug_09_1337,P3,PLC_L_D1S1,NHGX,60.0176676245,
stim/posf.jpg,stim/negf.jpg,stim/2.jpg,stim/1.jpg,stim/latef.jpg,AB,2,4,0,23,23,12,,,,,,,,,,,,,,,,,,2,0,1.6661078428,,,,,,2016_Aug_09_1337,P3,PLC_L_D1S1,NHGX,60.0176676245,
stim/negf.jpg,stim/posf.jpg,stim/4.jpg,stim/6.jpg,stim/latef.jpg,EF,2,4,0,24,24,58,,,,,,,,,,,,,,,,,,4,1,1.06636226795,,,,,,2016_Aug_09_1337,P3,PLC_L_D1S1,NHGX,60.0176676245,
stim/negf.jpg,stim/posf.jpg,stim/2.jpg,stim/1.jpg,stim/latef.jpg,AB,2,4,0,25,25,18,,,,,,,,,,,,,,,,,,2,0,1.4328420869,,,,,,2016_Aug_09_1337,P3,PLC_L_D1S1,NHGX,60.0176676245,
stim/posf.jpg,stim/negf.jpg,stim/1.jpg,stim/2.jpg,stim/latef.jpg,AB,1,2,0,26,26,1,,,,,,,,,,,,,,,,,,None,0,,,,,,,2016_Aug_09_1337,P3,PLC_L_D1S1,NHGX,60.0176676245,
stim/posf.jpg,stim/negf.jpg,stim/4.jpg,stim/6.jpg,stim/latef.jpg,EF,2,4,0,27,27,54,,,,,,,,,,,,,,,,,,2,0,0.433161753671,,,,,,2016_Aug_09_1337,P3,PLC_L_D1S1,NHGX,60.0176676245,
stim/negf.jpg,stim/posf.jpg,stim/1.jpg,stim/2.jpg,stim/latef.jpg,AB,1,2,0,28,28,9,,,,,,,,,,,,,,,,,,4,0,0.966347371824,,,,,,2016_Aug_09_1337,P3,PLC_L_D1S1,NHGX,60.0176676245,
stim/negf.jpg,stim/posf.jpg,stim/6.jpg,stim/4.jpg,stim/latef.jpg,EF,1,2,0,29,29,48,,,,,,,,,,,,,,,,,,2,1,1.43285485974,,,,,,2016_Aug_09_1337,P3,PLC_L_D1S1,NHGX,60.0176676245,
stim/posf.jpg,stim/negf.jpg,stim/3.jpg,stim/5.jpg,stim/latef.jpg,CD,1,2,0,30,30,24,,,,,,,,,,,,,,,,,,4,0,0.783086782806,,,,,,2016_Aug_09_1337,P3,PLC_L_D1S1,NHGX,60.0176676245,
stim/posf.jpg,stim/negf.jpg,stim/3.jpg,stim/5.jpg,stim/latef.jpg,CD,1,2,0,31,31,21,,,,,,,,,,,,,,,,,,2,1,0.966343988391,,,,,,2016_Aug_09_1337,P3,PLC_L_D1S1,NHGX,60.0176676245,
stim/negf.jpg,stim/posf.jpg,stim/6.jpg,stim/4.jpg,stim/latef.jpg,EF,1,2,0,32,32,47,,,,,,,,,,,,,,,,,,2,1,1.01639758799,,,,,,2016_Aug_09_1337,P3,PLC_L_D1S1,NHGX,60.0176676245,
stim/posf.jpg,stim/negf.jpg,stim/3.jpg,stim/5.jpg,stim/latef.jpg,CD,1,2,0,33,33,22,,,,,,,,,,,,,,,,,,2,1,1.24957817761,,,,,,2016_Aug_09_1337,P3,PLC_L_D1S1,NHGX,60.0176676245,
stim/posf.jpg,stim/negf.jpg,stim/6.jpg,stim/4.jpg,stim/latef.jpg,EF,1,2,0,34,34,43,,,,,,,,,,,,,,,,,,2,1,1.43282981632,,,,,,2016_Aug_09_1337,P3,PLC_L_D1S1,NHGX,60.0176676245,
stim/posf.jpg,stim/negf.jpg,stim/1.jpg,stim/2.jpg,stim/latef.jpg,AB,1,2,0,35,35,4,,,,,,,,,,,,,,,,,,4,0,1.04966043864,,,,,,2016_Aug_09_1337,P3,PLC_L_D1S1,NHGX,60.0176676245,
stim/negf.jpg,stim/posf.jpg,stim/4.jpg,stim/6.jpg,stim/latef.jpg,EF,2,4,0,36,36,56,,,,,,,,,,,,,,,,,,4,1,1.14961904347,,,,,,2016_Aug_09_1337,P3,PLC_L_D1S1,NHGX,60.0176676245,
stim/negf.jpg,stim/posf.jpg,stim/3.jpg,stim/5.jpg,stim/latef.jpg,CD,1,2,0,37,37,29,,,,,,,,,,,,,,,,,,2,1,1.13296317772,,,,,,2016_Aug_09_1337,P3,PLC_L_D1S1,NHGX,60.0176676245,
stim/posf.jpg,stim/negf.jpg,stim/6.jpg,stim/4.jpg,stim/latef.jpg,EF,1,2,0,38,38,42,,,,,,,,,,,,,,,,,,2,1,1.34956765137,,,,,,2016_Aug_09_1337,P3,PLC_L_D1S1,NHGX,60.0176676245,
stim/posf.jpg,stim/negf.jpg,stim/2.jpg,stim/1.jpg,stim/latef.jpg,AB,2,4,0,39,39,11,,,,,,,,,,,,,,,,,,4,1,1.58281836076,,,,,,2016_Aug_09_1337,P3,PLC_L_D1S1,NHGX,60.0176676245,
stim/posf.jpg,stim/negf.jpg,stim/6.jpg,stim/4.jpg,stim/latef.jpg,EF,1,2,0,40,40,41,,,,,,,,,,,,,,,,,,4,0,1.2329131811,,,,,,2016_Aug_09_1337,P3,PLC_L_D1S1,NHGX,60.0176676245,
stim/negf.jpg,stim/posf.jpg,stim/3.jpg,stim/5.jpg,stim/latef.jpg,CD,1,2,0,41,41,28,,,,,,,,,,,,,,,,,,None,0,,,,,,,2016_Aug_09_1337,P3,PLC_L_D1S1,NHGX,60.0176676245,
stim/negf.jpg,stim/posf.jpg,stim/1.jpg,stim/2.jpg,stim/latef.jpg,AB,1,2,0,42,42,8,,,,,,,,,,,,,,,,,,4,0,0.799740477139,,,,,,2016_Aug_09_1337,P3,PLC_L_D1S1,NHGX,60.0176676245,
stim/posf.jpg,stim/negf.jpg,stim/4.jpg,stim/6.jpg,stim/latef.jpg,EF,2,4,0,43,43,50,,,,,,,,,,,,,,,,,,4,1,1.11630268043,,,,,,2016_Aug_09_1337,P3,PLC_L_D1S1,NHGX,60.0176676245,
stim/posf.jpg,stim/negf.jpg,stim/5.jpg,stim/3.jpg,stim/latef.jpg,CD,2,4,0,44,44,34,,,,,,,,,,,,,,,,,,4,1,1.46619242261,,,,,,2016_Aug_09_1337,P3,PLC_L_D1S1,NHGX,60.0176676245,
stim/posf.jpg,stim/negf.jpg,stim/6.jpg,stim/4.jpg,stim/latef.jpg,EF,1,2,0,45,45,40,,,,,,,,,,,,,,,,,,2,1,1.23293416741,,,,,,2016_Aug_09_1337,P3,PLC_L_D1S1,NHGX,60.0176676245,
stim/negf.jpg,stim/posf.jpg,stim/6.jpg,stim/4.jpg,stim/latef.jpg,EF,1,2,0,46,46,49,,,,,,,,,,,,,,,,,,2,1,1.21625324622,,,,,,2016_Aug_09_1337,P3,PLC_L_D1S1,NHGX,60.0176676245,
stim/posf.jpg,stim/negf.jpg,stim/5.jpg,stim/3.jpg,stim/latef.jpg,CD,2,4,0,47,47,35,,,,,,,,,,,,,,,,,,2,0,1.4828341441,,,,,,2016_Aug_09_1337,P3,PLC_L_D1S1,NHGX,60.0176676245,
stim/posf.jpg,stim/negf.jpg,stim/5.jpg,stim/3.jpg,stim/latef.jpg,CD,2,4,0,48,48,32,,,,,,,,,,,,,,,,,,2,0,1.09963074864,,,,,,2016_Aug_09_1337,P3,PLC_L_D1S1,NHGX,60.0176676245,
stim/posf.jpg,stim/negf.jpg,stim/3.jpg,stim/5.jpg,stim/latef.jpg,CD,1,2,0,49,49,23,,,,,,,,,,,,,,,,,,4,0,1.06630221728,,,,,,2016_Aug_09_1337,P3,PLC_L_D1S1,NHGX,60.0176676245,
stim/posf.jpg,stim/negf.jpg,stim/5.jpg,stim/3.jpg,stim/latef.jpg,CD,2,4,0,50,50,36,,,,,,,,,,,,,,,,,,2,0,1.56616334313,,,,,,2016_Aug_09_1337,P3,PLC_L_D1S1,NHGX,60.0176676245,
stim/negf.jpg,stim/posf.jpg,stim/4.jpg,stim/6.jpg,stim/latef.jpg,EF,2,4,0,51,51,57,,,,,,,,,,,,,,,,,,4,1,1.19960634281,,,,,,2016_Aug_09_1337,P3,PLC_L_D1S1,NHGX,60.0176676245,
stim/posf.jpg,stim/negf.jpg,stim/6.jpg,stim/4.jpg,stim/latef.jpg,EF,1,2,0,52,52,45,,,,,,,,,,,,,,,,,,4,0,1.53284017413,,,,,,2016_Aug_09_1337,P3,PLC_L_D1S1,NHGX,60.0176676245,
stim/posf.jpg,stim/negf.jpg,stim/2.jpg,stim/1.jpg,stim/latef.jpg,AB,2,4,0,53,53,16,,,,,,,,,,,,,,,,,,2,0,0.949684423425,,,,,,2016_Aug_09_1337,P3,PLC_L_D1S1,NHGX,60.0176676245,
stim/posf.jpg,stim/negf.jpg,stim/4.jpg,stim/6.jpg,stim/latef.jpg,EF,2,4,0,54,54,53,,,,,,,,,,,,,,,,,,4,1,1.06633627416,,,,,,2016_Aug_09_1337,P3,PLC_L_D1S1,NHGX,60.0176676245,
stim/negf.jpg,stim/posf.jpg,stim/6.jpg,stim/4.jpg,stim/latef.jpg,EF,1,2,0,55,55,46,,,,,,,,,,,,,,,,,,4,0,0.999621034428,,,,,,2016_Aug_09_1337,P3,PLC_L_D1S1,NHGX,60.0176676245,
stim/negf.jpg,stim/posf.jpg,stim/5.jpg,stim/3.jpg,stim/latef.jpg,CD,2,4,0,56,56,38,,,,,,,,,,,,,,,,,,4,1,1.11628967902,,,,,,2016_Aug_09_1337,P3,PLC_L_D1S1,NHGX,60.0176676245,
stim/posf.jpg,stim/negf.jpg,stim/1.jpg,stim/2.jpg,stim/latef.jpg,AB,1,2,0,57,57,7,,,,,,,,,,,,,,,,,,2,1,0.916364974699,,,,,,2016_Aug_09_1337,P3,PLC_L_D1S1,NHGX,60.0176676245,
stim/posf.jpg,stim/negf.jpg,stim/5.jpg,stim/3.jpg,stim/latef.jpg,CD,2,4,0,58,58,30,,,,,,,,,,,,,,,,,,4,1,1.51617020022,,,,,,2016_Aug_09_1337,P3,PLC_L_D1S1,NHGX,60.0176676245,
stim/posf.jpg,stim/negf.jpg,stim/5.jpg,stim/3.jpg,stim/latef.jpg,CD,2,4,0,59,59,31,,,,,,,,,,,,,,,,,,4,1,1.21626246118,,,,,,2016_Aug_09_1337,P3,PLC_L_D1S1,NHGX,60.0176676245,
,,,,,,,,,,,,,,,,,,,,,,,,,,,,,,,,0.9984375,0.806640625,1,0,0,2016_Aug_09_1337,P3,PLC_L_D1S1,NHGX,60.0176676245,
stim/posf.jpg,stim/negf.jpg,stim/2.jpg,stim/1.jpg,stim/latef.jpg,AB,2,4,,,,,0,0,0,12,,,,,,,,,,,,,,4,1,1.09963415313,,,,,,2016_Aug_09_1337,P3,PLC_L_D1S1,NHGX,60.0176676245,
stim/posf.jpg,stim/negf.jpg,stim/3.jpg,stim/5.jpg,stim/latef.jpg,CD,1,2,,,,,0,1,1,23,,,,,,,,,,,,,,2,1,1.21623970948,,,,,,2016_Aug_09_1337,P3,PLC_L_D1S1,NHGX,60.0176676245,
stim/posf.jpg,stim/negf.jpg,stim/6.jpg,stim/4.jpg,stim/latef.jpg,EF,1,2,,,,,0,2,2,43,,,,,,,,,,,,,,4,0,1.16522498327,,,,,,2016_Aug_09_1337,P3,PLC_L_D1S1,NHGX,60.0176676245,
stim/posf.jpg,stim/negf.jpg,stim/4.jpg,stim/6.jpg,stim/latef.jpg,EF,2,4,,,,,0,3,3,52,,,,,,,,,,,,,,2,0,1.249597591,,,,,,2016_Aug_09_1337,P3,PLC_L_D1S1,NHGX,60.0176676245,
stim/posf.jpg,stim/negf.jpg,stim/6.jpg,stim/4.jpg,stim/latef.jpg,EF,1,2,,,,,0,4,4,44,,,,,,,,,,,,,,2,1,1.14960142255,,,,,,2016_Aug_09_1337,P3,PLC_L_D1S1,NHGX,60.0176676245,
stim/posf.jpg,stim/negf.jpg,stim/2.jpg,stim/1.jpg,stim/latef.jpg,AB,2,4,,,,,0,5,5,13,,,,,,,,,,,,,,4,1,1.36624314103,,,,,,2016_Aug_09_1337,P3,PLC_L_D1S1,NHGX,60.0176676245,
stim/negf.jpg,stim/posf.jpg,stim/2.jpg,stim/1.jpg,stim/latef.jpg,AB,2,4,,,,,0,6,6,18,,,,,,,,,,,,,,2,0,1.33288974669,,,,,,2016_Aug_09_1337,P3,PLC_L_D1S1,NHGX,60.0176676245,
stim/posf.jpg,stim/negf.jpg,stim/1.jpg,stim/2.jpg,stim/latef.jpg,AB,1,2,,,,,0,7,7,2,,,,,,,,,,,,,,2,1,1.2496237111,,,,,,2016_Aug_09_1337,P3,PLC_L_D1S1,NHGX,60.0176676245,
stim/posf.jpg,stim/negf.jpg,stim/3.jpg,stim/5.jpg,stim/latef.jpg,CD,1,2,,,,,0,8,8,21,,,,,,,,,,,,,,4,0,1.21625349283,,,,,,2016_Aug_09_1337,P3,PLC_L_D1S1,NHGX,60.0176676245,
stim/posf.jpg,stim/negf.jpg,stim/5.jpg,stim/3.jpg,stim/latef.jpg,CD,2,4,,,,,0,9,9,35,,,,,,,,,,,,,,4,1,1.41615114473,,,,,,2016_Aug_09_1337,P3,PLC_L_D1S1,NHGX,60.0176676245,
stim/posf.jpg,stim/negf.jpg,stim/5.jpg,stim/3.jpg,stim/latef.jpg,CD,2,4,,,,,0,10,10,36,,,,,,,,,,,,,,4,1,1.46617336712,,,,,,2016_Aug_09_1337,P3,PLC_L_D1S1,NHGX,60.0176676245,
stim/negf.jpg,stim/posf.jpg,stim/1.jpg,stim/2.jpg,stim/latef.jpg,AB,1,2,,,,,0,11,11,8,,,,,,,,,,,,,,2,1,1.46616640476,,,,,,2016_Aug_09_1337,P3,PLC_L_D1S1,NHGX,60.0176676245,
stim/posf.jpg,stim/negf.jpg,stim/6.jpg,stim/4.jpg,stim/latef.jpg,EF,1,2,,,,,0,12,12,42,,,,,,,,,,,,,,4,0,1.03299899099,,,,,,2016_Aug_09_1337,P3,PLC_L_D1S1,NHGX,60.0176676245,
stim/posf.jpg,stim/negf.jpg,stim/3.jpg,stim/5.jpg,stim/latef.jpg,CD,1,2,,,,,0,13,13,22,,,,,,,,,,,,,,4,0,1.2495995579,,,,,,2016_Aug_09_1337,P3,PLC_L_D1S1,NHGX,60.0176676245,
stim/negf.jpg,stim/posf.jpg,stim/4.jpg,stim/6.jpg,stim/latef.jpg,EF,2,4,,,,,0,14,14,58,,,,,,,,,,,,,,2,0,1.53282135623,,,,,,2016_Aug_09_1337,P3,PLC_L_D1S1,NHGX,60.0176676245,
stim/negf.jpg,stim/posf.jpg,stim/5.jpg,stim/3.jpg,stim/latef.jpg,CD,2,4,,,,,0,15,15,37,,,,,,,,,,,,,,4,1,1.21626051533,,,,,,2016_Aug_09_1337,P3,PLC_L_D1S1,NHGX,60.0176676245,
stim/posf.jpg,stim/negf.jpg,stim/3.jpg,stim/5.jpg,stim/latef.jpg,CD,1,2,,,,,0,16,16,20,,,,,,,,,,,,,,2,1,0.883076151307,,,,,,2016_Aug_09_1337,P3,PLC_L_D1S1,NHGX,60.0176676245,
stim/negf.jpg,stim/posf.jpg,stim/2.jpg,stim/1.jpg,stim/latef.jpg,AB,2,4,,,,,0,17,17,19,,,,,,,,,,,,,,4,1,1.18294911467,,,,,,2016_Aug_09_1337,P3,PLC_L_D1S1,NHGX,60.0176676245,
stim/negf.jpg,stim/posf.jpg,stim/3.jpg,stim/5.jpg,stim/latef.jpg,CD,1,2,,,,,0,18,18,28,,,,,,,,,,,,,,2,1,0.916355043947,,,,,,2016_Aug_09_1337,P3,PLC_L_D1S1,NHGX,60.0176676245,
stim/posf.jpg,stim/negf.jpg,stim/2.jpg,stim/1.jpg,stim/latef.jpg,AB,2,4,,,,,0,19,19,16,,,,,,,,,,,,,,4,1,1.4162145247,,,,,,2016_Aug_09_1337,P3,PLC_L_D1S1,NHGX,60.0176676245,
stim/posf.jpg,stim/negf.jpg,stim/5.jpg,stim/3.jpg,stim/latef.jpg,CD,2,4,,,,,0,20,20,34,,,,,,,,,,,,,,2,0,1.49953755836,,,,,,2016_Aug_09_1337,P3,PLC_L_D1S1,NHGX,60.0176676245,
stim/negf.jpg,stim/posf.jpg,stim/6.jpg,stim/4.jpg,stim/latef.jpg,EF,1,2,,,,,0,21,21,48,,,,,,,,,,,,,,4,0,1.13298927376,,,,,,2016_Aug_09_1337,P3,PLC_L_D1S1,NHGX,60.0176676245,
stim/posf.jpg,stim/negf.jpg,stim/2.jpg,stim/1.jpg,stim/latef.jpg,AB,2,4,,,,,0,22,22,11,,,,,,,,,,,,,,2,0,1.11631932091,,,,,,2016_Aug_09_1337,P3,PLC_L_D1S1,NHGX,60.0176676245,
stim/posf.jpg,stim/negf.jpg,stim/5.jpg,stim/3.jpg,stim/latef.jpg,CD,2,4,,,,,0,23,23,30,,,,,,,,,,,,,,4,1,1.416186961,,,,,,2016_Aug_09_1337,P3,PLC_L_D1S1,NHGX,60.0176676245,
stim/posf.jpg,stim/negf.jpg,stim/1.jpg,stim/2.jpg,stim/latef.jpg,AB,1,2,,,,,0,24,24,5,,,,,,,,,,,,,,4,0,1.14953331479,,,,,,2016_Aug_09_1337,P3,PLC_L_D1S1,NHGX,60.0176676245,
stim/posf.jpg,stim/negf.jpg,stim/3.jpg,stim/5.jpg,stim/latef.jpg,CD,1,2,,,,,0,25,25,24,,,,,,,,,,,,,,2,1,0.966395227103,,,,,,2016_Aug_09_1337,P3,PLC_L_D1S1,NHGX,60.0176676245,
stim/posf.jpg,stim/negf.jpg,stim/4.jpg,stim/6.jpg,stim/latef.jpg,EF,2,4,,,,,0,26,26,54,,,,,,,,,,,,,,4,1,1.4328479034,,,,,,2016_Aug_09_1337,P3,PLC_L_D1S1,NHGX,60.0176676245,
stim/posf.jpg,stim/negf.jpg,stim/4.jpg,stim/6.jpg,stim/latef.jpg,EF,2,4,,,,,0,27,27,53,,,,,,,,,,,,,,4,1,0.816389203089,,,,,,2016_Aug_09_1337,P3,PLC_L_D1S1,NHGX,60.0176676245,
stim/negf.jpg,stim/posf.jpg,stim/6.jpg,stim/4.jpg,stim/latef.jpg,EF,1,2,,,,,0,28,28,49,,,,,,,,,,,,,,2,1,1.03306330328,,,,,,2016_Aug_09_1337,P3,PLC_L_D1S1,NHGX,60.0176676245,
stim/negf.jpg,stim/posf.jpg,stim/6.jpg,stim/4.jpg,stim/latef.jpg,EF,1,2,,,,,0,29,29,47,,,,,,,,,,,,,,2,1,1.03302318028,,,,,,2016_Aug_09_1337,P3,PLC_L_D1S1,NHGX,60.0176676245,
stim/negf.jpg,stim/posf.jpg,stim/3.jpg,stim/5.jpg,stim/latef.jpg,CD,1,2,,,,,0,30,30,29,,,,,,,,,,,,,,4,0,1.28291394501,,,,,,2016_Aug_09_1337,P3,PLC_L_D1S1,NHGX,60.0176676245,
stim/posf.jpg,stim/negf.jpg,stim/2.jpg,stim/1.jpg,stim/latef.jpg,AB,2,4,,,,,0,31,31,15,,,,,,,,,,,,,,4,1,1.13292202615,,,,,,2016_Aug_09_1337,P3,PLC_L_D1S1,NHGX,60.0176676245,
stim/negf.jpg,stim/posf.jpg,stim/4.jpg,stim/6.jpg,stim/latef.jpg,EF,2,4,,,,,0,32,32,56,,,,,,,,,,,,,,4,1,1.23289062789,,,,,,2016_Aug_09_1337,P3,PLC_L_D1S1,NHGX,60.0176676245,
stim/posf.jpg,stim/negf.jpg,stim/2.jpg,stim/1.jpg,stim/latef.jpg,AB,2,4,,,,,0,33,33,14,,,,,,,,,,,,,,4,1,1.416198194,,,,,,2016_Aug_09_1337,P3,PLC_L_D1S1,NHGX,60.0176676245,
stim/posf.jpg,stim/negf.jpg,stim/6.jpg,stim/4.jpg,stim/latef.jpg,EF,1,2,,,,,0,34,34,40,,,,,,,,,,,,,,4,0,1.4661871625,,,,,,2016_Aug_09_1337,P3,PLC_L_D1S1,NHGX,60.0176676245,
stim/posf.jpg,stim/negf.jpg,stim/5.jpg,stim/3.jpg,stim/latef.jpg,CD,2,4,,,,,0,35,35,32,,,,,,,,,,,,,,2,0,1.43285717852,,,,,,2016_Aug_09_1337,P3,PLC_L_D1S1,NHGX,60.0176676245,
stim/negf.jpg,stim/posf.jpg,stim/6.jpg,stim/4.jpg,stim/latef.jpg,EF,1,2,,,,,0,36,36,46,,,,,,,,,,,,,,2,1,1.2162043714,,,,,,2016_Aug_09_1337,P3,PLC_L_D1S1,NHGX,60.0176676245,
stim/posf.jpg,stim/negf.jpg,stim/4.jpg,stim/6.jpg,stim/latef.jpg,EF,2,4,,,,,0,37,37,51,,,,,,,,,,,,,,4,1,1.06629303539,,,,,,2016_Aug_09_1337,P3,PLC_L_D1S1,NHGX,60.0176676245,
stim/posf.jpg,stim/negf.jpg,stim/2.jpg,stim/1.jpg,stim/latef.jpg,AB,2,4,,,,,0,38,38,17,,,,,,,,,,,,,,4,1,0.949694405305,,,,,,2016_Aug_09_1337,P3,PLC_L_D1S1,NHGX,60.0176676245,
stim/posf.jpg,stim/negf.jpg,stim/4.jpg,stim/6.jpg,stim/latef.jpg,EF,2,4,,,,,0,39,39,50,,,,,,,,,,,,,,2,0,1.09964868535,,,,,,2016_Aug_09_1337,P3,PLC_L_D1S1,NHGX,60.0176676245,
stim/posf.jpg,stim/negf.jpg,stim/1.jpg,stim/2.jpg,stim/latef.jpg,AB,1,2,,,,,0,40,40,3,,,,,,,,,,,,,,4,0,1.06633347418,,,,,,2016_Aug_09_1337,P3,PLC_L_D1S1,NHGX,60.0176676245,
stim/posf.jpg,stim/negf.jpg,stim/1.jpg,stim/2.jpg,stim/latef.jpg,AB,1,2,,,,,0,41,41,7,,,,,,,,,,,,,,4,0,1.14963708243,,,,,,2016_Aug_09_1337,P3,PLC_L_D1S1,NHGX,60.0176676245,
stim/posf.jpg,stim/negf.jpg,stim/1.jpg,stim/2.jpg,stim/latef.jpg,AB,1,2,,,,,0,42,42,0,,,,,,,,,,,,,,2,1,1.09963572304,,,,,,2016_Aug_09_1337,P3,PLC_L_D1S1,NHGX,60.0176676245,
stim/posf.jpg,stim/negf.jpg,stim/1.jpg,stim/2.jpg,stim/latef.jpg,AB,1,2,,,,,0,43,43,4,,,,,,,,,,,,,,2,1,0.983008088661,,,,,,2016_Aug_09_1337,P3,PLC_L_D1S1,NHGX,60.0176676245,
stim/negf.jpg,stim/posf.jpg,stim/3.jpg,stim/5.jpg,stim/latef.jpg,CD,1,2,,,,,0,44,44,27,,,,,,,,,,,,,,4,0,1.46618777302,,,,,,2016_Aug_09_1337,P3,PLC_L_D1S1,NHGX,60.0176676245,
stim/negf.jpg,stim/posf.jpg,stim/1.jpg,stim/2.jpg,stim/latef.jpg,AB,1,2,,,,,0,45,45,9,,,,,,,,,,,,,,2,1,1.44949201585,,,,,,2016_Aug_09_1337,P3,PLC_L_D1S1,NHGX,60.0176676245,
stim/posf.jpg,stim/negf.jpg,stim/5.jpg,stim/3.jpg,stim/latef.jpg,CD,2,4,,,,,0,46,46,33,,,,,,,,,,,,,,2,0,1.58279840903,,,,,,2016_Aug_09_1337,P3,PLC_L_D1S1,NHGX,60.0176676245,
stim/posf.jpg,stim/negf.jpg,stim/3.jpg,stim/5.jpg,stim/latef.jpg,CD,1,2,,,,,0,47,47,26,,,,,,,,,,,,,,4,0,1.36620651273,,,,,,2016_Aug_09_1337,P3,PLC_L_D1S1,NHGX,60.0176676245,
stim/posf.jpg,stim/negf.jpg,stim/6.jpg,stim/4.jpg,stim/latef.jpg,EF,1,2,,,,,0,48,48,45,,,,,,,,,,,,,,2,1,1.23293106668,,,,,,2016_Aug_09_1337,P3,PLC_L_D1S1,NHGX,60.0176676245,
stim/negf.jpg,stim/posf.jpg,stim/5.jpg,stim/3.jpg,stim/latef.jpg,CD,2,4,,,,,0,49,49,38,,,,,,,,,,,,,,None,0,,,,,,,2016_Aug_09_1337,P3,PLC_L_D1S1,NHGX,60.0176676245,
stim/posf.jpg,stim/negf.jpg,stim/6.jpg,stim/4.jpg,stim/latef.jpg,EF,1,2,,,,,0,50,50,41,,,,,,,,,,,,,,2,1,1.06632859903,,,,,,2016_Aug_09_1337,P3,PLC_L_D1S1,NHGX,60.0176676245,
stim/negf.jpg,stim/posf.jpg,stim/4.jpg,stim/6.jpg,stim/latef.jpg,EF,2,4,,,,,0,51,51,57,,,,,,,,,,,,,,4,1,0.983006617995,,,,,,2016_Aug_09_1337,P3,PLC_L_D1S1,NHGX,60.0176676245,
stim/posf.jpg,stim/negf.jpg,stim/5.jpg,stim/3.jpg,stim/latef.jpg,CD,2,4,,,,,0,52,52,31,,,,,,,,,,,,,,4,1,1.49945570635,,,,,,2016_Aug_09_1337,P3,PLC_L_D1S1,NHGX,60.0176676245,
stim/posf.jpg,stim/negf.jpg,stim/4.jpg,stim/6.jpg,stim/latef.jpg,EF,2,4,,,,,0,53,53,55,,,,,,,,,,,,,,4,1,1.41622341486,,,,,,2016_Aug_09_1337,P3,PLC_L_D1S1,NHGX,60.0176676245,
stim/posf.jpg,stim/negf.jpg,stim/3.jpg,stim/5.jpg,stim/latef.jpg,CD,1,2,,,,,0,54,54,25,,,,,,,,,,,,,,2,1,1.13295160487,,,,,,2016_Aug_09_1337,P3,PLC_L_D1S1,NHGX,60.0176676245,
stim/posf.jpg,stim/negf.jpg,stim/1.jpg,stim/2.jpg,stim/latef.jpg,AB,1,2,,,,,0,55,55,1,,,,,,,,,,,,,,2,1,1.43285763866,,,,,,2016_Aug_09_1337,P3,PLC_L_D1S1,NHGX,60.0176676245,
stim/posf.jpg,stim/negf.jpg,stim/1.jpg,stim/2.jpg,stim/latef.jpg,AB,1,2,,,,,0,56,56,6,,,,,,,,,,,,,,2,1,1.09965178006,,,,,,2016_Aug_09_1337,P3,PLC_L_D1S1,NHGX,60.0176676245,
stim/negf.jpg,stim/posf.jpg,stim/5.jpg,stim/3.jpg,stim/latef.jpg,CD,2,4,,,,,0,57,57,39,,,,,,,,,,,,,,4,1,1.36621240141,,,,,,2016_Aug_09_1337,P3,PLC_L_D1S1,NHGX,60.0176676245,
stim/posf.jpg,stim/negf.jpg,stim/2.jpg,stim/1.jpg,stim/latef.jpg,AB,2,4,,,,,0,58,58,10,,,,,,,,,,,,,,4,1,1.18294637183,,,,,,2016_Aug_09_1337,P3,PLC_L_D1S1,NHGX,60.0176676245,
stim/negf.jpg,stim/posf.jpg,stim/4.jpg,stim/6.jpg,stim/latef.jpg,EF,2,4,,,,,0,59,59,59,,,,,,,,,,,,,,2,0,1.51611640815,,,,,,2016_Aug_09_1337,P3,PLC_L_D1S1,NHGX,60.0176676245,
,,,,,,,,,,,,,,,,,,,,,,,,,,,,,,,,0.9984375,0.806640625,1,0,0,2016_Aug_09_1337,P3,PLC_L_D1S1,NHGX,60.0176676245,
stim/posf.jpg,stim/negf.jpg,stim/3.jpg,stim/5.jpg,stim/latef.jpg,CD,1,2,,,,,,,,,0,0,0,24,,,,,,,,,,4,0,0.999722982534,,,,,,2016_Aug_09_1337,P3,PLC_L_D1S1,NHGX,60.0176676245,
stim/posf.jpg,stim/negf.jpg,stim/5.jpg,stim/3.jpg,stim/latef.jpg,CD,2,4,,,,,,,,,0,1,1,33,,,,,,,,,,2,0,1.11623637717,,,,,,2016_Aug_09_1337,P3,PLC_L_D1S1,NHGX,60.0176676245,
stim/negf.jpg,stim/posf.jpg,stim/3.jpg,stim/5.jpg,stim/latef.jpg,CD,1,2,,,,,,,,,0,2,2,29,,,,,,,,,,2,1,1.33289669702,,,,,,2016_Aug_09_1337,P3,PLC_L_D1S1,NHGX,60.0176676245,
stim/negf.jpg,stim/posf.jpg,stim/3.jpg,stim/5.jpg,stim/latef.jpg,CD,1,2,,,,,,,,,0,3,3,27,,,,,,,,,,4,0,1.14961702844,,,,,,2016_Aug_09_1337,P3,PLC_L_D1S1,NHGX,60.0176676245,
stim/negf.jpg,stim/posf.jpg,stim/5.jpg,stim/3.jpg,stim/latef.jpg,CD,2,4,,,,,,,,,0,4,4,38,,,,,,,,,,2,0,0.833085796347,,,,,,2016_Aug_09_1337,P3,PLC_L_D1S1,NHGX,60.0176676245,
stim/posf.jpg,stim/negf.jpg,stim/6.jpg,stim/4.jpg,stim/latef.jpg,EF,1,2,,,,,,,,,0,5,5,44,,,,,,,,,,4,0,1.0496568507,,,,,,2016_Aug_09_1337,P3,PLC_L_D1S1,NHGX,60.0176676245,
stim/posf.jpg,stim/negf.jpg,stim/2.jpg,stim/1.jpg,stim/latef.jpg,AB,2,4,,,,,,,,,0,6,6,16,,,,,,,,,,4,1,1.21630827738,,,,,,2016_Aug_09_1337,P3,PLC_L_D1S1,NHGX,60.0176676245,
stim/posf.jpg,stim/negf.jpg,stim/1.jpg,stim/2.jpg,stim/latef.jpg,AB,1,2,,,,,,,,,0,7,7,6,,,,,,,,,,2,1,1.31621478034,,,,,,2016_Aug_09_1337,P3,PLC_L_D1S1,NHGX,60.0176676245,
stim/negf.jpg,stim/posf.jpg,stim/4.jpg,stim/6.jpg,stim/latef.jpg,EF,2,4,,,,,,,,,0,8,8,57,,,,,,,,,,2,0,1.58275639431,,,,,,2016_Aug_09_1337,P3,PLC_L_D1S1,NHGX,60.0176676245,
stim/negf.jpg,stim/posf.jpg,stim/6.jpg,stim/4.jpg,stim/latef.jpg,EF,1,2,,,,,,,,,0,9,9,47,,,,,,,,,,4,0,1.01633570274,,,,,,2016_Aug_09_1337,P3,PLC_L_D1S1,NHGX,60.0176676245,
stim/posf.jpg,stim/negf.jpg,stim/5.jpg,stim/3.jpg,stim/latef.jpg,CD,2,4,,,,,,,,,0,10,10,34,,,,,,,,,,2,0,1.28291350892,,,,,,2016_Aug_09_1337,P3,PLC_L_D1S1,NHGX,60.0176676245,
stim/posf.jpg,stim/negf.jpg,stim/1.jpg,stim/2.jpg,stim/latef.jpg,AB,1,2,,,,,,,,,0,11,11,3,,,,,,,,,,4,0,1.43285452591,,,,,,2016_Aug_09_1337,P3,PLC_L_D1S1,NHGX,60.0176676245,
stim/posf.jpg,stim/negf.jpg,stim/1.jpg,stim/2.jpg,stim/latef.jpg,AB,1,2,,,,,,,,,0,12,12,2,,,,,,,,,,2,1,0.733087868512,,,,,,2016_Aug_09_1337,P3,PLC_L_D1S1,NHGX,60.0176676245,
stim/negf.jpg,stim/posf.jpg,stim/1.jpg,stim/2.jpg,stim/latef.jpg,AB,1,2,,,,,,,,,0,13,13,8,,,,,,,,,,2,1,0.849698390238,,,,,,2016_Aug_09_1337,P3,PLC_L_D1S1,NHGX,60.0176676245,
stim/negf.jpg,stim/posf.jpg,stim/5.jpg,stim/3.jpg,stim/latef.jpg,CD,2,4,,,,,,,,,0,14,14,37,,,,,,,,,,2,0,1.34956652055,,,,,,2016_Aug_09_1337,P3,PLC_L_D1S1,NHGX,60.0176676245,
stim/posf.jpg,stim/negf.jpg,stim/4.jpg,stim/6.jpg,stim/latef.jpg,EF,2,4,,,,,,,,,0,15,15,50,,,,,,,,,,4,1,1.13296807092,,,,,,2016_Aug_09_1337,P3,PLC_L_D1S1,NHGX,60.0176676245,
stim/posf.jpg,stim/negf.jpg,stim/2.jpg,stim/1.jpg,stim/latef.jpg,AB,2,4,,,,,,,,,0,16,16,13,,,,,,,,,,4,1,1.01631264427,,,,,,2016_Aug_09_1337,P3,PLC_L_D1S1,NHGX,60.0176676245,
stim/negf.jpg,stim/posf.jpg,stim/4.jpg,stim/6.jpg,stim/latef.jpg,EF,2,4,,,,,,,,,0,17,17,56,,,,,,,,,,4,1,1.0163349238,,,,,,2016_Aug_09_1337,P3,PLC_L_D1S1,NHGX,60.0176676245,
stim/posf.jpg,stim/negf.jpg,stim/6.jpg,stim/4.jpg,stim/latef.jpg,EF,1,2,,,,,,,,,0,18,18,41,,,,,,,,,,4,0,1.14961830061,,,,,,2016_Aug_09_1337,P3,PLC_L_D1S1,NHGX,60.0176676245,
stim/posf.jpg,stim/negf.jpg,stim/1.jpg,stim/2.jpg,stim/latef.jpg,AB,1,2,,,,,,,,,0,19,19,4,,,,,,,,,,4,0,1.38288177683,,,,,,2016_Aug_09_1337,P3,PLC_L_D1S1,NHGX,60.0176676245,
stim/posf.jpg,stim/negf.jpg,stim/4.jpg,stim/6.jpg,stim/latef.jpg,EF,2,4,,,,,,,,,0,20,20,51,,,,,,,,,,4,1,1.14963076368,,,,,,2016_Aug_09_1337,P3,PLC_L_D1S1,NHGX,60.0176676245,
stim/posf.jpg,stim/negf.jpg,stim/3.jpg,stim/5.jpg,stim/latef.jpg,CD,1,2,,,,,,,,,0,21,21,23,,,,,,,,,,4,0,1.34955735671,,,,,,2016_Aug_09_1337,P3,PLC_L_D1S1,NHGX,60.0176676245,
stim/negf.jpg,stim/posf.jpg,stim/2.jpg,stim/1.jpg,stim/latef.jpg,AB,2,4,,,,,,,,,0,22,22,18,,,,,,,,,,4,1,1.06631887881,,,,,,2016_Aug_09_1337,P3,PLC_L_D1S1,NHGX,60.0176676245,
stim/posf.jpg,stim/negf.jpg,stim/3.jpg,stim/5.jpg,stim/latef.jpg,CD,1,2,,,,,,,,,0,23,23,20,,,,,,,,,,4,0,1.08301194126,,,,,,2016_Aug_09_1337,P3,PLC_L_D1S1,NHGX,60.0176676245,
stim/negf.jpg,stim/posf.jpg,stim/6.jpg,stim/4.jpg,stim/latef.jpg,EF,1,2,,,,,,,,,0,24,24,48,,,,,,,,,,2,1,1.11628189863,,,,,,2016_Aug_09_1337,P3,PLC_L_D1S1,NHGX,60.0176676245,
stim/posf.jpg,stim/negf.jpg,stim/4.jpg,stim/6.jpg,stim/latef.jpg,EF,2,4,,,,,,,,,0,25,25,53,,,,,,,,,,4,1,0.899696336118,,,,,,2016_Aug_09_1337,P3,PLC_L_D1S1,NHGX,60.0176676245,
stim/negf.jpg,stim/posf.jpg,stim/5.jpg,stim/3.jpg,stim/latef.jpg,CD,2,4,,,,,,,,,0,26,26,39,,,,,,,,,,4,1,1.24964372899,,,,,,2016_Aug_09_1337,P3,PLC_L_D1S1,NHGX,60.0176676245,
stim/posf.jpg,stim/negf.jpg,stim/3.jpg,stim/5.jpg,stim/latef.jpg,CD,1,2,,,,,,,,,0,27,27,22,,,,,,,,,,4,0,1.18293572229,,,,,,2016_Aug_09_1337,P3,PLC_L_D1S1,NHGX,60.0176676245,
stim/posf.jpg,stim/negf.jpg,stim/5.jpg,stim/3.jpg,stim/latef.jpg,CD,2,4,,,,,,,,,0,28,28,36,,,,,,,,,,2,0,1.36620869618,,,,,,2016_Aug_09_1337,P3,PLC_L_D1S1,NHGX,60.0176676245,
stim/negf.jpg,stim/posf.jpg,stim/1.jpg,stim/2.jpg,stim/latef.jpg,AB,1,2,,,,,,,,,0,29,29,9,,,,,,,,,,2,1,1.13290108195,,,,,,2016_Aug_09_1337,P3,PLC_L_D1S1,NHGX,60.0176676245,
stim/posf.jpg,stim/negf.jpg,stim/4.jpg,stim/6.jpg,stim/latef.jpg,EF,2,4,,,,,,,,,0,30,30,55,,,,,,,,,,4,1,1.11628980835,,,,,,2016_Aug_09_1337,P3,PLC_L_D1S1,NHGX,60.0176676245,
stim/posf.jpg,stim/negf.jpg,stim/2.jpg,stim/1.jpg,stim/latef.jpg,AB,2,4,,,,,,,,,0,31,31,12,,,,,,,,,,4,1,1.19960221051,,,,,,2016_Aug_09_1337,P3,PLC_L_D1S1,NHGX,60.0176676245,
stim/posf.jpg,stim/negf.jpg,stim/6.jpg,stim/4.jpg,stim/latef.jpg,EF,1,2,,,,,,,,,0,32,32,42,,,,,,,,,,4,0,1.29959256547,,,,,,2016_Aug_09_1337,P3,PLC_L_D1S1,NHGX,60.0176676245,
stim/posf.jpg,stim/negf.jpg,stim/4.jpg,stim/6.jpg,stim/latef.jpg,EF,2,4,,,,,,,,,0,33,33,54,,,,,,,,,,2,0,0.783084722671,,,,,,2016_Aug_09_1337,P3,PLC_L_D1S1,NHGX,60.0176676245,
stim/posf.jpg,stim/negf.jpg,stim/1.jpg,stim/2.jpg,stim/latef.jpg,AB,1,2,,,,,,,,,0,34,34,0,,,,,,,,,,2,1,1.18288190014,,,,,,2016_Aug_09_1337,P3,PLC_L_D1S1,NHGX,60.0176676245,
stim/posf.jpg,stim/negf.jpg,stim/2.jpg,stim/1.jpg,stim/latef.jpg,AB,2,4,,,,,,,,,0,35,35,17,,,,,,,,,,4,1,1.36619058503,,,,,,2016_Aug_09_1337,P3,PLC_L_D1S1,NHGX,60.0176676245,
stim/negf.jpg,stim/posf.jpg,stim/6.jpg,stim/4.jpg,stim/latef.jpg,EF,1,2,,,,,,,,,0,36,36,49,,,,,,,,,,4,0,1.04966926564,,,,,,2016_Aug_09_1337,P3,PLC_L_D1S1,NHGX,60.0176676245,
stim/posf.jpg,stim/negf.jpg,stim/6.jpg,stim/4.jpg,stim/latef.jpg,EF,1,2,,,,,,,,,0,37,37,43,,,,,,,,,,4,0,0.783042485395,,,,,,2016_Aug_09_1337,P3,PLC_L_D1S1,NHGX,60.0176676245,
stim/posf.jpg,stim/negf.jpg,stim/2.jpg,stim/1.jpg,stim/latef.jpg,AB,2,4,,,,,,,,,0,38,38,11,,,,,,,,,,4,1,0.8663806618,,,,,,2016_Aug_09_1337,P3,PLC_L_D1S1,NHGX,60.0176676245,
stim/posf.jpg,stim/negf.jpg,stim/6.jpg,stim/4.jpg,stim/latef.jpg,EF,1,2,,,,,,,,,0,39,39,40,,,,,,,,,,2,1,1.13298021519,,,,,,2016_Aug_09_1337,P3,PLC_L_D1S1,NHGX,60.0176676245,
stim/negf.jpg,stim/posf.jpg,stim/3.jpg,stim/5.jpg,stim/latef.jpg,CD,1,2,,,,,,,,,0,40,40,28,,,,,,,,,,4,0,1.34951316456,,,,,,2016_Aug_09_1337,P3,PLC_L_D1S1,NHGX,60.0176676245,
stim/posf.jpg,stim/negf.jpg,stim/1.jpg,stim/2.jpg,stim/latef.jpg,AB,1,2,,,,,,,,,0,41,41,7,,,,,,,,,,2,1,1.11629533011,,,,,,2016_Aug_09_1337,P3,PLC_L_D1S1,NHGX,60.0176676245,
stim/posf.jpg,stim/negf.jpg,stim/4.jpg,stim/6.jpg,stim/latef.jpg,EF,2,4,,,,,,,,,0,42,42,52,,,,,,,,,,2,0,1.56617680469,,,,,,2016_Aug_09_1337,P3,PLC_L_D1S1,NHGX,60.0176676245,
stim/posf.jpg,stim/negf.jpg,stim/5.jpg,stim/3.jpg,stim/latef.jpg,CD,2,4,,,,,,,,,0,43,43,35,,,,,,,,,,2,0,1.49948459034,,,,,,2016_Aug_09_1337,P3,PLC_L_D1S1,NHGX,60.0176676245,
stim/negf.jpg,stim/posf.jpg,stim/2.jpg,stim/1.jpg,stim/latef.jpg,AB,2,4,,,,,,,,,0,44,44,19,,,,,,,,,,4,1,0.649771150593,,,,,,2016_Aug_09_1337,P3,PLC_L_D1S1,NHGX,60.0176676245,
stim/posf.jpg,stim/negf.jpg,stim/5.jpg,stim/3.jpg,stim/latef.jpg,CD,2,4,,,,,,,,,0,45,45,32,,,,,,,,,,4,1,1.1329521763,,,,,,2016_Aug_09_1337,P3,PLC_L_D1S1,NHGX,60.0176676245,
stim/posf.jpg,stim/negf.jpg,stim/1.jpg,stim/2.jpg,stim/latef.jpg,AB,1,2,,,,,,,,,0,46,46,5,,,,,,,,,,2,1,1.04966628522,,,,,,2016_Aug_09_1337,P3,PLC_L_D1S1,NHGX,60.0176676245,
stim/posf.jpg,stim/negf.jpg,stim/3.jpg,stim/5.jpg,stim/latef.jpg,CD,1,2,,,,,,,,,0,47,47,26,,,,,,,,,,4,0,1.3662685273,,,,,,2016_Aug_09_1337,P3,PLC_L_D1S1,NHGX,60.0176676245,
stim/negf.jpg,stim/posf.jpg,stim/4.jpg,stim/6.jpg,stim/latef.jpg,EF,2,4,,,,,,,,,0,48,48,59,,,,,,,,,,2,0,1.44952179006,,,,,,2016_Aug_09_1337,P3,PLC_L_D1S1,NHGX,60.0176676245,
stim/posf.jpg,stim/negf.jpg,stim/5.jpg,stim/3.jpg,stim/latef.jpg,CD,2,4,,,,,,,,,0,49,49,31,,,,,,,,,,2,0,1.29957236111,,,,,,2016_Aug_09_1337,P3,PLC_L_D1S1,NHGX,60.0176676245,
stim/negf.jpg,stim/posf.jpg,stim/4.jpg,stim/6.jpg,stim/latef.jpg,EF,2,4,,,,,,,,,0,50,50,58,,,,,,,,,,4,1,1.38287697085,,,,,,2016_Aug_09_1337,P3,PLC_L_D1S1,NHGX,60.0176676245,
stim/posf.jpg,stim/negf.jpg,stim/2.jpg,stim/1.jpg,stim/latef.jpg,AB,2,4,,,,,,,,,0,51,51,10,,,,,,,,,,4,1,0.98297355659,,,,,,2016_Aug_09_1337,P3,PLC_L_D1S1,NHGX,60.0176676245,
stim/posf.jpg,stim/negf.jpg,stim/5.jpg,stim/3.jpg,stim/latef.jpg,CD,2,4,,,,,,,,,0,52,52,30,,,,,,,,,,2,0,1.21627705957,,,,,,2016_Aug_09_1337,P3,PLC_L_D1S1,NHGX,60.0176676245,
stim/posf.jpg,stim/negf.jpg,stim/1.jpg,stim/2.jpg,stim/latef.jpg,AB,1,2,,,,,,,,,0,53,53,1,,,,,,,,,,2,1,0.883040235788,,,,,,2016_Aug_09_1337,P3,PLC_L_D1S1,NHGX,60.0176676245,
stim/posf.jpg,stim/negf.jpg,stim/6.jpg,stim/4.jpg,stim/latef.jpg,EF,1,2,,,,,,,,,0,54,54,45,,,,,,,,,,4,0,1.38287422801,,,,,,2016_Aug_09_1337,P3,PLC_L_D1S1,NHGX,60.0176676245,
stim/negf.jpg,stim/posf.jpg,stim/6.jpg,stim/4.jpg,stim/latef.jpg,EF,1,2,,,,,,,,,0,55,55,46,,,,,,,,,,None,0,,,,,,,2016_Aug_09_1337,P3,PLC_L_D1S1,NHGX,60.0176676245,
stim/posf.jpg,stim/negf.jpg,stim/3.jpg,stim/5.jpg,stim/latef.jpg,CD,1,2,,,,,,,,,0,56,56,25,,,,,,,,,,2,1,1.31623307795,,,,,,2016_Aug_09_1337,P3,PLC_L_D1S1,NHGX,60.0176676245,
stim/posf.jpg,stim/negf.jpg,stim/3.jpg,stim/5.jpg,stim/latef.jpg,CD,1,2,,,,,,,,,0,57,57,21,,,,,,,,,,2,1,0.616419100608,,,,,,2016_Aug_09_1337,P3,PLC_L_D1S1,NHGX,60.0176676245,
stim/posf.jpg,stim/negf.jpg,stim/2.jpg,stim/1.jpg,stim/latef.jpg,AB,2,4,,,,,,,,,0,58,58,14,,,,,,,,,,4,1,0.766358120616,,,,,,2016_Aug_09_1337,P3,PLC_L_D1S1,NHGX,60.0176676245,
stim/posf.jpg,stim/negf.jpg,stim/2.jpg,stim/1.jpg,stim/latef.jpg,AB,2,4,,,,,,,,,0,59,59,15,,,,,,,,,,4,1,0.799731247134,,,,,,2016_Aug_09_1337,P3,PLC_L_D1S1,NHGX,60.0176676245,
,,,,,,,,,,,,,,,,,,,,,,,,,,,,,,,,0.9984375,0.806640625,1,0,0,2016_Aug_09_1337,P3,PLC_L_D1S1,NHGX,60.0176676245,
stim/posf.jpg,stim/negf.jpg,stim/2.jpg,stim/1.jpg,stim/latef.jpg,AB,2,4,,,,,,,,,,,,,0,0,0,16,,,,,,4,1,0.966346319201,,,,,,2016_Aug_09_1337,P3,PLC_L_D1S1,NHGX,60.0176676245,
stim/posf.jpg,stim/negf.jpg,stim/3.jpg,stim/5.jpg,stim/latef.jpg,CD,1,2,,,,,,,,,,,,,0,1,1,22,,,,,,2,1,0.749756071007,,,,,,2016_Aug_09_1337,P3,PLC_L_D1S1,NHGX,60.0176676245,
stim/posf.jpg,stim/negf.jpg,stim/1.jpg,stim/2.jpg,stim/latef.jpg,AB,1,2,,,,,,,,,,,,,0,2,2,5,,,,,,2,1,0.83305234096,,,,,,2016_Aug_09_1337,P3,PLC_L_D1S1,NHGX,60.0176676245,
stim/posf.jpg,stim/negf.jpg,stim/6.jpg,stim/4.jpg,stim/latef.jpg,EF,1,2,,,,,,,,,,,,,0,3,3,40,,,,,,2,1,0.933013060052,,,,,,2016_Aug_09_1337,P3,PLC_L_D1S1,NHGX,60.0176676245,
stim/negf.jpg,stim/posf.jpg,stim/2.jpg,stim/1.jpg,stim/latef.jpg,AB,2,4,,,,,,,,,,,,,0,4,4,18,,,,,,4,1,0.783042049308,,,,,,2016_Aug_09_1337,P3,PLC_L_D1S1,NHGX,60.0176676245,
stim/posf.jpg,stim/negf.jpg,stim/3.jpg,stim/5.jpg,stim/latef.jpg,CD,1,2,,,,,,,,,,,,,0,5,5,20,,,,,,2,1,1.21625374546,,,,,,2016_Aug_09_1337,P3,PLC_L_D1S1,NHGX,60.0176676245,
stim/posf.jpg,stim/negf.jpg,stim/6.jpg,stim/4.jpg,stim/latef.jpg,EF,1,2,,,,,,,,,,,,,0,6,6,45,,,,,,4,0,1.09962810505,,,,,,2016_Aug_09_1337,P3,PLC_L_D1S1,NHGX,60.0176676245,
stim/negf.jpg,stim/posf.jpg,stim/6.jpg,stim/4.jpg,stim/latef.jpg,EF,1,2,,,,,,,,,,,,,0,7,7,47,,,,,,2,1,1.24959809024,,,,,,2016_Aug_09_1337,P3,PLC_L_D1S1,NHGX,60.0176676245,
stim/negf.jpg,stim/posf.jpg,stim/1.jpg,stim/2.jpg,stim/latef.jpg,AB,1,2,,,,,,,,,,,,,0,8,8,9,,,,,,2,1,0.783099110533,,,,,,2016_Aug_09_1337,P3,PLC_L_D1S1,NHGX,60.0176676245,
stim/posf.jpg,stim/negf.jpg,stim/2.jpg,stim/1.jpg,stim/latef.jpg,AB,2,4,,,,,,,,,,,,,0,9,9,11,,,,,,4,1,0.69981897279,,,,,,2016_Aug_09_1337,P3,PLC_L_D1S1,NHGX,60.0176676245,
stim/posf.jpg,stim/negf.jpg,stim/5.jpg,stim/3.jpg,stim/latef.jpg,CD,2,4,,,,,,,,,,,,,0,10,10,36,,,,,,4,1,0.883085116653,,,,,,2016_Aug_09_1337,P3,PLC_L_D1S1,NHGX,60.0176676245,
stim/posf.jpg,stim/negf.jpg,stim/4.jpg,stim/6.jpg,stim/latef.jpg,EF,2,4,,,,,,,,,,,,,0,11,11,51,,,,,,2,0,1.08296885888,,,,,,2016_Aug_09_1337,P3,PLC_L_D1S1,NHGX,60.0176676245,
stim/negf.jpg,stim/posf.jpg,stim/3.jpg,stim/5.jpg,stim/latef.jpg,CD,1,2,,,,,,,,,,,,,0,12,12,29,,,,,,2,1,1.19961036383,,,,,,2016_Aug_09_1337,P3,PLC_L_D1S1,NHGX,60.0176676245,
stim/posf.jpg,stim/negf.jpg,stim/1.jpg,stim/2.jpg,stim/latef.jpg,AB,1,2,,,,,,,,,,,,,0,13,13,6,,,,,,2,1,0.849719590078,,,,,,2016_Aug_09_1337,P3,PLC_L_D1S1,NHGX,60.0176676245,
stim/negf.jpg,stim/posf.jpg,stim/5.jpg,stim/3.jpg,stim/latef.jpg,CD,2,4,,,,,,,,,,,,,0,14,14,37,,,,,,4,1,1.04969489252,,,,,,2016_Aug_09_1337,P3,PLC_L_D1S1,NHGX,60.0176676245,
stim/posf.jpg,stim/negf.jpg,stim/5.jpg,stim/3.jpg,stim/latef.jpg,CD,2,4,,,,,,,,,,,,,0,15,15,35,,,,,,4,1,0.933013926211,,,,,,2016_Aug_09_1337,P3,PLC_L_D1S1,NHGX,60.0176676245,
stim/posf.jpg,stim/negf.jpg,stim/2.jpg,stim/1.jpg,stim/latef.jpg,AB,2,4,,,,,,,,,,,,,0,16,16,15,,,,,,4,1,1.13301006459,,,,,,2016_Aug_09_1337,P3,PLC_L_D1S1,NHGX,60.0176676245,
stim/negf.jpg,stim/posf.jpg,stim/6.jpg,stim/4.jpg,stim/latef.jpg,EF,1,2,,,,,,,,,,,,,0,17,17,46,,,,,,2,1,1.29962597274,,,,,,2016_Aug_09_1337,P3,PLC_L_D1S1,NHGX,60.0176676245,
stim/posf.jpg,stim/negf.jpg,stim/4.jpg,stim/6.jpg,stim/latef.jpg,EF,2,4,,,,,,,,,,,,,0,18,18,53,,,,,,2,0,1.31623566439,,,,,,2016_Aug_09_1337,P3,PLC_L_D1S1,NHGX,60.0176676245,
stim/negf.jpg,stim/posf.jpg,stim/3.jpg,stim/5.jpg,stim/latef.jpg,CD,1,2,,,,,,,,,,,,,0,19,19,27,,,,,,4,0,0.899715951008,,,,,,2016_Aug_09_1337,P3,PLC_L_D1S1,NHGX,60.0176676245,
stim/negf.jpg,stim/posf.jpg,stim/4.jpg,stim/6.jpg,stim/latef.jpg,EF,2,4,,,,,,,,,,,,,0,20,20,57,,,,,,4,1,0.999686838445,,,,,,2016_Aug_09_1337,P3,PLC_L_D1S1,NHGX,60.0176676245,
stim/negf.jpg,stim/posf.jpg,stim/4.jpg,stim/6.jpg,stim/latef.jpg,EF,2,4,,,,,,,,,,,,,0,21,21,59,,,,,,2,0,0.799738257607,,,,,,2016_Aug_09_1337,P3,PLC_L_D1S1,NHGX,60.0176676245,
stim/negf.jpg,stim/posf.jpg,stim/6.jpg,stim/4.jpg,stim/latef.jpg,EF,1,2,,,,,,,,,,,,,0,22,22,49,,,,,,4,0,1.16629201284,,,,,,2016_Aug_09_1337,P3,PLC_L_D1S1,NHGX,60.0176676245,
stim/posf.jpg,stim/negf.jpg,stim/1.jpg,stim/2.jpg,stim/latef.jpg,AB,1,2,,,,,,,,,,,,,0,23,23,1,,,,,,2,1,0.883049267299,,,,,,2016_Aug_09_1337,P3,PLC_L_D1S1,NHGX,60.0176676245,
stim/posf.jpg,stim/negf.jpg,stim/6.jpg,stim/4.jpg,stim/latef.jpg,EF,1,2,,,,,,,,,,,,,0,24,24,43,,,,,,4,0,0.999676426493,,,,,,2016_Aug_09_1337,P3,PLC_L_D1S1,NHGX,60.0176676245,
stim/posf.jpg,stim/negf.jpg,stim/3.jpg,stim/5.jpg,stim/latef.jpg,CD,1,2,,,,,,,,,,,,,0,25,25,23,,,,,,2,1,1.28289202337,,,,,,2016_Aug_09_1337,P3,PLC_L_D1S1,NHGX,60.0176676245,
stim/posf.jpg,stim/negf.jpg,stim/4.jpg,stim/6.jpg,stim/latef.jpg,EF,2,4,,,,,,,,,,,,,0,26,26,50,,,,,,2,0,1.21627378742,,,,,,2016_Aug_09_1337,P3,PLC_L_D1S1,NHGX,60.0176676245,
stim/posf.jpg,stim/negf.jpg,stim/1.jpg,stim/2.jpg,stim/latef.jpg,AB,1,2,,,,,,,,,,,,,0,27,27,7,,,,,,2,1,0.883047047767,,,,,,2016_Aug_09_1337,P3,PLC_L_D1S1,NHGX,60.0176676245,
stim/negf.jpg,stim/posf.jpg,stim/3.jpg,stim/5.jpg,stim/latef.jpg,CD,1,2,,,,,,,,,,,,,0,28,28,28,,,,,,4,0,1.06632911031,,,,,,2016_Aug_09_1337,P3,PLC_L_D1S1,NHGX,60.0176676245,
stim/negf.jpg,stim/posf.jpg,stim/4.jpg,stim/6.jpg,stim/latef.jpg,EF,2,4,,,,,,,,,,,,,0,29,29,56,,,,,,2,0,1.18294189066,,,,,,2016_Aug_09_1337,P3,PLC_L_D1S1,NHGX,60.0176676245,
stim/posf.jpg,stim/negf.jpg,stim/4.jpg,stim/6.jpg,stim/latef.jpg,EF,2,4,,,,,,,,,,,,,0,30,30,55,,,,,,2,0,0.766420204359,,,,,,2016_Aug_09_1337,P3,PLC_L_D1S1,NHGX,60.0176676245,
stim/posf.jpg,stim/negf.jpg,stim/2.jpg,stim/1.jpg,stim/latef.jpg,AB,2,4,,,,,,,,,,,,,0,31,31,12,,,,,,4,1,0.933021481042,,,,,,2016_Aug_09_1337,P3,PLC_L_D1S1,NHGX,60.0176676245,
stim/posf.jpg,stim/negf.jpg,stim/1.jpg,stim/2.jpg,stim/latef.jpg,AB,1,2,,,,,,,,,,,,,0,32,32,0,,,,,,2,1,0.699745908677,,,,,,2016_Aug_09_1337,P3,PLC_L_D1S1,NHGX,60.0176676245,
stim/posf.jpg,stim/negf.jpg,stim/2.jpg,stim/1.jpg,stim/latef.jpg,AB,2,4,,,,,,,,,,,,,0,33,33,14,,,,,,4,1,1.1996008812,,,,,,2016_Aug_09_1337,P3,PLC_L_D1S1,NHGX,60.0176676245,
stim/posf.jpg,stim/negf.jpg,stim/6.jpg,stim/4.jpg,stim/latef.jpg,EF,1,2,,,,,,,,,,,,,0,34,34,42,,,,,,4,0,1.04966420403,,,,,,2016_Aug_09_1337,P3,PLC_L_D1S1,NHGX,60.0176676245,
stim/posf.jpg,stim/negf.jpg,stim/6.jpg,stim/4.jpg,stim/latef.jpg,EF,1,2,,,,,,,,,,,,,0,35,35,44,,,,,,2,1,0.8164018857,,,,,,2016_Aug_09_1337,P3,PLC_L_D1S1,NHGX,60.0176676245,
stim/negf.jpg,stim/posf.jpg,stim/5.jpg,stim/3.jpg,stim/latef.jpg,CD,2,4,,,,,,,,,,,,,0,36,36,38,,,,,,4,1,1.23292595093,,,,,,2016_Aug_09_1337,P3,PLC_L_D1S1,NHGX,60.0176676245,
stim/posf.jpg,stim/negf.jpg,stim/4.jpg,stim/6.jpg,stim/latef.jpg,EF,2,4,,,,,,,,,,,,,0,37,37,54,,,,,,4,1,1.33289502485,,,,,,2016_Aug_09_1337,P3,PLC_L_D1S1,NHGX,60.0176676245,
stim/negf.jpg,stim/posf.jpg,stim/5.jpg,stim/3.jpg,stim/latef.jpg,CD,2,4,,,,,,,,,,,,,0,38,38,39,,,,,,4,1,1.18293052233,,,,,,2016_Aug_09_1337,P3,PLC_L_D1S1,NHGX,60.0176676245,
stim/posf.jpg,stim/negf.jpg,stim/6.jpg,stim/4.jpg,stim/latef.jpg,EF,1,2,,,,,,,,,,,,,0,39,39,41,,,,,,2,1,1.03294847708,,,,,,2016_Aug_09_1337,P3,PLC_L_D1S1,NHGX,60.0176676245,
stim/posf.jpg,stim/negf.jpg,stim/3.jpg,stim/5.jpg,stim/latef.jpg,CD,1,2,,,,,,,,,,,,,0,40,40,24,,,,,,2,1,0.999683307644,,,,,,2016_Aug_09_1337,P3,PLC_L_D1S1,NHGX,60.0176676245,
stim/posf.jpg,stim/negf.jpg,stim/5.jpg,stim/3.jpg,stim/latef.jpg,CD,2,4,,,,,,,,,,,,,0,41,41,34,,,,,,4,1,1.08296921978,,,,,,2016_Aug_09_1337,P3,PLC_L_D1S1,NHGX,60.0176676245,
stim/posf.jpg,stim/negf.jpg,stim/5.jpg,stim/3.jpg,stim/latef.jpg,CD,2,4,,,,,,,,,,,,,0,42,42,32,,,,,,4,1,0.816416156269,,,,,,2016_Aug_09_1337,P3,PLC_L_D1S1,NHGX,60.0176676245,
stim/posf.jpg,stim/negf.jpg,stim/2.jpg,stim/1.jpg,stim/latef.jpg,AB,2,4,,,,,,,,,,,,,0,43,43,13,,,,,,4,1,0.899709936016,,,,,,2016_Aug_09_1337,P3,PLC_L_D1S1,NHGX,60.0176676245,
stim/posf.jpg,stim/negf.jpg,stim/2.jpg,stim/1.jpg,stim/latef.jpg,AB,2,4,,,,,,,,,,,,,0,44,44,17,,,,,,4,1,0.833016852505,,,,,,2016_Aug_09_1337,P3,PLC_L_D1S1,NHGX,60.0176676245,
stim/posf.jpg,stim/negf.jpg,stim/1.jpg,stim/2.jpg,stim/latef.jpg,AB,1,2,,,,,,,,,,,,,0,45,45,3,,,,,,2,1,0.733089206848,,,,,,2016_Aug_09_1337,P3,PLC_L_D1S1,NHGX,60.0176676245,
stim/posf.jpg,stim/negf.jpg,stim/5.jpg,stim/3.jpg,stim/latef.jpg,CD,2,4,,,,,,,,,,,,,0,46,46,33,,,,,,4,1,1.1828830911,,,,,,2016_Aug_09_1337,P3,PLC_L_D1S1,NHGX,60.0176676245,
stim/negf.jpg,stim/posf.jpg,stim/1.jpg,stim/2.jpg,stim/latef.jpg,AB,1,2,,,,,,,,,,,,,0,47,47,8,,,,,,2,1,0.716418339712,,,,,,2016_Aug_09_1337,P3,PLC_L_D1S1,NHGX,60.0176676245,
stim/posf.jpg,stim/negf.jpg,stim/2.jpg,stim/1.jpg,stim/latef.jpg,AB,2,4,,,,,,,,,,,,,0,48,48,10,,,,,,4,1,0.999646059804,,,,,,2016_Aug_09_1337,P3,PLC_L_D1S1,NHGX,60.0176676245,
stim/posf.jpg,stim/negf.jpg,stim/3.jpg,stim/5.jpg,stim/latef.jpg,CD,1,2,,,,,,,,,,,,,0,49,49,26,,,,,,2,1,0.916357654454,,,,,,2016_Aug_09_1337,P3,PLC_L_D1S1,NHGX,60.0176676245,
stim/negf.jpg,stim/posf.jpg,stim/6.jpg,stim/4.jpg,stim/latef.jpg,EF,1,2,,,,,,,,,,,,,0,50,50,48,,,,,,4,0,1.0663228487,,,,,,2016_Aug_09_1337,P3,PLC_L_D1S1,NHGX,60.0176676245,
stim/posf.jpg,stim/negf.jpg,stim/4.jpg,stim/6.jpg,stim/latef.jpg,EF,2,4,,,,,,,,,,,,,0,51,51,52,,,,,,2,0,0.899721253224,,,,,,2016_Aug_09_1337,P3,PLC_L_D1S1,NHGX,60.0176676245,
stim/negf.jpg,stim/posf.jpg,stim/4.jpg,stim/6.jpg,stim/latef.jpg,EF,2,4,,,,,,,,,,,,,0,52,52,58,,,,,,4,1,1.13294895828,,,,,,2016_Aug_09_1337,P3,PLC_L_D1S1,NHGX,60.0176676245,
stim/posf.jpg,stim/negf.jpg,stim/5.jpg,stim/3.jpg,stim/latef.jpg,CD,2,4,,,,,,,,,,,,,0,53,53,31,,,,,,4,1,0.93298875046,,,,,,2016_Aug_09_1337,P3,PLC_L_D1S1,NHGX,60.0176676245,
stim/posf.jpg,stim/negf.jpg,stim/1.jpg,stim/2.jpg,stim/latef.jpg,AB,1,2,,,,,,,,,,,,,0,54,54,4,,,,,,2,1,0.699769547597,,,,,,2016_Aug_09_1337,P3,PLC_L_D1S1,NHGX,60.0176676245,
stim/posf.jpg,stim/negf.jpg,stim/3.jpg,stim/5.jpg,stim/latef.jpg,CD,1,2,,,,,,,,,,,,,0,55,55,21,,,,,,2,1,0.999681939234,,,,,,2016_Aug_09_1337,P3,PLC_L_D1S1,NHGX,60.0176676245,
stim/posf.jpg,stim/negf.jpg,stim/1.jpg,stim/2.jpg,stim/latef.jpg,AB,1,2,,,,,,,,,,,,,0,56,56,2,,,,,,2,1,0.699777343027,,,,,,2016_Aug_09_1337,P3,PLC_L_D1S1,NHGX,60.0176676245,
stim/posf.jpg,stim/negf.jpg,stim/5.jpg,stim/3.jpg,stim/latef.jpg,CD,2,4,,,,,,,,,,,,,0,57,57,30,,,,,,4,1,0.949694041398,,,,,,2016_Aug_09_1337,P3,PLC_L_D1S1,NHGX,60.0176676245,
stim/negf.jpg,stim/posf.jpg,stim/2.jpg,stim/1.jpg,stim/latef.jpg,AB,2,4,,,,,,,,,,,,,0,58,58,19,,,,,,4,1,0.86638252344,,,,,,2016_Aug_09_1337,P3,PLC_L_D1S1,NHGX,60.0176676245,
stim/posf.jpg,stim/negf.jpg,stim/3.jpg,stim/5.jpg,stim/latef.jpg,CD,1,2,,,,,,,,,,,,,0,59,59,25,,,,,,2,1,1.19962257126,,,,,,2016_Aug_09_1337,P3,PLC_L_D1S1,NHGX,60.0176676245,
