fb_corr,fb_incorr,symbol2,symbol1,fb_late,pair,position,correct,block_01.thisRepN,block_01.thisTrialN,block_01.thisN,block_01.thisIndex,block_02.thisRepN,block_02.thisTrialN,block_02.thisN,block_02.thisIndex,block_03.thisRepN,block_03.thisTrialN,block_03.thisN,block_03.thisIndex,block_04.thisRepN,block_04.thisTrialN,block_04.thisN,block_04.thisIndex,mouse.x,mouse.y,mouse.leftButton,mouse.midButton,mouse.rightButton,buttonBox_2.keys,buttonBox_2.corr,buttonBox_2.rt,mouse_2.x,mouse_2.y,mouse_2.leftButton,mouse_2.midButton,mouse_2.rightButton,date,Participant,expName,Group,frameRate,
,,,,,,,,,,,,,,,,,,,,,,,,0.9984375,0.7109375,1,0,0,,,,,,,,,2016_Aug_22_1359,P6,PLC_L_D1S1,NHGX,60.0171793402,
stim/posf.jpg,stim/negf.jpg,stim/4.jpg,stim/2.jpg,stim/latef.jpg,CD,2,4,0,0,0,32,,,,,,,,,,,,,,,,,,4,1,1.41620655406,,,,,,2016_Aug_22_1359,P6,PLC_L_D1S1,NHGX,60.0171793402,
stim/negf.jpg,stim/posf.jpg,stim/4.jpg,stim/2.jpg,stim/latef.jpg,CD,2,4,0,1,1,38,,,,,,,,,,,,,,,,,,2,0,1.582794576,,,,,,2016_Aug_22_1359,P6,PLC_L_D1S1,NHGX,60.0171793402,
stim/posf.jpg,stim/negf.jpg,stim/3.jpg,stim/1.jpg,stim/latef.jpg,AB,2,4,0,2,2,10,,,,,,,,,,,,,,,,,,None,0,,,,,,,2016_Aug_22_1359,P6,PLC_L_D1S1,NHGX,60.0171793402,
stim/posf.jpg,stim/negf.jpg,stim/6.jpg,stim/5.jpg,stim/latef.jpg,EF,1,2,0,3,3,42,,,,,,,,,,,,,,,,,,4,0,0.933008430732,,,,,,2016_Aug_22_1359,P6,PLC_L_D1S1,NHGX,60.0171793402,
stim/posf.jpg,stim/negf.jpg,stim/2.jpg,stim/4.jpg,stim/latef.jpg,CD,1,2,0,4,4,21,,,,,,,,,,,,,,,,,,4,0,1.2662526964,,,,,,2016_Aug_22_1359,P6,PLC_L_D1S1,NHGX,60.0171793402,
stim/posf.jpg,stim/negf.jpg,stim/4.jpg,stim/2.jpg,stim/latef.jpg,CD,2,4,0,5,5,36,,,,,,,,,,,,,,,,,,2,0,1.53281582839,,,,,,2016_Aug_22_1359,P6,PLC_L_D1S1,NHGX,60.0171793402,
stim/posf.jpg,stim/negf.jpg,stim/1.jpg,stim/3.jpg,stim/latef.jpg,AB,1,2,0,6,6,1,,,,,,,,,,,,,,,,,,None,0,,,,,,,2016_Aug_22_1359,P6,PLC_L_D1S1,NHGX,60.0171793402,
stim/posf.jpg,stim/negf.jpg,stim/3.jpg,stim/1.jpg,stim/latef.jpg,AB,2,4,0,7,7,14,,,,,,,,,,,,,,,,,,4,1,1.2496108871,,,,,,2016_Aug_22_1359,P6,PLC_L_D1S1,NHGX,60.0171793402,
stim/negf.jpg,stim/posf.jpg,stim/6.jpg,stim/5.jpg,stim/latef.jpg,EF,1,2,0,8,8,47,,,,,,,,,,,,,,,,,,4,0,1.23293002861,,,,,,2016_Aug_22_1359,P6,PLC_L_D1S1,NHGX,60.0171793402,
stim/negf.jpg,stim/posf.jpg,stim/5.jpg,stim/6.jpg,stim/latef.jpg,EF,2,4,0,9,9,59,,,,,,,,,,,,,,,,,,4,1,1.09960874125,,,,,,2016_Aug_22_1359,P6,PLC_L_D1S1,NHGX,60.0171793402,
stim/negf.jpg,stim/posf.jpg,stim/2.jpg,stim/4.jpg,stim/latef.jpg,CD,1,2,0,10,10,27,,,,,,,,,,,,,,,,,,2,1,1.04965840536,,,,,,2016_Aug_22_1359,P6,PLC_L_D1S1,NHGX,60.0171793402,
stim/posf.jpg,stim/negf.jpg,stim/4.jpg,stim/2.jpg,stim/latef.jpg,CD,2,4,0,11,11,34,,,,,,,,,,,,,,,,,,4,1,1.16628643436,,,,,,2016_Aug_22_1359,P6,PLC_L_D1S1,NHGX,60.0171793402,
stim/posf.jpg,stim/negf.jpg,stim/2.jpg,stim/4.jpg,stim/latef.jpg,CD,1,2,0,12,12,20,,,,,,,,,,,,,,,,,,2,1,0.999681769003,,,,,,2016_Aug_22_1359,P6,PLC_L_D1S1,NHGX,60.0171793402,
stim/posf.jpg,stim/negf.jpg,stim/4.jpg,stim/2.jpg,stim/latef.jpg,CD,2,4,0,13,13,35,,,,,,,,,,,,,,,,,,4,1,1.04964253787,,,,,,2016_Aug_22_1359,P6,PLC_L_D1S1,NHGX,60.0171793402,
stim/negf.jpg,stim/posf.jpg,stim/1.jpg,stim/3.jpg,stim/latef.jpg,AB,1,2,0,14,14,9,,,,,,,,,,,,,,,,,,2,1,1.23291344534,,,,,,2016_Aug_22_1359,P6,PLC_L_D1S1,NHGX,60.0171793402,
stim/posf.jpg,stim/negf.jpg,stim/5.jpg,stim/6.jpg,stim/latef.jpg,EF,2,4,0,15,15,51,,,,,,,,,,,,,,,,,,2,0,1.2495905986,,,,,,2016_Aug_22_1359,P6,PLC_L_D1S1,NHGX,60.0171793402,
stim/posf.jpg,stim/negf.jpg,stim/4.jpg,stim/2.jpg,stim/latef.jpg,CD,2,4,0,16,16,30,,,,,,,,,,,,,,,,,,4,1,1.13295231106,,,,,,2016_Aug_22_1359,P6,PLC_L_D1S1,NHGX,60.0171793402,
stim/posf.jpg,stim/negf.jpg,stim/1.jpg,stim/3.jpg,stim/latef.jpg,AB,1,2,0,17,17,5,,,,,,,,,,,,,,,,,,4,0,1.5162354981,,,,,,2016_Aug_22_1359,P6,PLC_L_D1S1,NHGX,60.0171793402,
stim/posf.jpg,stim/negf.jpg,stim/2.jpg,stim/4.jpg,stim/latef.jpg,CD,1,2,0,18,18,23,,,,,,,,,,,,,,,,,,2,1,1.36620987583,,,,,,2016_Aug_22_1359,P6,PLC_L_D1S1,NHGX,60.0171793402,
stim/negf.jpg,stim/posf.jpg,stim/6.jpg,stim/5.jpg,stim/latef.jpg,EF,1,2,0,19,19,49,,,,,,,,,,,,,,,,,,2,1,1.3162324064,,,,,,2016_Aug_22_1359,P6,PLC_L_D1S1,NHGX,60.0171793402,
stim/negf.jpg,stim/posf.jpg,stim/6.jpg,stim/5.jpg,stim/latef.jpg,EF,1,2,0,20,20,46,,,,,,,,,,,,,,,,,,4,0,1.58281317429,,,,,,2016_Aug_22_1359,P6,PLC_L_D1S1,NHGX,60.0171793402,
stim/posf.jpg,stim/negf.jpg,stim/6.jpg,stim/5.jpg,stim/latef.jpg,EF,1,2,0,21,21,45,,,,,,,,,,,,,,,,,,4,0,1.09962438619,,,,,,2016_Aug_22_1359,P6,PLC_L_D1S1,NHGX,60.0171793402,
stim/posf.jpg,stim/negf.jpg,stim/5.jpg,stim/6.jpg,stim/latef.jpg,EF,2,4,0,22,22,53,,,,,,,,,,,,,,,,,,2,0,1.54949020274,,,,,,2016_Aug_22_1359,P6,PLC_L_D1S1,NHGX,60.0171793402,
stim/posf.jpg,stim/negf.jpg,stim/4.jpg,stim/2.jpg,stim/latef.jpg,CD,2,4,0,23,23,33,,,,,,,,,,,,,,,,,,4,1,1.28285998278,,,,,,2016_Aug_22_1359,P6,PLC_L_D1S1,NHGX,60.0171793402,
stim/negf.jpg,stim/posf.jpg,stim/2.jpg,stim/4.jpg,stim/latef.jpg,CD,1,2,0,24,24,29,,,,,,,,,,,,,,,,,,2,1,1.23292362567,,,,,,2016_Aug_22_1359,P6,PLC_L_D1S1,NHGX,60.0171793402,
stim/posf.jpg,stim/negf.jpg,stim/3.jpg,stim/1.jpg,stim/latef.jpg,AB,2,4,0,25,25,12,,,,,,,,,,,,,,,,,,4,1,1.41619120687,,,,,,2016_Aug_22_1359,P6,PLC_L_D1S1,NHGX,60.0171793402,
stim/posf.jpg,stim/negf.jpg,stim/3.jpg,stim/1.jpg,stim/latef.jpg,AB,2,4,0,26,26,11,,,,,,,,,,,,,,,,,,4,1,1.46617374691,,,,,,2016_Aug_22_1359,P6,PLC_L_D1S1,NHGX,60.0171793402,
stim/posf.jpg,stim/negf.jpg,stim/3.jpg,stim/1.jpg,stim/latef.jpg,AB,2,4,0,27,27,15,,,,,,,,,,,,,,,,,,4,1,0.982996026361,,,,,,2016_Aug_22_1359,P6,PLC_L_D1S1,NHGX,60.0171793402,
stim/negf.jpg,stim/posf.jpg,stim/4.jpg,stim/2.jpg,stim/latef.jpg,CD,2,4,0,28,28,39,,,,,,,,,,,,,,,,,,4,1,1.11628646895,,,,,,2016_Aug_22_1359,P6,PLC_L_D1S1,NHGX,60.0171793402,
stim/negf.jpg,stim/posf.jpg,stim/3.jpg,stim/1.jpg,stim/latef.jpg,AB,2,4,0,29,29,18,,,,,,,,,,,,,,,,,,2,0,1.04966675413,,,,,,2016_Aug_22_1359,P6,PLC_L_D1S1,NHGX,60.0171793402,
stim/posf.jpg,stim/negf.jpg,stim/6.jpg,stim/5.jpg,stim/latef.jpg,EF,1,2,0,30,30,40,,,,,,,,,,,,,,,,,,2,1,1.21621289685,,,,,,2016_Aug_22_1359,P6,PLC_L_D1S1,NHGX,60.0171793402,
stim/posf.jpg,stim/negf.jpg,stim/5.jpg,stim/6.jpg,stim/latef.jpg,EF,2,4,0,31,31,54,,,,,,,,,,,,,,,,,,4,1,0.982992528656,,,,,,2016_Aug_22_1359,P6,PLC_L_D1S1,NHGX,60.0171793402,
stim/negf.jpg,stim/posf.jpg,stim/6.jpg,stim/5.jpg,stim/latef.jpg,EF,1,2,0,32,32,48,,,,,,,,,,,,,,,,,,2,1,0.99964940245,,,,,,2016_Aug_22_1359,P6,PLC_L_D1S1,NHGX,60.0171793402,
stim/posf.jpg,stim/negf.jpg,stim/6.jpg,stim/5.jpg,stim/latef.jpg,EF,1,2,0,33,33,44,,,,,,,,,,,,,,,,,,4,0,1.23292373094,,,,,,2016_Aug_22_1359,P6,PLC_L_D1S1,NHGX,60.0171793402,
stim/posf.jpg,stim/negf.jpg,stim/2.jpg,stim/4.jpg,stim/latef.jpg,CD,1,2,0,34,34,25,,,,,,,,,,,,,,,,,,2,1,1.03299939625,,,,,,2016_Aug_22_1359,P6,PLC_L_D1S1,NHGX,60.0171793402,
stim/posf.jpg,stim/negf.jpg,stim/6.jpg,stim/5.jpg,stim/latef.jpg,EF,1,2,0,35,35,43,,,,,,,,,,,,,,,,,,2,1,1.11633773754,,,,,,2016_Aug_22_1359,P6,PLC_L_D1S1,NHGX,60.0171793402,
stim/posf.jpg,stim/negf.jpg,stim/5.jpg,stim/6.jpg,stim/latef.jpg,EF,2,4,0,36,36,52,,,,,,,,,,,,,,,,,,4,1,0.93301176904,,,,,,2016_Aug_22_1359,P6,PLC_L_D1S1,NHGX,60.0171793402,
stim/posf.jpg,stim/negf.jpg,stim/2.jpg,stim/4.jpg,stim/latef.jpg,CD,1,2,0,37,37,24,,,,,,,,,,,,,,,,,,2,1,0.99965440089,,,,,,2016_Aug_22_1359,P6,PLC_L_D1S1,NHGX,60.0171793402,
stim/posf.jpg,stim/negf.jpg,stim/2.jpg,stim/4.jpg,stim/latef.jpg,CD,1,2,0,38,38,22,,,,,,,,,,,,,,,,,,2,1,0.949590210637,,,,,,2016_Aug_22_1359,P6,PLC_L_D1S1,NHGX,60.0171793402,
stim/posf.jpg,stim/negf.jpg,stim/5.jpg,stim/6.jpg,stim/latef.jpg,EF,2,4,0,39,39,50,,,,,,,,,,,,,,,,,,2,0,1.36613454134,,,,,,2016_Aug_22_1359,P6,PLC_L_D1S1,NHGX,60.0171793402,
stim/posf.jpg,stim/negf.jpg,stim/1.jpg,stim/3.jpg,stim/latef.jpg,AB,1,2,0,40,40,4,,,,,,,,,,,,,,,,,,2,1,1.58281072619,,,,,,2016_Aug_22_1359,P6,PLC_L_D1S1,NHGX,60.0171793402,
stim/posf.jpg,stim/negf.jpg,stim/4.jpg,stim/2.jpg,stim/latef.jpg,CD,2,4,0,41,41,31,,,,,,,,,,,,,,,,,,4,1,0.816440536385,,,,,,2016_Aug_22_1359,P6,PLC_L_D1S1,NHGX,60.0171793402,
stim/negf.jpg,stim/posf.jpg,stim/2.jpg,stim/4.jpg,stim/latef.jpg,CD,1,2,0,42,42,28,,,,,,,,,,,,,,,,,,2,1,1.11626143765,,,,,,2016_Aug_22_1359,P6,PLC_L_D1S1,NHGX,60.0171793402,
stim/posf.jpg,stim/negf.jpg,stim/6.jpg,stim/5.jpg,stim/latef.jpg,EF,1,2,0,43,43,41,,,,,,,,,,,,,,,,,,2,1,1.28290746796,,,,,,2016_Aug_22_1359,P6,PLC_L_D1S1,NHGX,60.0171793402,
stim/negf.jpg,stim/posf.jpg,stim/5.jpg,stim/6.jpg,stim/latef.jpg,EF,2,4,0,44,44,57,,,,,,,,,,,,,,,,,,4,1,0.983004311981,,,,,,2016_Aug_22_1359,P6,PLC_L_D1S1,NHGX,60.0171793402,
stim/negf.jpg,stim/posf.jpg,stim/3.jpg,stim/1.jpg,stim/latef.jpg,AB,2,4,0,45,45,19,,,,,,,,,,,,,,,,,,4,1,1.16625666929,,,,,,2016_Aug_22_1359,P6,PLC_L_D1S1,NHGX,60.0171793402,
stim/posf.jpg,stim/negf.jpg,stim/5.jpg,stim/6.jpg,stim/latef.jpg,EF,2,4,0,46,46,55,,,,,,,,,,,,,,,,,,4,1,1.13294366755,,,,,,2016_Aug_22_1359,P6,PLC_L_D1S1,NHGX,60.0171793402,
stim/posf.jpg,stim/negf.jpg,stim/3.jpg,stim/1.jpg,stim/latef.jpg,AB,2,4,0,47,47,17,,,,,,,,,,,,,,,,,,2,0,1.09963004628,,,,,,2016_Aug_22_1359,P6,PLC_L_D1S1,NHGX,60.0171793402,
stim/posf.jpg,stim/negf.jpg,stim/1.jpg,stim/3.jpg,stim/latef.jpg,AB,1,2,0,48,48,0,,,,,,,,,,,,,,,,,,2,1,1.31624977763,,,,,,2016_Aug_22_1359,P6,PLC_L_D1S1,NHGX,60.0171793402,
stim/negf.jpg,stim/posf.jpg,stim/4.jpg,stim/2.jpg,stim/latef.jpg,CD,2,4,0,49,49,37,,,,,,,,,,,,,,,,,,4,1,0.883048347575,,,,,,2016_Aug_22_1359,P6,PLC_L_D1S1,NHGX,60.0171793402,
stim/posf.jpg,stim/negf.jpg,stim/3.jpg,stim/1.jpg,stim/latef.jpg,AB,2,4,0,50,50,16,,,,,,,,,,,,,,,,,,2,0,1.56615097123,,,,,,2016_Aug_22_1359,P6,PLC_L_D1S1,NHGX,60.0171793402,
stim/posf.jpg,stim/negf.jpg,stim/3.jpg,stim/1.jpg,stim/latef.jpg,AB,2,4,0,51,51,13,,,,,,,,,,,,,,,,,,4,1,0.633067440593,,,,,,2016_Aug_22_1359,P6,PLC_L_D1S1,NHGX,60.0171793402,
stim/posf.jpg,stim/negf.jpg,stim/1.jpg,stim/3.jpg,stim/latef.jpg,AB,1,2,0,52,52,2,,,,,,,,,,,,,,,,,,2,1,0.783018660692,,,,,,2016_Aug_22_1359,P6,PLC_L_D1S1,NHGX,60.0171793402,
stim/negf.jpg,stim/posf.jpg,stim/1.jpg,stim/3.jpg,stim/latef.jpg,AB,1,2,0,53,53,8,,,,,,,,,,,,,,,,,,2,1,0.982974447657,,,,,,2016_Aug_22_1359,P6,PLC_L_D1S1,NHGX,60.0171793402,
stim/negf.jpg,stim/posf.jpg,stim/5.jpg,stim/6.jpg,stim/latef.jpg,EF,2,4,0,54,54,58,,,,,,,,,,,,,,,,,,4,1,0.883041893512,,,,,,2016_Aug_22_1359,P6,PLC_L_D1S1,NHGX,60.0171793402,
stim/negf.jpg,stim/posf.jpg,stim/5.jpg,stim/6.jpg,stim/latef.jpg,EF,2,4,0,55,55,56,,,,,,,,,,,,,,,,,,2,0,0.816383237783,,,,,,2016_Aug_22_1359,P6,PLC_L_D1S1,NHGX,60.0171793402,
stim/posf.jpg,stim/negf.jpg,stim/1.jpg,stim/3.jpg,stim/latef.jpg,AB,1,2,0,56,56,7,,,,,,,,,,,,,,,,,,4,0,1.06631824453,,,,,,2016_Aug_22_1359,P6,PLC_L_D1S1,NHGX,60.0171793402,
stim/posf.jpg,stim/negf.jpg,stim/2.jpg,stim/4.jpg,stim/latef.jpg,CD,1,2,0,57,57,26,,,,,,,,,,,,,,,,,,2,1,1.03301233445,,,,,,2016_Aug_22_1359,P6,PLC_L_D1S1,NHGX,60.0171793402,
stim/posf.jpg,stim/negf.jpg,stim/1.jpg,stim/3.jpg,stim/latef.jpg,AB,1,2,0,58,58,6,,,,,,,,,,,,,,,,,,2,1,1.41619642184,,,,,,2016_Aug_22_1359,P6,PLC_L_D1S1,NHGX,60.0171793402,
stim/posf.jpg,stim/negf.jpg,stim/1.jpg,stim/3.jpg,stim/latef.jpg,AB,1,2,0,59,59,3,,,,,,,,,,,,,,,,,,2,1,1.19960182705,,,,,,2016_Aug_22_1359,P6,PLC_L_D1S1,NHGX,60.0171793402,
,,,,,,,,,,,,,,,,,,,,,,,,,,,,,,,,0.5765625,0.611328125,1,0,0,2016_Aug_22_1359,P6,PLC_L_D1S1,NHGX,60.0171793402,
stim/negf.jpg,stim/posf.jpg,stim/4.jpg,stim/2.jpg,stim/latef.jpg,CD,2,4,,,,,0,0,0,37,,,,,,,,,,,,,,4,1,1.54942765307,,,,,,2016_Aug_22_1359,P6,PLC_L_D1S1,NHGX,60.0171793402,
stim/posf.jpg,stim/negf.jpg,stim/2.jpg,stim/4.jpg,stim/latef.jpg,CD,1,2,,,,,0,1,1,23,,,,,,,,,,,,,,4,0,1.29957849498,,,,,,2016_Aug_22_1359,P6,PLC_L_D1S1,NHGX,60.0171793402,
stim/posf.jpg,stim/negf.jpg,stim/4.jpg,stim/2.jpg,stim/latef.jpg,CD,2,4,,,,,0,2,2,36,,,,,,,,,,,,,,None,0,,,,,,,2016_Aug_22_1359,P6,PLC_L_D1S1,NHGX,60.0171793402,
stim/posf.jpg,stim/negf.jpg,stim/1.jpg,stim/3.jpg,stim/latef.jpg,AB,1,2,,,,,0,3,3,5,,,,,,,,,,,,,,2,1,1.08289029522,,,,,,2016_Aug_22_1359,P6,PLC_L_D1S1,NHGX,60.0171793402,
stim/negf.jpg,stim/posf.jpg,stim/1.jpg,stim/3.jpg,stim/latef.jpg,AB,1,2,,,,,0,4,4,9,,,,,,,,,,,,,,2,1,1.01628973809,,,,,,2016_Aug_22_1359,P6,PLC_L_D1S1,NHGX,60.0171793402,
stim/posf.jpg,stim/negf.jpg,stim/1.jpg,stim/3.jpg,stim/latef.jpg,AB,1,2,,,,,0,5,5,3,,,,,,,,,,,,,,4,0,1.11628535317,,,,,,2016_Aug_22_1359,P6,PLC_L_D1S1,NHGX,60.0171793402,
stim/posf.jpg,stim/negf.jpg,stim/4.jpg,stim/2.jpg,stim/latef.jpg,CD,2,4,,,,,0,6,6,30,,,,,,,,,,,,,,2,0,1.2995887896,,,,,,2016_Aug_22_1359,P6,PLC_L_D1S1,NHGX,60.0171793402,
stim/posf.jpg,stim/negf.jpg,stim/2.jpg,stim/4.jpg,stim/latef.jpg,CD,1,2,,,,,0,7,7,20,,,,,,,,,,,,,,4,0,1.03305690537,,,,,,2016_Aug_22_1359,P6,PLC_L_D1S1,NHGX,60.0171793402,
stim/posf.jpg,stim/negf.jpg,stim/3.jpg,stim/1.jpg,stim/latef.jpg,AB,2,4,,,,,0,8,8,10,,,,,,,,,,,,,,2,0,1.38294224952,,,,,,2016_Aug_22_1359,P6,PLC_L_D1S1,NHGX,60.0171793402,
stim/negf.jpg,stim/posf.jpg,stim/5.jpg,stim/6.jpg,stim/latef.jpg,EF,2,4,,,,,0,9,9,56,,,,,,,,,,,,,,4,1,1.29957414916,,,,,,2016_Aug_22_1359,P6,PLC_L_D1S1,NHGX,60.0171793402,
stim/posf.jpg,stim/negf.jpg,stim/2.jpg,stim/4.jpg,stim/latef.jpg,CD,1,2,,,,,0,10,10,21,,,,,,,,,,,,,,2,1,1.34955296594,,,,,,2016_Aug_22_1359,P6,PLC_L_D1S1,NHGX,60.0171793402,
stim/posf.jpg,stim/negf.jpg,stim/2.jpg,stim/4.jpg,stim/latef.jpg,CD,1,2,,,,,0,11,11,22,,,,,,,,,,,,,,2,1,0.99964006421,,,,,,2016_Aug_22_1359,P6,PLC_L_D1S1,NHGX,60.0171793402,
stim/negf.jpg,stim/posf.jpg,stim/6.jpg,stim/5.jpg,stim/latef.jpg,EF,1,2,,,,,0,12,12,46,,,,,,,,,,,,,,4,0,1.51617014545,,,,,,2016_Aug_22_1359,P6,PLC_L_D1S1,NHGX,60.0171793402,
stim/posf.jpg,stim/negf.jpg,stim/3.jpg,stim/1.jpg,stim/latef.jpg,AB,2,4,,,,,0,13,13,11,,,,,,,,,,,,,,2,0,1.44952817525,,,,,,2016_Aug_22_1359,P6,PLC_L_D1S1,NHGX,60.0171793402,
stim/negf.jpg,stim/posf.jpg,stim/4.jpg,stim/2.jpg,stim/latef.jpg,CD,2,4,,,,,0,14,14,38,,,,,,,,,,,,,,4,1,1.08295827942,,,,,,2016_Aug_22_1359,P6,PLC_L_D1S1,NHGX,60.0171793402,
stim/negf.jpg,stim/posf.jpg,stim/2.jpg,stim/4.jpg,stim/latef.jpg,CD,1,2,,,,,0,15,15,27,,,,,,,,,,,,,,4,0,1.64943778529,,,,,,2016_Aug_22_1359,P6,PLC_L_D1S1,NHGX,60.0171793402,
stim/negf.jpg,stim/posf.jpg,stim/1.jpg,stim/3.jpg,stim/latef.jpg,AB,1,2,,,,,0,16,16,8,,,,,,,,,,,,,,2,1,1.58279472337,,,,,,2016_Aug_22_1359,P6,PLC_L_D1S1,NHGX,60.0171793402,
stim/negf.jpg,stim/posf.jpg,stim/5.jpg,stim/6.jpg,stim/latef.jpg,EF,2,4,,,,,0,17,17,58,,,,,,,,,,,,,,2,0,1.59944102285,,,,,,2016_Aug_22_1359,P6,PLC_L_D1S1,NHGX,60.0171793402,
stim/posf.jpg,stim/negf.jpg,stim/3.jpg,stim/1.jpg,stim/latef.jpg,AB,2,4,,,,,0,18,18,16,,,,,,,,,,,,,,2,0,1.44951995579,,,,,,2016_Aug_22_1359,P6,PLC_L_D1S1,NHGX,60.0171793402,
stim/negf.jpg,stim/posf.jpg,stim/4.jpg,stim/2.jpg,stim/latef.jpg,CD,2,4,,,,,0,19,19,39,,,,,,,,,,,,,,2,0,1.48283803416,,,,,,2016_Aug_22_1359,P6,PLC_L_D1S1,NHGX,60.0171793402,
stim/posf.jpg,stim/negf.jpg,stim/4.jpg,stim/2.jpg,stim/latef.jpg,CD,2,4,,,,,0,20,20,35,,,,,,,,,,,,,,None,0,,,,,,,2016_Aug_22_1359,P6,PLC_L_D1S1,NHGX,60.0171793402,
stim/posf.jpg,stim/negf.jpg,stim/6.jpg,stim/5.jpg,stim/latef.jpg,EF,1,2,,,,,0,21,21,44,,,,,,,,,,,,,,2,1,1.266251331,,,,,,2016_Aug_22_1359,P6,PLC_L_D1S1,NHGX,60.0171793402,
stim/posf.jpg,stim/negf.jpg,stim/3.jpg,stim/1.jpg,stim/latef.jpg,AB,2,4,,,,,0,22,22,15,,,,,,,,,,,,,,2,0,1.13295705688,,,,,,2016_Aug_22_1359,P6,PLC_L_D1S1,NHGX,60.0171793402,
stim/posf.jpg,stim/negf.jpg,stim/1.jpg,stim/3.jpg,stim/latef.jpg,AB,1,2,,,,,0,23,23,0,,,,,,,,,,,,,,2,1,1.16629015763,,,,,,2016_Aug_22_1359,P6,PLC_L_D1S1,NHGX,60.0171793402,
stim/negf.jpg,stim/posf.jpg,stim/6.jpg,stim/5.jpg,stim/latef.jpg,EF,1,2,,,,,0,24,24,49,,,,,,,,,,,,,,4,0,1.21623646951,,,,,,2016_Aug_22_1359,P6,PLC_L_D1S1,NHGX,60.0171793402,
stim/posf.jpg,stim/negf.jpg,stim/6.jpg,stim/5.jpg,stim/latef.jpg,EF,1,2,,,,,0,25,25,40,,,,,,,,,,,,,,None,0,,,,,,,2016_Aug_22_1359,P6,PLC_L_D1S1,NHGX,60.0171793402,
stim/posf.jpg,stim/negf.jpg,stim/6.jpg,stim/5.jpg,stim/latef.jpg,EF,1,2,,,,,0,26,26,45,,,,,,,,,,,,,,2,1,0.816382422754,,,,,,2016_Aug_22_1359,P6,PLC_L_D1S1,NHGX,60.0171793402,
stim/negf.jpg,stim/posf.jpg,stim/3.jpg,stim/1.jpg,stim/latef.jpg,AB,2,4,,,,,0,27,27,18,,,,,,,,,,,,,,4,1,0.949735033063,,,,,,2016_Aug_22_1359,P6,PLC_L_D1S1,NHGX,60.0171793402,
stim/posf.jpg,stim/negf.jpg,stim/5.jpg,stim/6.jpg,stim/latef.jpg,EF,2,4,,,,,0,28,28,54,,,,,,,,,,,,,,4,1,1.14962721774,,,,,,2016_Aug_22_1359,P6,PLC_L_D1S1,NHGX,60.0171793402,
stim/posf.jpg,stim/negf.jpg,stim/4.jpg,stim/2.jpg,stim/latef.jpg,CD,2,4,,,,,0,29,29,31,,,,,,,,,,,,,,4,1,1.36619929249,,,,,,2016_Aug_22_1359,P6,PLC_L_D1S1,NHGX,60.0171793402,
stim/posf.jpg,stim/negf.jpg,stim/1.jpg,stim/3.jpg,stim/latef.jpg,AB,1,2,,,,,0,30,30,2,,,,,,,,,,,,,,4,0,1.03300305636,,,,,,2016_Aug_22_1359,P6,PLC_L_D1S1,NHGX,60.0171793402,
stim/posf.jpg,stim/negf.jpg,stim/5.jpg,stim/6.jpg,stim/latef.jpg,EF,2,4,,,,,0,31,31,52,,,,,,,,,,,,,,2,0,1.46617660703,,,,,,2016_Aug_22_1359,P6,PLC_L_D1S1,NHGX,60.0171793402,
stim/posf.jpg,stim/negf.jpg,stim/1.jpg,stim/3.jpg,stim/latef.jpg,AB,1,2,,,,,0,32,32,6,,,,,,,,,,,,,,2,1,1.29956780036,,,,,,2016_Aug_22_1359,P6,PLC_L_D1S1,NHGX,60.0171793402,
stim/posf.jpg,stim/negf.jpg,stim/4.jpg,stim/2.jpg,stim/latef.jpg,CD,2,4,,,,,0,33,33,32,,,,,,,,,,,,,,4,1,1.19962948689,,,,,,2016_Aug_22_1359,P6,PLC_L_D1S1,NHGX,60.0171793402,
stim/negf.jpg,stim/posf.jpg,stim/6.jpg,stim/5.jpg,stim/latef.jpg,EF,1,2,,,,,0,34,34,47,,,,,,,,,,,,,,2,1,0.88302240501,,,,,,2016_Aug_22_1359,P6,PLC_L_D1S1,NHGX,60.0171793402,
stim/posf.jpg,stim/negf.jpg,stim/1.jpg,stim/3.jpg,stim/latef.jpg,AB,1,2,,,,,0,35,35,7,,,,,,,,,,,,,,4,0,1.19959471435,,,,,,2016_Aug_22_1359,P6,PLC_L_D1S1,NHGX,60.0171793402,
stim/posf.jpg,stim/negf.jpg,stim/5.jpg,stim/6.jpg,stim/latef.jpg,EF,2,4,,,,,0,36,36,50,,,,,,,,,,,,,,None,0,,,,,,,2016_Aug_22_1359,P6,PLC_L_D1S1,NHGX,60.0171793402,
stim/posf.jpg,stim/negf.jpg,stim/1.jpg,stim/3.jpg,stim/latef.jpg,AB,1,2,,,,,0,37,37,1,,,,,,,,,,,,,,2,1,1.04965334075,,,,,,2016_Aug_22_1359,P6,PLC_L_D1S1,NHGX,60.0171793402,
stim/negf.jpg,stim/posf.jpg,stim/5.jpg,stim/6.jpg,stim/latef.jpg,EF,2,4,,,,,0,38,38,57,,,,,,,,,,,,,,2,0,1.58272189411,,,,,,2016_Aug_22_1359,P6,PLC_L_D1S1,NHGX,60.0171793402,
stim/posf.jpg,stim/negf.jpg,stim/6.jpg,stim/5.jpg,stim/latef.jpg,EF,1,2,,,,,0,39,39,43,,,,,,,,,,,,,,2,1,1.28285616328,,,,,,2016_Aug_22_1359,P6,PLC_L_D1S1,NHGX,60.0171793402,
stim/posf.jpg,stim/negf.jpg,stim/6.jpg,stim/5.jpg,stim/latef.jpg,EF,1,2,,,,,0,40,40,42,,,,,,,,,,,,,,4,0,1.33286360831,,,,,,2016_Aug_22_1359,P6,PLC_L_D1S1,NHGX,60.0171793402,
stim/negf.jpg,stim/posf.jpg,stim/6.jpg,stim/5.jpg,stim/latef.jpg,EF,1,2,,,,,0,41,41,48,,,,,,,,,,,,,,2,1,0.899701786822,,,,,,2016_Aug_22_1359,P6,PLC_L_D1S1,NHGX,60.0171793402,
stim/posf.jpg,stim/negf.jpg,stim/6.jpg,stim/5.jpg,stim/latef.jpg,EF,1,2,,,,,0,42,42,41,,,,,,,,,,,,,,2,1,0.766409614929,,,,,,2016_Aug_22_1359,P6,PLC_L_D1S1,NHGX,60.0171793402,
stim/posf.jpg,stim/negf.jpg,stim/3.jpg,stim/1.jpg,stim/latef.jpg,AB,2,4,,,,,0,43,43,13,,,,,,,,,,,,,,2,0,1.63279071589,,,,,,2016_Aug_22_1359,P6,PLC_L_D1S1,NHGX,60.0171793402,
stim/posf.jpg,stim/negf.jpg,stim/5.jpg,stim/6.jpg,stim/latef.jpg,EF,2,4,,,,,0,44,44,55,,,,,,,,,,,,,,4,1,1.43286519325,,,,,,2016_Aug_22_1359,P6,PLC_L_D1S1,NHGX,60.0171793402,
stim/posf.jpg,stim/negf.jpg,stim/4.jpg,stim/2.jpg,stim/latef.jpg,CD,2,4,,,,,0,45,45,33,,,,,,,,,,,,,,4,1,1.13287854047,,,,,,2016_Aug_22_1359,P6,PLC_L_D1S1,NHGX,60.0171793402,
stim/negf.jpg,stim/posf.jpg,stim/5.jpg,stim/6.jpg,stim/latef.jpg,EF,2,4,,,,,0,46,46,59,,,,,,,,,,,,,,2,0,1.39947390067,,,,,,2016_Aug_22_1359,P6,PLC_L_D1S1,NHGX,60.0171793402,
stim/posf.jpg,stim/negf.jpg,stim/3.jpg,stim/1.jpg,stim/latef.jpg,AB,2,4,,,,,0,47,47,14,,,,,,,,,,,,,,4,1,0.799660199321,,,,,,2016_Aug_22_1359,P6,PLC_L_D1S1,NHGX,60.0171793402,
stim/posf.jpg,stim/negf.jpg,stim/2.jpg,stim/4.jpg,stim/latef.jpg,CD,1,2,,,,,0,48,48,24,,,,,,,,,,,,,,2,1,0.899731248144,,,,,,2016_Aug_22_1359,P6,PLC_L_D1S1,NHGX,60.0171793402,
stim/posf.jpg,stim/negf.jpg,stim/3.jpg,stim/1.jpg,stim/latef.jpg,AB,2,4,,,,,0,49,49,12,,,,,,,,,,,,,,4,1,1.49952107608,,,,,,2016_Aug_22_1359,P6,PLC_L_D1S1,NHGX,60.0171793402,
stim/posf.jpg,stim/negf.jpg,stim/3.jpg,stim/1.jpg,stim/latef.jpg,AB,2,4,,,,,0,50,50,17,,,,,,,,,,,,,,4,1,1.08297892279,,,,,,2016_Aug_22_1359,P6,PLC_L_D1S1,NHGX,60.0171793402,
stim/posf.jpg,stim/negf.jpg,stim/2.jpg,stim/4.jpg,stim/latef.jpg,CD,1,2,,,,,0,51,51,26,,,,,,,,,,,,,,2,1,1.2329198603,,,,,,2016_Aug_22_1359,P6,PLC_L_D1S1,NHGX,60.0171793402,
stim/posf.jpg,stim/negf.jpg,stim/5.jpg,stim/6.jpg,stim/latef.jpg,EF,2,4,,,,,0,52,52,51,,,,,,,,,,,,,,4,1,1.53286462183,,,,,,2016_Aug_22_1359,P6,PLC_L_D1S1,NHGX,60.0171793402,
stim/posf.jpg,stim/negf.jpg,stim/4.jpg,stim/2.jpg,stim/latef.jpg,CD,2,4,,,,,0,53,53,34,,,,,,,,,,,,,,4,1,1.44951310775,,,,,,2016_Aug_22_1359,P6,PLC_L_D1S1,NHGX,60.0171793402,
stim/negf.jpg,stim/posf.jpg,stim/3.jpg,stim/1.jpg,stim/latef.jpg,AB,2,4,,,,,0,54,54,19,,,,,,,,,,,,,,None,0,,,,,,,2016_Aug_22_1359,P6,PLC_L_D1S1,NHGX,60.0171793402,
stim/posf.jpg,stim/negf.jpg,stim/2.jpg,stim/4.jpg,stim/latef.jpg,CD,1,2,,,,,0,55,55,25,,,,,,,,,,,,,,2,1,1.34955542005,,,,,,2016_Aug_22_1359,P6,PLC_L_D1S1,NHGX,60.0171793402,
stim/posf.jpg,stim/negf.jpg,stim/1.jpg,stim/3.jpg,stim/latef.jpg,AB,1,2,,,,,0,56,56,4,,,,,,,,,,,,,,2,1,0.982996862441,,,,,,2016_Aug_22_1359,P6,PLC_L_D1S1,NHGX,60.0171793402,
stim/negf.jpg,stim/posf.jpg,stim/2.jpg,stim/4.jpg,stim/latef.jpg,CD,1,2,,,,,0,57,57,28,,,,,,,,,,,,,,2,1,1.09964087322,,,,,,2016_Aug_22_1359,P6,PLC_L_D1S1,NHGX,60.0171793402,
stim/negf.jpg,stim/posf.jpg,stim/2.jpg,stim/4.jpg,stim/latef.jpg,CD,1,2,,,,,0,58,58,29,,,,,,,,,,,,,,4,0,1.03302109224,,,,,,2016_Aug_22_1359,P6,PLC_L_D1S1,NHGX,60.0171793402,
stim/posf.jpg,stim/negf.jpg,stim/5.jpg,stim/6.jpg,stim/latef.jpg,EF,2,4,,,,,0,59,59,53,,,,,,,,,,,,,,4,1,1.51615182385,,,,,,2016_Aug_22_1359,P6,PLC_L_D1S1,NHGX,60.0171793402,
,,,,,,,,,,,,,,,,,,,,,,,,,,,,,,,,0.9984375,0.662109375,1,0,0,2016_Aug_22_1359,P6,PLC_L_D1S1,NHGX,60.0171793402,
stim/posf.jpg,stim/negf.jpg,stim/2.jpg,stim/4.jpg,stim/latef.jpg,CD,1,2,,,,,,,,,0,0,0,24,,,,,,,,,,2,1,0.999725124905,,,,,,2016_Aug_22_1359,P6,PLC_L_D1S1,NHGX,60.0171793402,
stim/posf.jpg,stim/negf.jpg,stim/6.jpg,stim/5.jpg,stim/latef.jpg,EF,1,2,,,,,,,,,0,1,1,41,,,,,,,,,,4,0,1.49946395191,,,,,,2016_Aug_22_1359,P6,PLC_L_D1S1,NHGX,60.0171793402,
stim/posf.jpg,stim/negf.jpg,stim/3.jpg,stim/1.jpg,stim/latef.jpg,AB,2,4,,,,,,,,,0,2,2,12,,,,,,,,,,4,1,1.33286338274,,,,,,2016_Aug_22_1359,P6,PLC_L_D1S1,NHGX,60.0171793402,
stim/negf.jpg,stim/posf.jpg,stim/3.jpg,stim/1.jpg,stim/latef.jpg,AB,2,4,,,,,,,,,0,3,3,19,,,,,,,,,,4,1,1.28298480243,,,,,,2016_Aug_22_1359,P6,PLC_L_D1S1,NHGX,60.0171793402,
stim/posf.jpg,stim/negf.jpg,stim/4.jpg,stim/2.jpg,stim/latef.jpg,CD,2,4,,,,,,,,,0,4,4,33,,,,,,,,,,4,1,1.38288582911,,,,,,2016_Aug_22_1359,P6,PLC_L_D1S1,NHGX,60.0171793402,
stim/posf.jpg,stim/negf.jpg,stim/4.jpg,stim/2.jpg,stim/latef.jpg,CD,2,4,,,,,,,,,0,5,5,35,,,,,,,,,,4,1,1.09969858987,,,,,,2016_Aug_22_1359,P6,PLC_L_D1S1,NHGX,60.0171793402,
stim/negf.jpg,stim/posf.jpg,stim/1.jpg,stim/3.jpg,stim/latef.jpg,AB,1,2,,,,,,,,,0,6,6,9,,,,,,,,,,4,0,1.36619429706,,,,,,2016_Aug_22_1359,P6,PLC_L_D1S1,NHGX,60.0171793402,
stim/negf.jpg,stim/posf.jpg,stim/4.jpg,stim/2.jpg,stim/latef.jpg,CD,2,4,,,,,,,,,0,7,7,38,,,,,,,,,,4,1,0.933019591508,,,,,,2016_Aug_22_1359,P6,PLC_L_D1S1,NHGX,60.0171793402,
stim/posf.jpg,stim/negf.jpg,stim/3.jpg,stim/1.jpg,stim/latef.jpg,AB,2,4,,,,,,,,,0,8,8,15,,,,,,,,,,4,1,1.34944022436,,,,,,2016_Aug_22_1359,P6,PLC_L_D1S1,NHGX,60.0171793402,
stim/posf.jpg,stim/negf.jpg,stim/3.jpg,stim/1.jpg,stim/latef.jpg,AB,2,4,,,,,,,,,0,9,9,10,,,,,,,,,,2,0,1.19960589918,,,,,,2016_Aug_22_1359,P6,PLC_L_D1S1,NHGX,60.0171793402,
stim/negf.jpg,stim/posf.jpg,stim/6.jpg,stim/5.jpg,stim/latef.jpg,EF,1,2,,,,,,,,,0,10,10,48,,,,,,,,,,2,1,1.38289251775,,,,,,2016_Aug_22_1359,P6,PLC_L_D1S1,NHGX,60.0171793402,
stim/posf.jpg,stim/negf.jpg,stim/5.jpg,stim/6.jpg,stim/latef.jpg,EF,2,4,,,,,,,,,0,11,11,53,,,,,,,,,,2,0,1.19960983899,,,,,,2016_Aug_22_1359,P6,PLC_L_D1S1,NHGX,60.0171793402,
stim/negf.jpg,stim/posf.jpg,stim/6.jpg,stim/5.jpg,stim/latef.jpg,EF,1,2,,,,,,,,,0,12,12,47,,,,,,,,,,4,0,1.08296699511,,,,,,2016_Aug_22_1359,P6,PLC_L_D1S1,NHGX,60.0171793402,
stim/posf.jpg,stim/negf.jpg,stim/1.jpg,stim/3.jpg,stim/latef.jpg,AB,1,2,,,,,,,,,0,13,13,5,,,,,,,,,,2,1,1.29956856126,,,,,,2016_Aug_22_1359,P6,PLC_L_D1S1,NHGX,60.0171793402,
stim/posf.jpg,stim/negf.jpg,stim/2.jpg,stim/4.jpg,stim/latef.jpg,CD,1,2,,,,,,,,,0,14,14,25,,,,,,,,,,2,1,1.14961776521,,,,,,2016_Aug_22_1359,P6,PLC_L_D1S1,NHGX,60.0171793402,
stim/posf.jpg,stim/negf.jpg,stim/4.jpg,stim/2.jpg,stim/latef.jpg,CD,2,4,,,,,,,,,0,15,15,36,,,,,,,,,,4,1,0.983023448608,,,,,,2016_Aug_22_1359,P6,PLC_L_D1S1,NHGX,60.0171793402,
stim/posf.jpg,stim/negf.jpg,stim/2.jpg,stim/4.jpg,stim/latef.jpg,CD,1,2,,,,,,,,,0,16,16,22,,,,,,,,,,2,1,0.86631902347,,,,,,2016_Aug_22_1359,P6,PLC_L_D1S1,NHGX,60.0171793402,
stim/posf.jpg,stim/negf.jpg,stim/4.jpg,stim/2.jpg,stim/latef.jpg,CD,2,4,,,,,,,,,0,17,17,32,,,,,,,,,,4,1,0.933023047108,,,,,,2016_Aug_22_1359,P6,PLC_L_D1S1,NHGX,60.0171793402,
stim/posf.jpg,stim/negf.jpg,stim/5.jpg,stim/6.jpg,stim/latef.jpg,EF,2,4,,,,,,,,,0,18,18,51,,,,,,,,,,2,0,1.19959778799,,,,,,2016_Aug_22_1359,P6,PLC_L_D1S1,NHGX,60.0171793402,
stim/posf.jpg,stim/negf.jpg,stim/1.jpg,stim/3.jpg,stim/latef.jpg,AB,1,2,,,,,,,,,0,19,19,0,,,,,,,,,,4,0,1.13293389323,,,,,,2016_Aug_22_1359,P6,PLC_L_D1S1,NHGX,60.0171793402,
stim/negf.jpg,stim/posf.jpg,stim/3.jpg,stim/1.jpg,stim/latef.jpg,AB,2,4,,,,,,,,,0,20,20,18,,,,,,,,,,4,1,0.833038899561,,,,,,2016_Aug_22_1359,P6,PLC_L_D1S1,NHGX,60.0171793402,
stim/posf.jpg,stim/negf.jpg,stim/1.jpg,stim/3.jpg,stim/latef.jpg,AB,1,2,,,,,,,,,0,21,21,7,,,,,,,,,,4,0,1.43287029695,,,,,,2016_Aug_22_1359,P6,PLC_L_D1S1,NHGX,60.0171793402,
stim/negf.jpg,stim/posf.jpg,stim/5.jpg,stim/6.jpg,stim/latef.jpg,EF,2,4,,,,,,,,,0,22,22,56,,,,,,,,,,None,0,,,,,,,2016_Aug_22_1359,P6,PLC_L_D1S1,NHGX,60.0171793402,
stim/posf.jpg,stim/negf.jpg,stim/4.jpg,stim/2.jpg,stim/latef.jpg,CD,2,4,,,,,,,,,0,23,23,31,,,,,,,,,,4,1,1.03299631358,,,,,,2016_Aug_22_1359,P6,PLC_L_D1S1,NHGX,60.0171793402,
stim/negf.jpg,stim/posf.jpg,stim/6.jpg,stim/5.jpg,stim/latef.jpg,EF,1,2,,,,,,,,,0,24,24,46,,,,,,,,,,2,1,1.26625432044,,,,,,2016_Aug_22_1359,P6,PLC_L_D1S1,NHGX,60.0171793402,
stim/negf.jpg,stim/posf.jpg,stim/5.jpg,stim/6.jpg,stim/latef.jpg,EF,2,4,,,,,,,,,0,25,25,57,,,,,,,,,,4,1,1.31622591926,,,,,,2016_Aug_22_1359,P6,PLC_L_D1S1,NHGX,60.0171793402,
stim/posf.jpg,stim/negf.jpg,stim/2.jpg,stim/4.jpg,stim/latef.jpg,CD,1,2,,,,,,,,,0,26,26,20,,,,,,,,,,2,1,1.3496313831,,,,,,2016_Aug_22_1359,P6,PLC_L_D1S1,NHGX,60.0171793402,
stim/posf.jpg,stim/negf.jpg,stim/5.jpg,stim/6.jpg,stim/latef.jpg,EF,2,4,,,,,,,,,0,27,27,55,,,,,,,,,,2,0,1.51615551404,,,,,,2016_Aug_22_1359,P6,PLC_L_D1S1,NHGX,60.0171793402,
stim/posf.jpg,stim/negf.jpg,stim/2.jpg,stim/4.jpg,stim/latef.jpg,CD,1,2,,,,,,,,,0,28,28,21,,,,,,,,,,2,1,1.29956651015,,,,,,2016_Aug_22_1359,P6,PLC_L_D1S1,NHGX,60.0171793402,
stim/negf.jpg,stim/posf.jpg,stim/4.jpg,stim/2.jpg,stim/latef.jpg,CD,2,4,,,,,,,,,0,29,29,39,,,,,,,,,,4,1,1.08294556377,,,,,,2016_Aug_22_1359,P6,PLC_L_D1S1,NHGX,60.0171793402,
stim/posf.jpg,stim/negf.jpg,stim/6.jpg,stim/5.jpg,stim/latef.jpg,EF,1,2,,,,,,,,,0,30,30,40,,,,,,,,,,2,1,1.44950492137,,,,,,2016_Aug_22_1359,P6,PLC_L_D1S1,NHGX,60.0171793402,
stim/posf.jpg,stim/negf.jpg,stim/4.jpg,stim/2.jpg,stim/latef.jpg,CD,2,4,,,,,,,,,0,31,31,34,,,,,,,,,,4,1,1.06630054548,,,,,,2016_Aug_22_1359,P6,PLC_L_D1S1,NHGX,60.0171793402,
stim/posf.jpg,stim/negf.jpg,stim/5.jpg,stim/6.jpg,stim/latef.jpg,EF,2,4,,,,,,,,,0,32,32,50,,,,,,,,,,2,0,1.16628975763,,,,,,2016_Aug_22_1359,P6,PLC_L_D1S1,NHGX,60.0171793402,
stim/negf.jpg,stim/posf.jpg,stim/2.jpg,stim/4.jpg,stim/latef.jpg,CD,1,2,,,,,,,,,0,33,33,28,,,,,,,,,,2,1,1.14962456213,,,,,,2016_Aug_22_1359,P6,PLC_L_D1S1,NHGX,60.0171793402,
stim/negf.jpg,stim/posf.jpg,stim/5.jpg,stim/6.jpg,stim/latef.jpg,EF,2,4,,,,,,,,,0,34,34,59,,,,,,,,,,2,0,1.5328223396,,,,,,2016_Aug_22_1359,P6,PLC_L_D1S1,NHGX,60.0171793402,
stim/posf.jpg,stim/negf.jpg,stim/3.jpg,stim/1.jpg,stim/latef.jpg,AB,2,4,,,,,,,,,0,35,35,13,,,,,,,,,,4,1,1.25059550757,,,,,,2016_Aug_22_1359,P6,PLC_L_D1S1,NHGX,60.0171793402,
stim/posf.jpg,stim/negf.jpg,stim/3.jpg,stim/1.jpg,stim/latef.jpg,AB,2,4,,,,,,,,,0,36,36,17,,,,,,,,,,4,1,0.816364077097,,,,,,2016_Aug_22_1359,P6,PLC_L_D1S1,NHGX,60.0171793402,
stim/negf.jpg,stim/posf.jpg,stim/4.jpg,stim/2.jpg,stim/latef.jpg,CD,2,4,,,,,,,,,0,37,37,37,,,,,,,,,,2,0,1.48283860859,,,,,,2016_Aug_22_1359,P6,PLC_L_D1S1,NHGX,60.0171793402,
stim/posf.jpg,stim/negf.jpg,stim/3.jpg,stim/1.jpg,stim/latef.jpg,AB,2,4,,,,,,,,,0,38,38,14,,,,,,,,,,2,0,1.51619386849,,,,,,2016_Aug_22_1359,P6,PLC_L_D1S1,NHGX,60.0171793402,
stim/posf.jpg,stim/negf.jpg,stim/3.jpg,stim/1.jpg,stim/latef.jpg,AB,2,4,,,,,,,,,0,39,39,16,,,,,,,,,,4,1,0.54981877648,,,,,,2016_Aug_22_1359,P6,PLC_L_D1S1,NHGX,60.0171793402,
stim/posf.jpg,stim/negf.jpg,stim/2.jpg,stim/4.jpg,stim/latef.jpg,CD,1,2,,,,,,,,,0,40,40,23,,,,,,,,,,4,0,1.36627529765,,,,,,2016_Aug_22_1359,P6,PLC_L_D1S1,NHGX,60.0171793402,
stim/posf.jpg,stim/negf.jpg,stim/6.jpg,stim/5.jpg,stim/latef.jpg,EF,1,2,,,,,,,,,0,41,41,44,,,,,,,,,,2,1,1.18296389439,,,,,,2016_Aug_22_1359,P6,PLC_L_D1S1,NHGX,60.0171793402,
stim/posf.jpg,stim/negf.jpg,stim/1.jpg,stim/3.jpg,stim/latef.jpg,AB,1,2,,,,,,,,,0,42,42,4,,,,,,,,,,2,1,1.24959119709,,,,,,2016_Aug_22_1359,P6,PLC_L_D1S1,NHGX,60.0171793402,
stim/posf.jpg,stim/negf.jpg,stim/1.jpg,stim/3.jpg,stim/latef.jpg,AB,1,2,,,,,,,,,0,43,43,2,,,,,,,,,,2,1,0.849750798299,,,,,,2016_Aug_22_1359,P6,PLC_L_D1S1,NHGX,60.0171793402,
stim/posf.jpg,stim/negf.jpg,stim/1.jpg,stim/3.jpg,stim/latef.jpg,AB,1,2,,,,,,,,,0,44,44,3,,,,,,,,,,4,0,1.04964153036,,,,,,2016_Aug_22_1359,P6,PLC_L_D1S1,NHGX,60.0171793402,
stim/negf.jpg,stim/posf.jpg,stim/1.jpg,stim/3.jpg,stim/latef.jpg,AB,1,2,,,,,,,,,0,45,45,8,,,,,,,,,,2,1,1.21625383774,,,,,,2016_Aug_22_1359,P6,PLC_L_D1S1,NHGX,60.0171793402,
stim/negf.jpg,stim/posf.jpg,stim/6.jpg,stim/5.jpg,stim/latef.jpg,EF,1,2,,,,,,,,,0,46,46,49,,,,,,,,,,2,1,1.43286946989,,,,,,2016_Aug_22_1359,P6,PLC_L_D1S1,NHGX,60.0171793402,
stim/posf.jpg,stim/negf.jpg,stim/6.jpg,stim/5.jpg,stim/latef.jpg,EF,1,2,,,,,,,,,0,47,47,42,,,,,,,,,,4,0,1.08299398729,,,,,,2016_Aug_22_1359,P6,PLC_L_D1S1,NHGX,60.0171793402,
stim/posf.jpg,stim/negf.jpg,stim/1.jpg,stim/3.jpg,stim/latef.jpg,AB,1,2,,,,,,,,,0,48,48,6,,,,,,,,,,2,1,1.51615950497,,,,,,2016_Aug_22_1359,P6,PLC_L_D1S1,NHGX,60.0171793402,
stim/posf.jpg,stim/negf.jpg,stim/6.jpg,stim/5.jpg,stim/latef.jpg,EF,1,2,,,,,,,,,0,49,49,45,,,,,,,,,,4,0,1.29955691026,,,,,,2016_Aug_22_1359,P6,PLC_L_D1S1,NHGX,60.0171793402,
stim/negf.jpg,stim/posf.jpg,stim/2.jpg,stim/4.jpg,stim/latef.jpg,CD,1,2,,,,,,,,,0,50,50,27,,,,,,,,,,2,1,1.26620349094,,,,,,2016_Aug_22_1359,P6,PLC_L_D1S1,NHGX,60.0171793402,
stim/posf.jpg,stim/negf.jpg,stim/6.jpg,stim/5.jpg,stim/latef.jpg,EF,1,2,,,,,,,,,0,51,51,43,,,,,,,,,,4,0,1.4995042883,,,,,,2016_Aug_22_1359,P6,PLC_L_D1S1,NHGX,60.0171793402,
stim/negf.jpg,stim/posf.jpg,stim/5.jpg,stim/6.jpg,stim/latef.jpg,EF,2,4,,,,,,,,,0,52,52,58,,,,,,,,,,4,1,0.933033477066,,,,,,2016_Aug_22_1359,P6,PLC_L_D1S1,NHGX,60.0171793402,
stim/posf.jpg,stim/negf.jpg,stim/3.jpg,stim/1.jpg,stim/latef.jpg,AB,2,4,,,,,,,,,0,53,53,11,,,,,,,,,,4,1,1.36617361458,,,,,,2016_Aug_22_1359,P6,PLC_L_D1S1,NHGX,60.0171793402,
stim/posf.jpg,stim/negf.jpg,stim/4.jpg,stim/2.jpg,stim/latef.jpg,CD,2,4,,,,,,,,,0,54,54,30,,,,,,,,,,4,1,1.14963491389,,,,,,2016_Aug_22_1359,P6,PLC_L_D1S1,NHGX,60.0171793402,
stim/posf.jpg,stim/negf.jpg,stim/5.jpg,stim/6.jpg,stim/latef.jpg,EF,2,4,,,,,,,,,0,55,55,52,,,,,,,,,,4,1,1.18294702842,,,,,,2016_Aug_22_1359,P6,PLC_L_D1S1,NHGX,60.0171793402,
stim/posf.jpg,stim/negf.jpg,stim/2.jpg,stim/4.jpg,stim/latef.jpg,CD,1,2,,,,,,,,,0,56,56,26,,,,,,,,,,2,1,1.31620979914,,,,,,2016_Aug_22_1359,P6,PLC_L_D1S1,NHGX,60.0171793402,
stim/negf.jpg,stim/posf.jpg,stim/2.jpg,stim/4.jpg,stim/latef.jpg,CD,1,2,,,,,,,,,0,57,57,29,,,,,,,,,,2,1,0.966276927704,,,,,,2016_Aug_22_1359,P6,PLC_L_D1S1,NHGX,60.0171793402,
stim/posf.jpg,stim/negf.jpg,stim/5.jpg,stim/6.jpg,stim/latef.jpg,EF,2,4,,,,,,,,,0,58,58,54,,,,,,,,,,4,1,1.08296378011,,,,,,2016_Aug_22_1359,P6,PLC_L_D1S1,NHGX,60.0171793402,
stim/posf.jpg,stim/negf.jpg,stim/1.jpg,stim/3.jpg,stim/latef.jpg,AB,1,2,,,,,,,,,0,59,59,1,,,,,,,,,,2,1,0.999669035312,,,,,,2016_Aug_22_1359,P6,PLC_L_D1S1,NHGX,60.0171793402,
,,,,,,,,,,,,,,,,,,,,,,,,,,,,,,,,0.9984375,0.662109375,1,0,0,2016_Aug_22_1359,P6,PLC_L_D1S1,NHGX,60.0171793402,
stim/posf.jpg,stim/negf.jpg,stim/3.jpg,stim/1.jpg,stim/latef.jpg,AB,2,4,,,,,,,,,,,,,0,0,0,12,,,,,,4,1,0.899699362789,,,,,,2016_Aug_22_1359,P6,PLC_L_D1S1,NHGX,60.0171793402,
stim/posf.jpg,stim/negf.jpg,stim/1.jpg,stim/3.jpg,stim/latef.jpg,AB,1,2,,,,,,,,,,,,,0,1,1,3,,,,,,2,1,0.816377586719,,,,,,2016_Aug_22_1359,P6,PLC_L_D1S1,NHGX,60.0171793402,
stim/posf.jpg,stim/negf.jpg,stim/2.jpg,stim/4.jpg,stim/latef.jpg,CD,1,2,,,,,,,,,,,,,0,2,2,20,,,,,,2,1,1.41620587136,,,,,,2016_Aug_22_1359,P6,PLC_L_D1S1,NHGX,60.0171793402,
stim/posf.jpg,stim/negf.jpg,stim/4.jpg,stim/2.jpg,stim/latef.jpg,CD,2,4,,,,,,,,,,,,,0,3,3,35,,,,,,4,1,1.24958867682,,,,,,2016_Aug_22_1359,P6,PLC_L_D1S1,NHGX,60.0171793402,
stim/posf.jpg,stim/negf.jpg,stim/1.jpg,stim/3.jpg,stim/latef.jpg,AB,1,2,,,,,,,,,,,,,0,4,4,0,,,,,,2,1,1.39957984534,,,,,,2016_Aug_22_1359,P6,PLC_L_D1S1,NHGX,60.0171793402,
stim/posf.jpg,stim/negf.jpg,stim/5.jpg,stim/6.jpg,stim/latef.jpg,EF,2,4,,,,,,,,,,,,,0,5,5,55,,,,,,4,1,1.01634008639,,,,,,2016_Aug_22_1359,P6,PLC_L_D1S1,NHGX,60.0171793402,
stim/posf.jpg,stim/negf.jpg,stim/5.jpg,stim/6.jpg,stim/latef.jpg,EF,2,4,,,,,,,,,,,,,0,6,6,51,,,,,,4,1,1.2495922437,,,,,,2016_Aug_22_1359,P6,PLC_L_D1S1,NHGX,60.0171793402,
stim/posf.jpg,stim/negf.jpg,stim/4.jpg,stim/2.jpg,stim/latef.jpg,CD,2,4,,,,,,,,,,,,,0,7,7,33,,,,,,4,1,1.28291703778,,,,,,2016_Aug_22_1359,P6,PLC_L_D1S1,NHGX,60.0171793402,
stim/negf.jpg,stim/posf.jpg,stim/4.jpg,stim/2.jpg,stim/latef.jpg,CD,2,4,,,,,,,,,,,,,0,8,8,39,,,,,,4,1,1.33289170122,,,,,,2016_Aug_22_1359,P6,PLC_L_D1S1,NHGX,60.0171793402,
stim/negf.jpg,stim/posf.jpg,stim/1.jpg,stim/3.jpg,stim/latef.jpg,AB,1,2,,,,,,,,,,,,,0,9,9,9,,,,,,4,0,1.58278817908,,,,,,2016_Aug_22_1359,P6,PLC_L_D1S1,NHGX,60.0171793402,
stim/posf.jpg,stim/negf.jpg,stim/6.jpg,stim/5.jpg,stim/latef.jpg,EF,1,2,,,,,,,,,,,,,0,10,10,41,,,,,,None,0,,,,,,,2016_Aug_22_1359,P6,PLC_L_D1S1,NHGX,60.0171793402,
stim/posf.jpg,stim/negf.jpg,stim/1.jpg,stim/3.jpg,stim/latef.jpg,AB,1,2,,,,,,,,,,,,,0,11,11,7,,,,,,2,1,1.14961139536,,,,,,2016_Aug_22_1359,P6,PLC_L_D1S1,NHGX,60.0171793402,
stim/posf.jpg,stim/negf.jpg,stim/4.jpg,stim/2.jpg,stim/latef.jpg,CD,2,4,,,,,,,,,,,,,0,12,12,31,,,,,,2,0,1.46617642658,,,,,,2016_Aug_22_1359,P6,PLC_L_D1S1,NHGX,60.0171793402,
stim/posf.jpg,stim/negf.jpg,stim/5.jpg,stim/6.jpg,stim/latef.jpg,EF,2,4,,,,,,,,,,,,,0,13,13,53,,,,,,4,1,1.11619992256,,,,,,2016_Aug_22_1359,P6,PLC_L_D1S1,NHGX,60.0171793402,
stim/negf.jpg,stim/posf.jpg,stim/6.jpg,stim/5.jpg,stim/latef.jpg,EF,1,2,,,,,,,,,,,,,0,14,14,47,,,,,,4,0,1.21625410841,,,,,,2016_Aug_22_1359,P6,PLC_L_D1S1,NHGX,60.0171793402,
stim/negf.jpg,stim/posf.jpg,stim/5.jpg,stim/6.jpg,stim/latef.jpg,EF,2,4,,,,,,,,,,,,,0,15,15,56,,,,,,2,0,1.18292821359,,,,,,2016_Aug_22_1359,P6,PLC_L_D1S1,NHGX,60.0171793402,
stim/posf.jpg,stim/negf.jpg,stim/6.jpg,stim/5.jpg,stim/latef.jpg,EF,1,2,,,,,,,,,,,,,0,16,16,40,,,,,,2,1,1.26630678301,,,,,,2016_Aug_22_1359,P6,PLC_L_D1S1,NHGX,60.0171793402,
stim/posf.jpg,stim/negf.jpg,stim/3.jpg,stim/1.jpg,stim/latef.jpg,AB,2,4,,,,,,,,,,,,,0,17,17,15,,,,,,2,0,1.53281309459,,,,,,2016_Aug_22_1359,P6,PLC_L_D1S1,NHGX,60.0171793402,
stim/posf.jpg,stim/negf.jpg,stim/1.jpg,stim/3.jpg,stim/latef.jpg,AB,1,2,,,,,,,,,,,,,0,18,18,6,,,,,,2,1,0.849721327955,,,,,,2016_Aug_22_1359,P6,PLC_L_D1S1,NHGX,60.0171793402,
stim/posf.jpg,stim/negf.jpg,stim/3.jpg,stim/1.jpg,stim/latef.jpg,AB,2,4,,,,,,,,,,,,,0,19,19,10,,,,,,4,1,1.13295167348,,,,,,2016_Aug_22_1359,P6,PLC_L_D1S1,NHGX,60.0171793402,
stim/posf.jpg,stim/negf.jpg,stim/2.jpg,stim/4.jpg,stim/latef.jpg,CD,1,2,,,,,,,,,,,,,0,20,20,24,,,,,,2,1,1.61612942711,,,,,,2016_Aug_22_1359,P6,PLC_L_D1S1,NHGX,60.0171793402,
stim/negf.jpg,stim/posf.jpg,stim/5.jpg,stim/6.jpg,stim/latef.jpg,EF,2,4,,,,,,,,,,,,,0,21,21,57,,,,,,4,1,1.38284455739,,,,,,2016_Aug_22_1359,P6,PLC_L_D1S1,NHGX,60.0171793402,
stim/posf.jpg,stim/negf.jpg,stim/4.jpg,stim/2.jpg,stim/latef.jpg,CD,2,4,,,,,,,,,,,,,0,22,22,34,,,,,,None,0,,,,,,,2016_Aug_22_1359,P6,PLC_L_D1S1,NHGX,60.0171793402,
stim/posf.jpg,stim/negf.jpg,stim/6.jpg,stim/5.jpg,stim/latef.jpg,EF,1,2,,,,,,,,,,,,,0,23,23,45,,,,,,2,1,0.949685935873,,,,,,2016_Aug_22_1359,P6,PLC_L_D1S1,NHGX,60.0171793402,
stim/negf.jpg,stim/posf.jpg,stim/6.jpg,stim/5.jpg,stim/latef.jpg,EF,1,2,,,,,,,,,,,,,0,24,24,48,,,,,,4,0,1.11629662523,,,,,,2016_Aug_22_1359,P6,PLC_L_D1S1,NHGX,60.0171793402,
stim/posf.jpg,stim/negf.jpg,stim/2.jpg,stim/4.jpg,stim/latef.jpg,CD,1,2,,,,,,,,,,,,,0,25,25,25,,,,,,2,1,1.04963100717,,,,,,2016_Aug_22_1359,P6,PLC_L_D1S1,NHGX,60.0171793402,
stim/posf.jpg,stim/negf.jpg,stim/6.jpg,stim/5.jpg,stim/latef.jpg,EF,1,2,,,,,,,,,,,,,0,26,26,43,,,,,,4,0,0.899725160994,,,,,,2016_Aug_22_1359,P6,PLC_L_D1S1,NHGX,60.0171793402,
stim/negf.jpg,stim/posf.jpg,stim/2.jpg,stim/4.jpg,stim/latef.jpg,CD,1,2,,,,,,,,,,,,,0,27,27,28,,,,,,2,1,1.13293957737,,,,,,2016_Aug_22_1359,P6,PLC_L_D1S1,NHGX,60.0171793402,
stim/negf.jpg,stim/posf.jpg,stim/6.jpg,stim/5.jpg,stim/latef.jpg,EF,1,2,,,,,,,,,,,,,0,28,28,46,,,,,,4,0,1.21622203359,,,,,,2016_Aug_22_1359,P6,PLC_L_D1S1,NHGX,60.0171793402,
stim/negf.jpg,stim/posf.jpg,stim/6.jpg,stim/5.jpg,stim/latef.jpg,EF,1,2,,,,,,,,,,,,,0,29,29,49,,,,,,4,0,1.04970531911,,,,,,2016_Aug_22_1359,P6,PLC_L_D1S1,NHGX,60.0171793402,
stim/posf.jpg,stim/negf.jpg,stim/3.jpg,stim/1.jpg,stim/latef.jpg,AB,2,4,,,,,,,,,,,,,0,30,30,13,,,,,,4,1,1.06631600395,,,,,,2016_Aug_22_1359,P6,PLC_L_D1S1,NHGX,60.0171793402,
stim/posf.jpg,stim/negf.jpg,stim/3.jpg,stim/1.jpg,stim/latef.jpg,AB,2,4,,,,,,,,,,,,,0,31,31,16,,,,,,4,1,0.466512314523,,,,,,2016_Aug_22_1359,P6,PLC_L_D1S1,NHGX,60.0171793402,
stim/posf.jpg,stim/negf.jpg,stim/4.jpg,stim/2.jpg,stim/latef.jpg,CD,2,4,,,,,,,,,,,,,0,32,32,30,,,,,,4,1,1.06631174536,,,,,,2016_Aug_22_1359,P6,PLC_L_D1S1,NHGX,60.0171793402,
stim/negf.jpg,stim/posf.jpg,stim/1.jpg,stim/3.jpg,stim/latef.jpg,AB,1,2,,,,,,,,,,,,,0,33,33,8,,,,,,2,1,1.13293542103,,,,,,2016_Aug_22_1359,P6,PLC_L_D1S1,NHGX,60.0171793402,
stim/posf.jpg,stim/negf.jpg,stim/3.jpg,stim/1.jpg,stim/latef.jpg,AB,2,4,,,,,,,,,,,,,0,34,34,11,,,,,,2,0,1.31616838607,,,,,,2016_Aug_22_1359,P6,PLC_L_D1S1,NHGX,60.0171793402,
stim/negf.jpg,stim/posf.jpg,stim/2.jpg,stim/4.jpg,stim/latef.jpg,CD,1,2,,,,,,,,,,,,,0,35,35,27,,,,,,2,1,1.18291160325,,,,,,2016_Aug_22_1359,P6,PLC_L_D1S1,NHGX,60.0171793402,
stim/posf.jpg,stim/negf.jpg,stim/4.jpg,stim/2.jpg,stim/latef.jpg,CD,2,4,,,,,,,,,,,,,0,36,36,36,,,,,,None,0,,,,,,,2016_Aug_22_1359,P6,PLC_L_D1S1,NHGX,60.0171793402,
stim/negf.jpg,stim/posf.jpg,stim/5.jpg,stim/6.jpg,stim/latef.jpg,EF,2,4,,,,,,,,,,,,,0,37,37,58,,,,,,4,1,1.23289455833,,,,,,2016_Aug_22_1359,P6,PLC_L_D1S1,NHGX,60.0171793402,
stim/negf.jpg,stim/posf.jpg,stim/4.jpg,stim/2.jpg,stim/latef.jpg,CD,2,4,,,,,,,,,,,,,0,38,38,37,,,,,,4,1,1.56614549761,,,,,,2016_Aug_22_1359,P6,PLC_L_D1S1,NHGX,60.0171793402,
stim/posf.jpg,stim/negf.jpg,stim/6.jpg,stim/5.jpg,stim/latef.jpg,EF,1,2,,,,,,,,,,,,,0,39,39,42,,,,,,2,1,1.18293979842,,,,,,2016_Aug_22_1359,P6,PLC_L_D1S1,NHGX,60.0171793402,
stim/posf.jpg,stim/negf.jpg,stim/1.jpg,stim/3.jpg,stim/latef.jpg,AB,1,2,,,,,,,,,,,,,0,40,40,4,,,,,,4,0,1.1495979098,,,,,,2016_Aug_22_1359,P6,PLC_L_D1S1,NHGX,60.0171793402,
stim/posf.jpg,stim/negf.jpg,stim/2.jpg,stim/4.jpg,stim/latef.jpg,CD,1,2,,,,,,,,,,,,,0,41,41,22,,,,,,2,1,1.5328353199,,,,,,2016_Aug_22_1359,P6,PLC_L_D1S1,NHGX,60.0171793402,
stim/negf.jpg,stim/posf.jpg,stim/5.jpg,stim/6.jpg,stim/latef.jpg,EF,2,4,,,,,,,,,,,,,0,42,42,59,,,,,,2,0,1.13296291846,,,,,,2016_Aug_22_1359,P6,PLC_L_D1S1,NHGX,60.0171793402,
stim/negf.jpg,stim/posf.jpg,stim/3.jpg,stim/1.jpg,stim/latef.jpg,AB,2,4,,,,,,,,,,,,,0,43,43,18,,,,,,4,1,1.13295353812,,,,,,2016_Aug_22_1359,P6,PLC_L_D1S1,NHGX,60.0171793402,
stim/negf.jpg,stim/posf.jpg,stim/4.jpg,stim/2.jpg,stim/latef.jpg,CD,2,4,,,,,,,,,,,,,0,44,44,38,,,,,,4,1,1.03299792559,,,,,,2016_Aug_22_1359,P6,PLC_L_D1S1,NHGX,60.0171793402,
stim/posf.jpg,stim/negf.jpg,stim/4.jpg,stim/2.jpg,stim/latef.jpg,CD,2,4,,,,,,,,,,,,,0,45,45,32,,,,,,2,0,1.13293900294,,,,,,2016_Aug_22_1359,P6,PLC_L_D1S1,NHGX,60.0171793402,
stim/posf.jpg,stim/negf.jpg,stim/3.jpg,stim/1.jpg,stim/latef.jpg,AB,2,4,,,,,,,,,,,,,0,46,46,14,,,,,,4,1,0.999707176235,,,,,,2016_Aug_22_1359,P6,PLC_L_D1S1,NHGX,60.0171793402,
stim/posf.jpg,stim/negf.jpg,stim/5.jpg,stim/6.jpg,stim/latef.jpg,EF,2,4,,,,,,,,,,,,,0,47,47,50,,,,,,4,1,1.28291827987,,,,,,2016_Aug_22_1359,P6,PLC_L_D1S1,NHGX,60.0171793402,
stim/posf.jpg,stim/negf.jpg,stim/1.jpg,stim/3.jpg,stim/latef.jpg,AB,1,2,,,,,,,,,,,,,0,48,48,2,,,,,,2,1,0.999625324527,,,,,,2016_Aug_22_1359,P6,PLC_L_D1S1,NHGX,60.0171793402,
stim/posf.jpg,stim/negf.jpg,stim/2.jpg,stim/4.jpg,stim/latef.jpg,CD,1,2,,,,,,,,,,,,,0,49,49,26,,,,,,2,1,1.18292116705,,,,,,2016_Aug_22_1359,P6,PLC_L_D1S1,NHGX,60.0171793402,
stim/posf.jpg,stim/negf.jpg,stim/1.jpg,stim/3.jpg,stim/latef.jpg,AB,1,2,,,,,,,,,,,,,0,50,50,1,,,,,,4,0,0.949669740567,,,,,,2016_Aug_22_1359,P6,PLC_L_D1S1,NHGX,60.0171793402,
stim/posf.jpg,stim/negf.jpg,stim/3.jpg,stim/1.jpg,stim/latef.jpg,AB,2,4,,,,,,,,,,,,,0,51,51,17,,,,,,4,1,1.38288623512,,,,,,2016_Aug_22_1359,P6,PLC_L_D1S1,NHGX,60.0171793402,
stim/posf.jpg,stim/negf.jpg,stim/1.jpg,stim/3.jpg,stim/latef.jpg,AB,1,2,,,,,,,,,,,,,0,52,52,5,,,,,,2,1,1.23292687376,,,,,,2016_Aug_22_1359,P6,PLC_L_D1S1,NHGX,60.0171793402,
stim/posf.jpg,stim/negf.jpg,stim/6.jpg,stim/5.jpg,stim/latef.jpg,EF,1,2,,,,,,,,,,,,,0,53,53,44,,,,,,2,1,1.14963370188,,,,,,2016_Aug_22_1359,P6,PLC_L_D1S1,NHGX,60.0171793402,
stim/posf.jpg,stim/negf.jpg,stim/2.jpg,stim/4.jpg,stim/latef.jpg,CD,1,2,,,,,,,,,,,,,0,54,54,23,,,,,,2,1,1.06633553757,,,,,,2016_Aug_22_1359,P6,PLC_L_D1S1,NHGX,60.0171793402,
stim/posf.jpg,stim/negf.jpg,stim/5.jpg,stim/6.jpg,stim/latef.jpg,EF,2,4,,,,,,,,,,,,,0,55,55,52,,,,,,4,1,1.06626196847,,,,,,2016_Aug_22_1359,P6,PLC_L_D1S1,NHGX,60.0171793402,
stim/negf.jpg,stim/posf.jpg,stim/2.jpg,stim/4.jpg,stim/latef.jpg,CD,1,2,,,,,,,,,,,,,0,56,56,29,,,,,,2,1,1.11630052894,,,,,,2016_Aug_22_1359,P6,PLC_L_D1S1,NHGX,60.0171793402,
stim/posf.jpg,stim/negf.jpg,stim/5.jpg,stim/6.jpg,stim/latef.jpg,EF,2,4,,,,,,,,,,,,,0,57,57,54,,,,,,4,1,1.28292450236,,,,,,2016_Aug_22_1359,P6,PLC_L_D1S1,NHGX,60.0171793402,
stim/posf.jpg,stim/negf.jpg,stim/2.jpg,stim/4.jpg,stim/latef.jpg,CD,1,2,,,,,,,,,,,,,0,58,58,21,,,,,,4,0,0.999679651733,,,,,,2016_Aug_22_1359,P6,PLC_L_D1S1,NHGX,60.0171793402,
stim/negf.jpg,stim/posf.jpg,stim/3.jpg,stim/1.jpg,stim/latef.jpg,AB,2,4,,,,,,,,,,,,,0,59,59,19,,,,,,2,0,1.46617419503,,,,,,2016_Aug_22_1359,P6,PLC_L_D1S1,NHGX,60.0171793402,
