fb_corr,fb_incorr,symbol2,symbol1,fb_late,pair,position,correct,block_01.thisRepN,block_01.thisTrialN,block_01.thisN,block_01.thisIndex,block_02.thisRepN,block_02.thisTrialN,block_02.thisN,block_02.thisIndex,block_03.thisRepN,block_03.thisTrialN,block_03.thisN,block_03.thisIndex,block_04.thisRepN,block_04.thisTrialN,block_04.thisN,block_04.thisIndex,mouse.x,mouse.y,mouse.leftButton,mouse.midButton,mouse.rightButton,buttonBox_2.keys,buttonBox_2.corr,buttonBox_2.rt,mouse_2.x,mouse_2.y,mouse_2.leftButton,mouse_2.midButton,mouse_2.rightButton,date,Participant,expName,Group,frameRate,
,,,,,,,,,,,,,,,,,,,,,,,,0.9984375,1.0,1,0,0,,,,,,,,,2016_Aug_29_1538,P7,PLC_L_D1S1,NHGX,60.0191832502,
stim/posf.jpg,stim/negf.jpg,stim/2.jpg,stim/5.jpg,stim/latef.jpg,CD,1,2,0,0,0,23,,,,,,,,,,,,,,,,,,4,0,1.06633343208,,,,,,2016_Aug_29_1538,P7,PLC_L_D1S1,NHGX,60.0191832502,
stim/negf.jpg,stim/posf.jpg,stim/4.jpg,stim/1.jpg,stim/latef.jpg,AB,2,4,0,1,1,19,,,,,,,,,,,,,,,,,,4,1,1.48284424027,,,,,,2016_Aug_29_1538,P7,PLC_L_D1S1,NHGX,60.0191832502,
stim/negf.jpg,stim/posf.jpg,stim/3.jpg,stim/6.jpg,stim/latef.jpg,EF,1,2,0,2,2,46,,,,,,,,,,,,,,,,,,None,0,,,,,,,2016_Aug_29_1538,P7,PLC_L_D1S1,NHGX,60.0191832502,
stim/posf.jpg,stim/negf.jpg,stim/4.jpg,stim/1.jpg,stim/latef.jpg,AB,2,4,0,3,3,10,,,,,,,,,,,,,,,,,,2,0,1.48286975587,,,,,,2016_Aug_29_1538,P7,PLC_L_D1S1,NHGX,60.0191832502,
stim/posf.jpg,stim/negf.jpg,stim/4.jpg,stim/1.jpg,stim/latef.jpg,AB,2,4,0,4,4,14,,,,,,,,,,,,,,,,,,4,1,0.933052362012,,,,,,2016_Aug_29_1538,P7,PLC_L_D1S1,NHGX,60.0191832502,
stim/negf.jpg,stim/posf.jpg,stim/6.jpg,stim/3.jpg,stim/latef.jpg,EF,2,4,0,5,5,58,,,,,,,,,,,,,,,,,,None,0,,,,,,,2016_Aug_29_1538,P7,PLC_L_D1S1,NHGX,60.0191832502,
stim/posf.jpg,stim/negf.jpg,stim/5.jpg,stim/2.jpg,stim/latef.jpg,CD,2,4,0,6,6,36,,,,,,,,,,,,,,,,,,2,0,1.46611132849,,,,,,2016_Aug_29_1538,P7,PLC_L_D1S1,NHGX,60.0191832502,
stim/posf.jpg,stim/negf.jpg,stim/3.jpg,stim/6.jpg,stim/latef.jpg,EF,1,2,0,7,7,40,,,,,,,,,,,,,,,,,,None,0,,,,,,,2016_Aug_29_1538,P7,PLC_L_D1S1,NHGX,60.0191832502,
stim/negf.jpg,stim/posf.jpg,stim/1.jpg,stim/4.jpg,stim/latef.jpg,AB,1,2,0,8,8,9,,,,,,,,,,,,,,,,,,4,0,1.16628177833,,,,,,2016_Aug_29_1538,P7,PLC_L_D1S1,NHGX,60.0191832502,
stim/posf.jpg,stim/negf.jpg,stim/2.jpg,stim/5.jpg,stim/latef.jpg,CD,1,2,0,9,9,25,,,,,,,,,,,,,,,,,,None,0,,,,,,,2016_Aug_29_1538,P7,PLC_L_D1S1,NHGX,60.0191832502,
stim/negf.jpg,stim/posf.jpg,stim/2.jpg,stim/5.jpg,stim/latef.jpg,CD,1,2,0,10,10,28,,,,,,,,,,,,,,,,,,4,0,0.883041348561,,,,,,2016_Aug_29_1538,P7,PLC_L_D1S1,NHGX,60.0191832502,
stim/posf.jpg,stim/negf.jpg,stim/4.jpg,stim/1.jpg,stim/latef.jpg,AB,2,4,0,11,11,11,,,,,,,,,,,,,,,,,,4,1,0.733063137871,,,,,,2016_Aug_29_1538,P7,PLC_L_D1S1,NHGX,60.0191832502,
stim/posf.jpg,stim/negf.jpg,stim/2.jpg,stim/5.jpg,stim/latef.jpg,CD,1,2,0,12,12,22,,,,,,,,,,,,,,,,,,4,0,1.28290967136,,,,,,2016_Aug_29_1538,P7,PLC_L_D1S1,NHGX,60.0191832502,
stim/negf.jpg,stim/posf.jpg,stim/3.jpg,stim/6.jpg,stim/latef.jpg,EF,1,2,0,13,13,48,,,,,,,,,,,,,,,,,,2,1,1.34956635815,,,,,,2016_Aug_29_1538,P7,PLC_L_D1S1,NHGX,60.0191832502,
stim/posf.jpg,stim/negf.jpg,stim/6.jpg,stim/3.jpg,stim/latef.jpg,EF,2,4,0,14,14,54,,,,,,,,,,,,,,,,,,2,0,1.61617507538,,,,,,2016_Aug_29_1538,P7,PLC_L_D1S1,NHGX,60.0191832502,
stim/posf.jpg,stim/negf.jpg,stim/1.jpg,stim/4.jpg,stim/latef.jpg,AB,1,2,0,15,15,5,,,,,,,,,,,,,,,,,,2,1,0.833043059827,,,,,,2016_Aug_29_1538,P7,PLC_L_D1S1,NHGX,60.0191832502,
stim/posf.jpg,stim/negf.jpg,stim/5.jpg,stim/2.jpg,stim/latef.jpg,CD,2,4,0,16,16,32,,,,,,,,,,,,,,,,,,2,0,1.49956413862,,,,,,2016_Aug_29_1538,P7,PLC_L_D1S1,NHGX,60.0191832502,
stim/posf.jpg,stim/negf.jpg,stim/6.jpg,stim/3.jpg,stim/latef.jpg,EF,2,4,0,17,17,55,,,,,,,,,,,,,,,,,,4,1,1.29959647221,,,,,,2016_Aug_29_1538,P7,PLC_L_D1S1,NHGX,60.0191832502,
stim/posf.jpg,stim/negf.jpg,stim/1.jpg,stim/4.jpg,stim/latef.jpg,AB,1,2,0,18,18,0,,,,,,,,,,,,,,,,,,2,1,1.13299195645,,,,,,2016_Aug_29_1538,P7,PLC_L_D1S1,NHGX,60.0191832502,
stim/posf.jpg,stim/negf.jpg,stim/4.jpg,stim/1.jpg,stim/latef.jpg,AB,2,4,0,19,19,17,,,,,,,,,,,,,,,,,,4,1,1.01633674935,,,,,,2016_Aug_29_1538,P7,PLC_L_D1S1,NHGX,60.0191832502,
stim/posf.jpg,stim/negf.jpg,stim/5.jpg,stim/2.jpg,stim/latef.jpg,CD,2,4,0,20,20,31,,,,,,,,,,,,,,,,,,4,1,1.13297358967,,,,,,2016_Aug_29_1538,P7,PLC_L_D1S1,NHGX,60.0191832502,
stim/negf.jpg,stim/posf.jpg,stim/5.jpg,stim/2.jpg,stim/latef.jpg,CD,2,4,0,21,21,39,,,,,,,,,,,,,,,,,,4,1,1.24963018323,,,,,,2016_Aug_29_1538,P7,PLC_L_D1S1,NHGX,60.0191832502,
stim/posf.jpg,stim/negf.jpg,stim/1.jpg,stim/4.jpg,stim/latef.jpg,AB,1,2,0,22,22,3,,,,,,,,,,,,,,,,,,2,1,1.03294973121,,,,,,2016_Aug_29_1538,P7,PLC_L_D1S1,NHGX,60.0191832502,
stim/posf.jpg,stim/negf.jpg,stim/5.jpg,stim/2.jpg,stim/latef.jpg,CD,2,4,0,23,23,33,,,,,,,,,,,,,,,,,,4,1,1.08296715965,,,,,,2016_Aug_29_1538,P7,PLC_L_D1S1,NHGX,60.0191832502,
stim/negf.jpg,stim/posf.jpg,stim/6.jpg,stim/3.jpg,stim/latef.jpg,EF,2,4,0,24,24,56,,,,,,,,,,,,,,,,,,4,1,1.61617361975,,,,,,2016_Aug_29_1538,P7,PLC_L_D1S1,NHGX,60.0191832502,
stim/posf.jpg,stim/negf.jpg,stim/2.jpg,stim/5.jpg,stim/latef.jpg,CD,1,2,0,25,25,21,,,,,,,,,,,,,,,,,,2,1,1.34955938376,,,,,,2016_Aug_29_1538,P7,PLC_L_D1S1,NHGX,60.0191832502,
stim/negf.jpg,stim/posf.jpg,stim/2.jpg,stim/5.jpg,stim/latef.jpg,CD,1,2,0,26,26,29,,,,,,,,,,,,,,,,,,2,1,0.982991183525,,,,,,2016_Aug_29_1538,P7,PLC_L_D1S1,NHGX,60.0191832502,
stim/posf.jpg,stim/negf.jpg,stim/3.jpg,stim/6.jpg,stim/latef.jpg,EF,1,2,0,27,27,42,,,,,,,,,,,,,,,,,,2,1,1.34953626213,,,,,,2016_Aug_29_1538,P7,PLC_L_D1S1,NHGX,60.0191832502,
stim/negf.jpg,stim/posf.jpg,stim/4.jpg,stim/1.jpg,stim/latef.jpg,AB,2,4,0,28,28,18,,,,,,,,,,,,,,,,,,4,1,1.06631820212,,,,,,2016_Aug_29_1538,P7,PLC_L_D1S1,NHGX,60.0191832502,
stim/negf.jpg,stim/posf.jpg,stim/2.jpg,stim/5.jpg,stim/latef.jpg,CD,1,2,0,29,29,27,,,,,,,,,,,,,,,,,,2,1,0.982998094751,,,,,,2016_Aug_29_1538,P7,PLC_L_D1S1,NHGX,60.0191832502,
stim/posf.jpg,stim/negf.jpg,stim/1.jpg,stim/4.jpg,stim/latef.jpg,AB,1,2,0,30,30,1,,,,,,,,,,,,,,,,,,2,1,1.01632074646,,,,,,2016_Aug_29_1538,P7,PLC_L_D1S1,NHGX,60.0191832502,
stim/posf.jpg,stim/negf.jpg,stim/6.jpg,stim/3.jpg,stim/latef.jpg,EF,2,4,0,31,31,53,,,,,,,,,,,,,,,,,,4,1,1.26625614243,,,,,,2016_Aug_29_1538,P7,PLC_L_D1S1,NHGX,60.0191832502,
stim/posf.jpg,stim/negf.jpg,stim/4.jpg,stim/1.jpg,stim/latef.jpg,AB,2,4,0,32,32,15,,,,,,,,,,,,,,,,,,4,1,1.03300530071,,,,,,2016_Aug_29_1538,P7,PLC_L_D1S1,NHGX,60.0191832502,
stim/negf.jpg,stim/posf.jpg,stim/5.jpg,stim/2.jpg,stim/latef.jpg,CD,2,4,0,33,33,37,,,,,,,,,,,,,,,,,,4,1,0.999661593522,,,,,,2016_Aug_29_1538,P7,PLC_L_D1S1,NHGX,60.0191832502,
stim/posf.jpg,stim/negf.jpg,stim/2.jpg,stim/5.jpg,stim/latef.jpg,CD,1,2,0,34,34,26,,,,,,,,,,,,,,,,,,2,1,0.849732991481,,,,,,2016_Aug_29_1538,P7,PLC_L_D1S1,NHGX,60.0191832502,
stim/negf.jpg,stim/posf.jpg,stim/3.jpg,stim/6.jpg,stim/latef.jpg,EF,1,2,0,35,35,49,,,,,,,,,,,,,,,,,,2,1,1.06626611529,,,,,,2016_Aug_29_1538,P7,PLC_L_D1S1,NHGX,60.0191832502,
stim/posf.jpg,stim/negf.jpg,stim/1.jpg,stim/4.jpg,stim/latef.jpg,AB,1,2,0,36,36,2,,,,,,,,,,,,,,,,,,2,1,0.86638834896,,,,,,2016_Aug_29_1538,P7,PLC_L_D1S1,NHGX,60.0191832502,
stim/posf.jpg,stim/negf.jpg,stim/6.jpg,stim/3.jpg,stim/latef.jpg,EF,2,4,0,37,37,51,,,,,,,,,,,,,,,,,,4,1,1.11630190149,,,,,,2016_Aug_29_1538,P7,PLC_L_D1S1,NHGX,60.0191832502,
stim/posf.jpg,stim/negf.jpg,stim/6.jpg,stim/3.jpg,stim/latef.jpg,EF,2,4,0,38,38,50,,,,,,,,,,,,,,,,,,4,1,0.916378776099,,,,,,2016_Aug_29_1538,P7,PLC_L_D1S1,NHGX,60.0191832502,
stim/negf.jpg,stim/posf.jpg,stim/5.jpg,stim/2.jpg,stim/latef.jpg,CD,2,4,0,39,39,38,,,,,,,,,,,,,,,,,,4,1,0.849729779476,,,,,,2016_Aug_29_1538,P7,PLC_L_D1S1,NHGX,60.0191832502,
stim/posf.jpg,stim/negf.jpg,stim/1.jpg,stim/4.jpg,stim/latef.jpg,AB,1,2,0,40,40,6,,,,,,,,,,,,,,,,,,2,1,1.63281400591,,,,,,2016_Aug_29_1538,P7,PLC_L_D1S1,NHGX,60.0191832502,
stim/posf.jpg,stim/negf.jpg,stim/5.jpg,stim/2.jpg,stim/latef.jpg,CD,2,4,0,41,41,34,,,,,,,,,,,,,,,,,,4,1,1.03298681063,,,,,,2016_Aug_29_1538,P7,PLC_L_D1S1,NHGX,60.0191832502,
stim/posf.jpg,stim/negf.jpg,stim/5.jpg,stim/2.jpg,stim/latef.jpg,CD,2,4,0,42,42,35,,,,,,,,,,,,,,,,,,4,1,0.683134292224,,,,,,2016_Aug_29_1538,P7,PLC_L_D1S1,NHGX,60.0191832502,
stim/negf.jpg,stim/posf.jpg,stim/1.jpg,stim/4.jpg,stim/latef.jpg,AB,1,2,0,43,43,8,,,,,,,,,,,,,,,,,,2,1,0.766416514162,,,,,,2016_Aug_29_1538,P7,PLC_L_D1S1,NHGX,60.0191832502,
stim/posf.jpg,stim/negf.jpg,stim/3.jpg,stim/6.jpg,stim/latef.jpg,EF,1,2,0,44,44,43,,,,,,,,,,,,,,,,,,4,0,0.866385245224,,,,,,2016_Aug_29_1538,P7,PLC_L_D1S1,NHGX,60.0191832502,
stim/negf.jpg,stim/posf.jpg,stim/3.jpg,stim/6.jpg,stim/latef.jpg,EF,1,2,0,45,45,47,,,,,,,,,,,,,,,,,,2,1,0.949685142217,,,,,,2016_Aug_29_1538,P7,PLC_L_D1S1,NHGX,60.0191832502,
stim/posf.jpg,stim/negf.jpg,stim/2.jpg,stim/5.jpg,stim/latef.jpg,CD,1,2,0,46,46,24,,,,,,,,,,,,,,,,,,2,1,0.81640753077,,,,,,2016_Aug_29_1538,P7,PLC_L_D1S1,NHGX,60.0191832502,
stim/posf.jpg,stim/negf.jpg,stim/6.jpg,stim/3.jpg,stim/latef.jpg,EF,2,4,0,47,47,52,,,,,,,,,,,,,,,,,,4,1,0.949673665611,,,,,,2016_Aug_29_1538,P7,PLC_L_D1S1,NHGX,60.0191832502,
stim/posf.jpg,stim/negf.jpg,stim/1.jpg,stim/4.jpg,stim/latef.jpg,AB,1,2,0,48,48,4,,,,,,,,,,,,,,,,,,2,1,0.616457136412,,,,,,2016_Aug_29_1538,P7,PLC_L_D1S1,NHGX,60.0191832502,
stim/negf.jpg,stim/posf.jpg,stim/6.jpg,stim/3.jpg,stim/latef.jpg,EF,2,4,0,49,49,59,,,,,,,,,,,,,,,,,,4,1,0.683105026278,,,,,,2016_Aug_29_1538,P7,PLC_L_D1S1,NHGX,60.0191832502,
stim/posf.jpg,stim/negf.jpg,stim/3.jpg,stim/6.jpg,stim/latef.jpg,EF,1,2,0,50,50,41,,,,,,,,,,,,,,,,,,2,1,1.06635375674,,,,,,2016_Aug_29_1538,P7,PLC_L_D1S1,NHGX,60.0191832502,
stim/posf.jpg,stim/negf.jpg,stim/4.jpg,stim/1.jpg,stim/latef.jpg,AB,2,4,0,51,51,16,,,,,,,,,,,,,,,,,,4,1,0.833061604048,,,,,,2016_Aug_29_1538,P7,PLC_L_D1S1,NHGX,60.0191832502,
stim/posf.jpg,stim/negf.jpg,stim/2.jpg,stim/5.jpg,stim/latef.jpg,CD,1,2,0,52,52,20,,,,,,,,,,,,,,,,,,2,1,0.64980069022,,,,,,2016_Aug_29_1538,P7,PLC_L_D1S1,NHGX,60.0191832502,
stim/posf.jpg,stim/negf.jpg,stim/3.jpg,stim/6.jpg,stim/latef.jpg,EF,1,2,0,53,53,45,,,,,,,,,,,,,,,,,,4,0,1.28290532853,,,,,,2016_Aug_29_1538,P7,PLC_L_D1S1,NHGX,60.0191832502,
stim/posf.jpg,stim/negf.jpg,stim/4.jpg,stim/1.jpg,stim/latef.jpg,AB,2,4,0,54,54,12,,,,,,,,,,,,,,,,,,4,1,1.01632887272,,,,,,2016_Aug_29_1538,P7,PLC_L_D1S1,NHGX,60.0191832502,
stim/posf.jpg,stim/negf.jpg,stim/4.jpg,stim/1.jpg,stim/latef.jpg,AB,2,4,0,55,55,13,,,,,,,,,,,,,,,,,,4,1,0.666490480522,,,,,,2016_Aug_29_1538,P7,PLC_L_D1S1,NHGX,60.0191832502,
stim/posf.jpg,stim/negf.jpg,stim/5.jpg,stim/2.jpg,stim/latef.jpg,CD,2,4,0,56,56,30,,,,,,,,,,,,,,,,,,4,1,0.56640596988,,,,,,2016_Aug_29_1538,P7,PLC_L_D1S1,NHGX,60.0191832502,
stim/negf.jpg,stim/posf.jpg,stim/6.jpg,stim/3.jpg,stim/latef.jpg,EF,2,4,0,57,57,57,,,,,,,,,,,,,,,,,,4,1,1.06638375351,,,,,,2016_Aug_29_1538,P7,PLC_L_D1S1,NHGX,60.0191832502,
stim/posf.jpg,stim/negf.jpg,stim/3.jpg,stim/6.jpg,stim/latef.jpg,EF,1,2,0,58,58,44,,,,,,,,,,,,,,,,,,2,1,1.03300708115,,,,,,2016_Aug_29_1538,P7,PLC_L_D1S1,NHGX,60.0191832502,
stim/posf.jpg,stim/negf.jpg,stim/1.jpg,stim/4.jpg,stim/latef.jpg,AB,1,2,0,59,59,7,,,,,,,,,,,,,,,,,,2,1,0.84970350298,,,,,,2016_Aug_29_1538,P7,PLC_L_D1S1,NHGX,60.0191832502,
,,,,,,,,,,,,,,,,,,,,,,,,,,,,,,,,0.3796875,0.09765625,1,0,0,2016_Aug_29_1538,P7,PLC_L_D1S1,NHGX,60.0191832502,
stim/posf.jpg,stim/negf.jpg,stim/3.jpg,stim/6.jpg,stim/latef.jpg,EF,1,2,,,,,0,0,0,42,,,,,,,,,,,,,,2,1,1.03296570402,,,,,,2016_Aug_29_1538,P7,PLC_L_D1S1,NHGX,60.0191832502,
stim/posf.jpg,stim/negf.jpg,stim/4.jpg,stim/1.jpg,stim/latef.jpg,AB,2,4,,,,,0,1,1,10,,,,,,,,,,,,,,4,1,0.583137723776,,,,,,2016_Aug_29_1538,P7,PLC_L_D1S1,NHGX,60.0191832502,
stim/posf.jpg,stim/negf.jpg,stim/5.jpg,stim/2.jpg,stim/latef.jpg,CD,2,4,,,,,0,2,2,32,,,,,,,,,,,,,,4,1,1.18291017662,,,,,,2016_Aug_29_1538,P7,PLC_L_D1S1,NHGX,60.0191832502,
stim/posf.jpg,stim/negf.jpg,stim/6.jpg,stim/3.jpg,stim/latef.jpg,EF,2,4,,,,,0,3,3,51,,,,,,,,,,,,,,4,1,0.799703033811,,,,,,2016_Aug_29_1538,P7,PLC_L_D1S1,NHGX,60.0191832502,
stim/negf.jpg,stim/posf.jpg,stim/3.jpg,stim/6.jpg,stim/latef.jpg,EF,1,2,,,,,0,4,4,46,,,,,,,,,,,,,,2,1,0.899710889392,,,,,,2016_Aug_29_1538,P7,PLC_L_D1S1,NHGX,60.0191832502,
stim/negf.jpg,stim/posf.jpg,stim/4.jpg,stim/1.jpg,stim/latef.jpg,AB,2,4,,,,,0,5,5,18,,,,,,,,,,,,,,4,1,0.599847486861,,,,,,2016_Aug_29_1538,P7,PLC_L_D1S1,NHGX,60.0191832502,
stim/posf.jpg,stim/negf.jpg,stim/3.jpg,stim/6.jpg,stim/latef.jpg,EF,1,2,,,,,0,6,6,44,,,,,,,,,,,,,,2,1,0.733069724288,,,,,,2016_Aug_29_1538,P7,PLC_L_D1S1,NHGX,60.0191832502,
stim/posf.jpg,stim/negf.jpg,stim/1.jpg,stim/4.jpg,stim/latef.jpg,AB,1,2,,,,,0,7,7,5,,,,,,,,,,,,,,2,1,0.883052049233,,,,,,2016_Aug_29_1538,P7,PLC_L_D1S1,NHGX,60.0191832502,
stim/posf.jpg,stim/negf.jpg,stim/2.jpg,stim/5.jpg,stim/latef.jpg,CD,1,2,,,,,0,8,8,24,,,,,,,,,,,,,,2,1,0.883054103352,,,,,,2016_Aug_29_1538,P7,PLC_L_D1S1,NHGX,60.0191832502,
stim/negf.jpg,stim/posf.jpg,stim/5.jpg,stim/2.jpg,stim/latef.jpg,CD,2,4,,,,,0,9,9,39,,,,,,,,,,,,,,4,1,0.833047474831,,,,,,2016_Aug_29_1538,P7,PLC_L_D1S1,NHGX,60.0191832502,
stim/posf.jpg,stim/negf.jpg,stim/5.jpg,stim/2.jpg,stim/latef.jpg,CD,2,4,,,,,0,10,10,33,,,,,,,,,,,,,,4,1,0.749746119202,,,,,,2016_Aug_29_1538,P7,PLC_L_D1S1,NHGX,60.0191832502,
stim/posf.jpg,stim/negf.jpg,stim/5.jpg,stim/2.jpg,stim/latef.jpg,CD,2,4,,,,,0,11,11,30,,,,,,,,,,,,,,4,1,0.716424694551,,,,,,2016_Aug_29_1538,P7,PLC_L_D1S1,NHGX,60.0191832502,
stim/negf.jpg,stim/posf.jpg,stim/6.jpg,stim/3.jpg,stim/latef.jpg,EF,2,4,,,,,0,12,12,58,,,,,,,,,,,,,,4,1,0.782113000654,,,,,,2016_Aug_29_1538,P7,PLC_L_D1S1,NHGX,60.0191832502,
stim/posf.jpg,stim/negf.jpg,stim/6.jpg,stim/3.jpg,stim/latef.jpg,EF,2,4,,,,,0,13,13,53,,,,,,,,,,,,,,4,1,0.949689885038,,,,,,2016_Aug_29_1538,P7,PLC_L_D1S1,NHGX,60.0191832502,
stim/negf.jpg,stim/posf.jpg,stim/5.jpg,stim/2.jpg,stim/latef.jpg,CD,2,4,,,,,0,14,14,38,,,,,,,,,,,,,,4,1,0.699785376049,,,,,,2016_Aug_29_1538,P7,PLC_L_D1S1,NHGX,60.0191832502,
stim/posf.jpg,stim/negf.jpg,stim/6.jpg,stim/3.jpg,stim/latef.jpg,EF,2,4,,,,,0,15,15,52,,,,,,,,,,,,,,4,1,0.949686805363,,,,,,2016_Aug_29_1538,P7,PLC_L_D1S1,NHGX,60.0191832502,
stim/posf.jpg,stim/negf.jpg,stim/2.jpg,stim/5.jpg,stim/latef.jpg,CD,1,2,,,,,0,16,16,20,,,,,,,,,,,,,,2,1,0.683107769115,,,,,,2016_Aug_29_1538,P7,PLC_L_D1S1,NHGX,60.0191832502,
stim/posf.jpg,stim/negf.jpg,stim/4.jpg,stim/1.jpg,stim/latef.jpg,AB,2,4,,,,,0,17,17,13,,,,,,,,,,,,,,4,1,0.833048683844,,,,,,2016_Aug_29_1538,P7,PLC_L_D1S1,NHGX,60.0191832502,
stim/negf.jpg,stim/posf.jpg,stim/6.jpg,stim/3.jpg,stim/latef.jpg,EF,2,4,,,,,0,18,18,56,,,,,,,,,,,,,,4,1,0.849695812813,,,,,,2016_Aug_29_1538,P7,PLC_L_D1S1,NHGX,60.0191832502,
stim/posf.jpg,stim/negf.jpg,stim/6.jpg,stim/3.jpg,stim/latef.jpg,EF,2,4,,,,,0,19,19,54,,,,,,,,,,,,,,4,1,0.716425013346,,,,,,2016_Aug_29_1538,P7,PLC_L_D1S1,NHGX,60.0191832502,
stim/posf.jpg,stim/negf.jpg,stim/5.jpg,stim/2.jpg,stim/latef.jpg,CD,2,4,,,,,0,20,20,31,,,,,,,,,,,,,,4,1,0.733122478779,,,,,,2016_Aug_29_1538,P7,PLC_L_D1S1,NHGX,60.0191832502,
stim/posf.jpg,stim/negf.jpg,stim/2.jpg,stim/5.jpg,stim/latef.jpg,CD,1,2,,,,,0,21,21,25,,,,,,,,,,,,,,2,1,0.799788515876,,,,,,2016_Aug_29_1538,P7,PLC_L_D1S1,NHGX,60.0191832502,
stim/posf.jpg,stim/negf.jpg,stim/4.jpg,stim/1.jpg,stim/latef.jpg,AB,2,4,,,,,0,22,22,14,,,,,,,,,,,,,,4,1,0.633114220194,,,,,,2016_Aug_29_1538,P7,PLC_L_D1S1,NHGX,60.0191832502,
stim/posf.jpg,stim/negf.jpg,stim/6.jpg,stim/3.jpg,stim/latef.jpg,EF,2,4,,,,,0,23,23,50,,,,,,,,,,,,,,4,1,0.716405951835,,,,,,2016_Aug_29_1538,P7,PLC_L_D1S1,NHGX,60.0191832502,
stim/posf.jpg,stim/negf.jpg,stim/4.jpg,stim/1.jpg,stim/latef.jpg,AB,2,4,,,,,0,24,24,16,,,,,,,,,,,,,,4,1,0.56648106706,,,,,,2016_Aug_29_1538,P7,PLC_L_D1S1,NHGX,60.0191832502,
stim/posf.jpg,stim/negf.jpg,stim/1.jpg,stim/4.jpg,stim/latef.jpg,AB,1,2,,,,,0,25,25,2,,,,,,,,,,,,,,2,1,0.616455725896,,,,,,2016_Aug_29_1538,P7,PLC_L_D1S1,NHGX,60.0191832502,
stim/negf.jpg,stim/posf.jpg,stim/5.jpg,stim/2.jpg,stim/latef.jpg,CD,2,4,,,,,0,26,26,37,,,,,,,,,,,,,,4,1,0.616442077879,,,,,,2016_Aug_29_1538,P7,PLC_L_D1S1,NHGX,60.0191832502,
stim/negf.jpg,stim/posf.jpg,stim/3.jpg,stim/6.jpg,stim/latef.jpg,EF,1,2,,,,,0,27,27,48,,,,,,,,,,,,,,2,1,1.13289895865,,,,,,2016_Aug_29_1538,P7,PLC_L_D1S1,NHGX,60.0191832502,
stim/posf.jpg,stim/negf.jpg,stim/1.jpg,stim/4.jpg,stim/latef.jpg,AB,1,2,,,,,0,28,28,0,,,,,,,,,,,,,,2,1,0.7997414245,,,,,,2016_Aug_29_1538,P7,PLC_L_D1S1,NHGX,60.0191832502,
stim/posf.jpg,stim/negf.jpg,stim/3.jpg,stim/6.jpg,stim/latef.jpg,EF,1,2,,,,,0,29,29,41,,,,,,,,,,,,,,2,1,0.783073748317,,,,,,2016_Aug_29_1538,P7,PLC_L_D1S1,NHGX,60.0191832502,
stim/negf.jpg,stim/posf.jpg,stim/2.jpg,stim/5.jpg,stim/latef.jpg,CD,1,2,,,,,0,30,30,29,,,,,,,,,,,,,,2,1,0.6498169307,,,,,,2016_Aug_29_1538,P7,PLC_L_D1S1,NHGX,60.0191832502,
stim/posf.jpg,stim/negf.jpg,stim/2.jpg,stim/5.jpg,stim/latef.jpg,CD,1,2,,,,,0,31,31,22,,,,,,,,,,,,,,2,1,0.533112641258,,,,,,2016_Aug_29_1538,P7,PLC_L_D1S1,NHGX,60.0191832502,
stim/posf.jpg,stim/negf.jpg,stim/6.jpg,stim/3.jpg,stim/latef.jpg,EF,2,4,,,,,0,32,32,55,,,,,,,,,,,,,,4,1,0.649755649958,,,,,,2016_Aug_29_1538,P7,PLC_L_D1S1,NHGX,60.0191832502,
stim/posf.jpg,stim/negf.jpg,stim/4.jpg,stim/1.jpg,stim/latef.jpg,AB,2,4,,,,,0,33,33,11,,,,,,,,,,,,,,4,1,0.649760783754,,,,,,2016_Aug_29_1538,P7,PLC_L_D1S1,NHGX,60.0191832502,
stim/negf.jpg,stim/posf.jpg,stim/3.jpg,stim/6.jpg,stim/latef.jpg,EF,1,2,,,,,0,34,34,47,,,,,,,,,,,,,,2,1,0.866387828662,,,,,,2016_Aug_29_1538,P7,PLC_L_D1S1,NHGX,60.0191832502,
stim/posf.jpg,stim/negf.jpg,stim/5.jpg,stim/2.jpg,stim/latef.jpg,CD,2,4,,,,,0,35,35,35,,,,,,,,,,,,,,4,1,0.916353591327,,,,,,2016_Aug_29_1538,P7,PLC_L_D1S1,NHGX,60.0191832502,
stim/posf.jpg,stim/negf.jpg,stim/3.jpg,stim/6.jpg,stim/latef.jpg,EF,1,2,,,,,0,36,36,45,,,,,,,,,,,,,,2,1,0.716404117262,,,,,,2016_Aug_29_1538,P7,PLC_L_D1S1,NHGX,60.0191832502,
stim/posf.jpg,stim/negf.jpg,stim/5.jpg,stim/2.jpg,stim/latef.jpg,CD,2,4,,,,,0,37,37,34,,,,,,,,,,,,,,4,1,0.749752098105,,,,,,2016_Aug_29_1538,P7,PLC_L_D1S1,NHGX,60.0191832502,
stim/posf.jpg,stim/negf.jpg,stim/4.jpg,stim/1.jpg,stim/latef.jpg,AB,2,4,,,,,0,38,38,12,,,,,,,,,,,,,,4,1,0.7164431696,,,,,,2016_Aug_29_1538,P7,PLC_L_D1S1,NHGX,60.0191832502,
stim/negf.jpg,stim/posf.jpg,stim/2.jpg,stim/5.jpg,stim/latef.jpg,CD,1,2,,,,,0,39,39,28,,,,,,,,,,,,,,2,1,0.599803986436,,,,,,2016_Aug_29_1538,P7,PLC_L_D1S1,NHGX,60.0191832502,
stim/posf.jpg,stim/negf.jpg,stim/1.jpg,stim/4.jpg,stim/latef.jpg,AB,1,2,,,,,0,40,40,3,,,,,,,,,,,,,,2,1,0.716404505229,,,,,,2016_Aug_29_1538,P7,PLC_L_D1S1,NHGX,60.0191832502,
stim/negf.jpg,stim/posf.jpg,stim/6.jpg,stim/3.jpg,stim/latef.jpg,EF,2,4,,,,,0,41,41,59,,,,,,,,,,,,,,4,1,0.799746810926,,,,,,2016_Aug_29_1538,P7,PLC_L_D1S1,NHGX,60.0191832502,
stim/posf.jpg,stim/negf.jpg,stim/4.jpg,stim/1.jpg,stim/latef.jpg,AB,2,4,,,,,0,42,42,17,,,,,,,,,,,,,,4,1,0.549818344223,,,,,,2016_Aug_29_1538,P7,PLC_L_D1S1,NHGX,60.0191832502,
stim/posf.jpg,stim/negf.jpg,stim/3.jpg,stim/6.jpg,stim/latef.jpg,EF,1,2,,,,,0,43,43,43,,,,,,,,,,,,,,2,1,0.633062807047,,,,,,2016_Aug_29_1538,P7,PLC_L_D1S1,NHGX,60.0191832502,
stim/negf.jpg,stim/posf.jpg,stim/4.jpg,stim/1.jpg,stim/latef.jpg,AB,2,4,,,,,0,44,44,19,,,,,,,,,,,,,,4,1,0.516498113548,,,,,,2016_Aug_29_1538,P7,PLC_L_D1S1,NHGX,60.0191832502,
stim/posf.jpg,stim/negf.jpg,stim/1.jpg,stim/4.jpg,stim/latef.jpg,AB,1,2,,,,,0,45,45,4,,,,,,,,,,,,,,2,1,0.616477172352,,,,,,2016_Aug_29_1538,P7,PLC_L_D1S1,NHGX,60.0191832502,
stim/negf.jpg,stim/posf.jpg,stim/2.jpg,stim/5.jpg,stim/latef.jpg,CD,1,2,,,,,0,46,46,27,,,,,,,,,,,,,,2,1,0.833019222412,,,,,,2016_Aug_29_1538,P7,PLC_L_D1S1,NHGX,60.0191832502,
stim/posf.jpg,stim/negf.jpg,stim/2.jpg,stim/5.jpg,stim/latef.jpg,CD,1,2,,,,,0,47,47,26,,,,,,,,,,,,,,2,1,0.699775231765,,,,,,2016_Aug_29_1538,P7,PLC_L_D1S1,NHGX,60.0191832502,
stim/posf.jpg,stim/negf.jpg,stim/4.jpg,stim/1.jpg,stim/latef.jpg,AB,2,4,,,,,0,48,48,15,,,,,,,,,,,,,,4,1,0.549802566898,,,,,,2016_Aug_29_1538,P7,PLC_L_D1S1,NHGX,60.0191832502,
stim/negf.jpg,stim/posf.jpg,stim/1.jpg,stim/4.jpg,stim/latef.jpg,AB,1,2,,,,,0,49,49,9,,,,,,,,,,,,,,2,1,0.666462011564,,,,,,2016_Aug_29_1538,P7,PLC_L_D1S1,NHGX,60.0191832502,
stim/posf.jpg,stim/negf.jpg,stim/1.jpg,stim/4.jpg,stim/latef.jpg,AB,1,2,,,,,0,50,50,7,,,,,,,,,,,,,,2,1,0.683114157036,,,,,,2016_Aug_29_1538,P7,PLC_L_D1S1,NHGX,60.0191832502,
stim/negf.jpg,stim/posf.jpg,stim/1.jpg,stim/4.jpg,stim/latef.jpg,AB,1,2,,,,,0,51,51,8,,,,,,,,,,,,,,2,1,0.566442553063,,,,,,2016_Aug_29_1538,P7,PLC_L_D1S1,NHGX,60.0191832502,
stim/negf.jpg,stim/posf.jpg,stim/3.jpg,stim/6.jpg,stim/latef.jpg,EF,1,2,,,,,0,52,52,49,,,,,,,,,,,,,,2,1,1.09968900685,,,,,,2016_Aug_29_1538,P7,PLC_L_D1S1,NHGX,60.0191832502,
stim/posf.jpg,stim/negf.jpg,stim/2.jpg,stim/5.jpg,stim/latef.jpg,CD,1,2,,,,,0,53,53,23,,,,,,,,,,,,,,2,1,0.616460952925,,,,,,2016_Aug_29_1538,P7,PLC_L_D1S1,NHGX,60.0191832502,
stim/posf.jpg,stim/negf.jpg,stim/2.jpg,stim/5.jpg,stim/latef.jpg,CD,1,2,,,,,0,54,54,21,,,,,,,,,,,,,,2,1,0.599796609048,,,,,,2016_Aug_29_1538,P7,PLC_L_D1S1,NHGX,60.0191832502,
stim/negf.jpg,stim/posf.jpg,stim/6.jpg,stim/3.jpg,stim/latef.jpg,EF,2,4,,,,,0,55,55,57,,,,,,,,,,,,,,4,1,0.716431103526,,,,,,2016_Aug_29_1538,P7,PLC_L_D1S1,NHGX,60.0191832502,
stim/posf.jpg,stim/negf.jpg,stim/1.jpg,stim/4.jpg,stim/latef.jpg,AB,1,2,,,,,0,56,56,6,,,,,,,,,,,,,,2,1,0.616471686679,,,,,,2016_Aug_29_1538,P7,PLC_L_D1S1,NHGX,60.0191832502,
stim/posf.jpg,stim/negf.jpg,stim/5.jpg,stim/2.jpg,stim/latef.jpg,CD,2,4,,,,,0,57,57,36,,,,,,,,,,,,,,4,1,0.699806608973,,,,,,2016_Aug_29_1538,P7,PLC_L_D1S1,NHGX,60.0191832502,
stim/posf.jpg,stim/negf.jpg,stim/3.jpg,stim/6.jpg,stim/latef.jpg,EF,1,2,,,,,0,58,58,40,,,,,,,,,,,,,,2,1,0.766428159187,,,,,,2016_Aug_29_1538,P7,PLC_L_D1S1,NHGX,60.0191832502,
stim/posf.jpg,stim/negf.jpg,stim/1.jpg,stim/4.jpg,stim/latef.jpg,AB,1,2,,,,,0,59,59,1,,,,,,,,,,,,,,2,1,0.666428303547,,,,,,2016_Aug_29_1538,P7,PLC_L_D1S1,NHGX,60.0191832502,
,,,,,,,,,,,,,,,,,,,,,,,,,,,,,,,,0.2453125,0.12109375,1,0,0,2016_Aug_29_1538,P7,PLC_L_D1S1,NHGX,60.0191832502,
stim/posf.jpg,stim/negf.jpg,stim/1.jpg,stim/4.jpg,stim/latef.jpg,AB,1,2,,,,,,,,,0,0,0,7,,,,,,,,,,2,1,0.766425193796,,,,,,2016_Aug_29_1538,P7,PLC_L_D1S1,NHGX,60.0191832502,
stim/posf.jpg,stim/negf.jpg,stim/5.jpg,stim/2.jpg,stim/latef.jpg,CD,2,4,,,,,,,,,0,1,1,35,,,,,,,,,,4,1,0.666397230097,,,,,,2016_Aug_29_1538,P7,PLC_L_D1S1,NHGX,60.0191832502,
stim/posf.jpg,stim/negf.jpg,stim/5.jpg,stim/2.jpg,stim/latef.jpg,CD,2,4,,,,,,,,,0,2,2,36,,,,,,,,,,4,1,0.749718552493,,,,,,2016_Aug_29_1538,P7,PLC_L_D1S1,NHGX,60.0191832502,
stim/posf.jpg,stim/negf.jpg,stim/4.jpg,stim/1.jpg,stim/latef.jpg,AB,2,4,,,,,,,,,0,3,3,16,,,,,,,,,,4,1,0.649924226133,,,,,,2016_Aug_29_1538,P7,PLC_L_D1S1,NHGX,60.0191832502,
stim/posf.jpg,stim/negf.jpg,stim/4.jpg,stim/1.jpg,stim/latef.jpg,AB,2,4,,,,,,,,,0,4,4,15,,,,,,,,,,4,1,0.599796425591,,,,,,2016_Aug_29_1538,P7,PLC_L_D1S1,NHGX,60.0191832502,
stim/negf.jpg,stim/posf.jpg,stim/6.jpg,stim/3.jpg,stim/latef.jpg,EF,2,4,,,,,,,,,0,5,5,56,,,,,,,,,,4,1,1.09960900444,,,,,,2016_Aug_29_1538,P7,PLC_L_D1S1,NHGX,60.0191832502,
stim/posf.jpg,stim/negf.jpg,stim/4.jpg,stim/1.jpg,stim/latef.jpg,AB,2,4,,,,,,,,,0,6,6,12,,,,,,,,,,4,1,0.666437942572,,,,,,2016_Aug_29_1538,P7,PLC_L_D1S1,NHGX,60.0191832502,
stim/posf.jpg,stim/negf.jpg,stim/3.jpg,stim/6.jpg,stim/latef.jpg,EF,1,2,,,,,,,,,0,7,7,41,,,,,,,,,,2,1,0.83305061165,,,,,,2016_Aug_29_1538,P7,PLC_L_D1S1,NHGX,60.0191832502,
stim/negf.jpg,stim/posf.jpg,stim/6.jpg,stim/3.jpg,stim/latef.jpg,EF,2,4,,,,,,,,,0,8,8,58,,,,,,,,,,2,0,0.866327218592,,,,,,2016_Aug_29_1538,P7,PLC_L_D1S1,NHGX,60.0191832502,
stim/negf.jpg,stim/posf.jpg,stim/6.jpg,stim/3.jpg,stim/latef.jpg,EF,2,4,,,,,,,,,0,9,9,59,,,,,,,,,,4,1,0.666414917181,,,,,,2016_Aug_29_1538,P7,PLC_L_D1S1,NHGX,60.0191832502,
stim/negf.jpg,stim/posf.jpg,stim/3.jpg,stim/6.jpg,stim/latef.jpg,EF,1,2,,,,,,,,,0,10,10,49,,,,,,,,,,2,1,0.78303617266,,,,,,2016_Aug_29_1538,P7,PLC_L_D1S1,NHGX,60.0191832502,
stim/posf.jpg,stim/negf.jpg,stim/6.jpg,stim/3.jpg,stim/latef.jpg,EF,2,4,,,,,,,,,0,11,11,53,,,,,,,,,,4,1,0.716417915655,,,,,,2016_Aug_29_1538,P7,PLC_L_D1S1,NHGX,60.0191832502,
stim/posf.jpg,stim/negf.jpg,stim/5.jpg,stim/2.jpg,stim/latef.jpg,CD,2,4,,,,,,,,,0,12,12,32,,,,,,,,,,4,1,0.899697966181,,,,,,2016_Aug_29_1538,P7,PLC_L_D1S1,NHGX,60.0191832502,
stim/negf.jpg,stim/posf.jpg,stim/2.jpg,stim/5.jpg,stim/latef.jpg,CD,1,2,,,,,,,,,0,13,13,29,,,,,,,,,,2,1,0.916384974549,,,,,,2016_Aug_29_1538,P7,PLC_L_D1S1,NHGX,60.0191832502,
stim/posf.jpg,stim/negf.jpg,stim/4.jpg,stim/1.jpg,stim/latef.jpg,AB,2,4,,,,,,,,,0,14,14,13,,,,,,,,,,4,1,0.649783499372,,,,,,2016_Aug_29_1538,P7,PLC_L_D1S1,NHGX,60.0191832502,
stim/negf.jpg,stim/posf.jpg,stim/2.jpg,stim/5.jpg,stim/latef.jpg,CD,1,2,,,,,,,,,0,15,15,27,,,,,,,,,,2,1,0.64978135202,,,,,,2016_Aug_29_1538,P7,PLC_L_D1S1,NHGX,60.0191832502,
stim/posf.jpg,stim/negf.jpg,stim/5.jpg,stim/2.jpg,stim/latef.jpg,CD,2,4,,,,,,,,,0,16,16,34,,,,,,,,,,4,1,0.666380926459,,,,,,2016_Aug_29_1538,P7,PLC_L_D1S1,NHGX,60.0191832502,
stim/posf.jpg,stim/negf.jpg,stim/2.jpg,stim/5.jpg,stim/latef.jpg,CD,1,2,,,,,,,,,0,17,17,25,,,,,,,,,,2,1,0.616467689717,,,,,,2016_Aug_29_1538,P7,PLC_L_D1S1,NHGX,60.0191832502,
stim/posf.jpg,stim/negf.jpg,stim/6.jpg,stim/3.jpg,stim/latef.jpg,EF,2,4,,,,,,,,,0,18,18,52,,,,,,,,,,4,1,0.93304682822,,,,,,2016_Aug_29_1538,P7,PLC_L_D1S1,NHGX,60.0191832502,
stim/posf.jpg,stim/negf.jpg,stim/4.jpg,stim/1.jpg,stim/latef.jpg,AB,2,4,,,,,,,,,0,19,19,17,,,,,,,,,,4,1,0.699766825814,,,,,,2016_Aug_29_1538,P7,PLC_L_D1S1,NHGX,60.0191832502,
stim/posf.jpg,stim/negf.jpg,stim/3.jpg,stim/6.jpg,stim/latef.jpg,EF,1,2,,,,,,,,,0,20,20,40,,,,,,,,,,2,1,0.98301008263,,,,,,2016_Aug_29_1538,P7,PLC_L_D1S1,NHGX,60.0191832502,
stim/posf.jpg,stim/negf.jpg,stim/4.jpg,stim/1.jpg,stim/latef.jpg,AB,2,4,,,,,,,,,0,21,21,11,,,,,,,,,,4,1,0.633066100255,,,,,,2016_Aug_29_1538,P7,PLC_L_D1S1,NHGX,60.0191832502,
stim/posf.jpg,stim/negf.jpg,stim/6.jpg,stim/3.jpg,stim/latef.jpg,EF,2,4,,,,,,,,,0,22,22,54,,,,,,,,,,4,1,0.716432141112,,,,,,2016_Aug_29_1538,P7,PLC_L_D1S1,NHGX,60.0191832502,
stim/negf.jpg,stim/posf.jpg,stim/5.jpg,stim/2.jpg,stim/latef.jpg,CD,2,4,,,,,,,,,0,23,23,37,,,,,,,,,,4,1,0.783050545485,,,,,,2016_Aug_29_1538,P7,PLC_L_D1S1,NHGX,60.0191832502,
stim/posf.jpg,stim/negf.jpg,stim/1.jpg,stim/4.jpg,stim/latef.jpg,AB,1,2,,,,,,,,,0,24,24,1,,,,,,,,,,2,1,0.833065585974,,,,,,2016_Aug_29_1538,P7,PLC_L_D1S1,NHGX,60.0191832502,
stim/posf.jpg,stim/negf.jpg,stim/6.jpg,stim/3.jpg,stim/latef.jpg,EF,2,4,,,,,,,,,0,25,25,51,,,,,,,,,,4,1,0.783067646108,,,,,,2016_Aug_29_1538,P7,PLC_L_D1S1,NHGX,60.0191832502,
stim/negf.jpg,stim/posf.jpg,stim/2.jpg,stim/5.jpg,stim/latef.jpg,CD,1,2,,,,,,,,,0,26,26,28,,,,,,,,,,2,1,0.633122415621,,,,,,2016_Aug_29_1538,P7,PLC_L_D1S1,NHGX,60.0191832502,
stim/negf.jpg,stim/posf.jpg,stim/6.jpg,stim/3.jpg,stim/latef.jpg,EF,2,4,,,,,,,,,0,27,27,57,,,,,,,,,,4,1,0.449845559056,,,,,,2016_Aug_29_1538,P7,PLC_L_D1S1,NHGX,60.0191832502,
stim/posf.jpg,stim/negf.jpg,stim/1.jpg,stim/4.jpg,stim/latef.jpg,AB,1,2,,,,,,,,,0,28,28,6,,,,,,,,,,2,1,0.799737737309,,,,,,2016_Aug_29_1538,P7,PLC_L_D1S1,NHGX,60.0191832502,
stim/posf.jpg,stim/negf.jpg,stim/6.jpg,stim/3.jpg,stim/latef.jpg,EF,2,4,,,,,,,,,0,29,29,55,,,,,,,,,,4,1,0.816395597025,,,,,,2016_Aug_29_1538,P7,PLC_L_D1S1,NHGX,60.0191832502,
stim/posf.jpg,stim/negf.jpg,stim/1.jpg,stim/4.jpg,stim/latef.jpg,AB,1,2,,,,,,,,,0,30,30,2,,,,,,,,,,2,1,0.683054749964,,,,,,2016_Aug_29_1538,P7,PLC_L_D1S1,NHGX,60.0191832502,
stim/posf.jpg,stim/negf.jpg,stim/2.jpg,stim/5.jpg,stim/latef.jpg,CD,1,2,,,,,,,,,0,31,31,24,,,,,,,,,,2,1,0.68311124578,,,,,,2016_Aug_29_1538,P7,PLC_L_D1S1,NHGX,60.0191832502,
stim/negf.jpg,stim/posf.jpg,stim/4.jpg,stim/1.jpg,stim/latef.jpg,AB,2,4,,,,,,,,,0,32,32,19,,,,,,,,,,4,1,0.583121044203,,,,,,2016_Aug_29_1538,P7,PLC_L_D1S1,NHGX,60.0191832502,
stim/negf.jpg,stim/posf.jpg,stim/5.jpg,stim/2.jpg,stim/latef.jpg,CD,2,4,,,,,,,,,0,33,33,38,,,,,,,,,,4,1,0.916369094969,,,,,,2016_Aug_29_1538,P7,PLC_L_D1S1,NHGX,60.0191832502,
stim/posf.jpg,stim/negf.jpg,stim/4.jpg,stim/1.jpg,stim/latef.jpg,AB,2,4,,,,,,,,,0,34,34,10,,,,,,,,,,4,1,0.583153170277,,,,,,2016_Aug_29_1538,P7,PLC_L_D1S1,NHGX,60.0191832502,
stim/posf.jpg,stim/negf.jpg,stim/5.jpg,stim/2.jpg,stim/latef.jpg,CD,2,4,,,,,,,,,0,35,35,33,,,,,,,,,,4,1,0.733113020203,,,,,,2016_Aug_29_1538,P7,PLC_L_D1S1,NHGX,60.0191832502,
stim/posf.jpg,stim/negf.jpg,stim/5.jpg,stim/2.jpg,stim/latef.jpg,CD,2,4,,,,,,,,,0,36,36,31,,,,,,,,,,4,1,0.533139020007,,,,,,2016_Aug_29_1538,P7,PLC_L_D1S1,NHGX,60.0191832502,
stim/negf.jpg,stim/posf.jpg,stim/1.jpg,stim/4.jpg,stim/latef.jpg,AB,1,2,,,,,,,,,0,37,37,8,,,,,,,,,,2,1,0.716385639206,,,,,,2016_Aug_29_1538,P7,PLC_L_D1S1,NHGX,60.0191832502,
stim/posf.jpg,stim/negf.jpg,stim/2.jpg,stim/5.jpg,stim/latef.jpg,CD,1,2,,,,,,,,,0,38,38,20,,,,,,,,,,2,1,0.716419653988,,,,,,2016_Aug_29_1538,P7,PLC_L_D1S1,NHGX,60.0191832502,
stim/posf.jpg,stim/negf.jpg,stim/2.jpg,stim/5.jpg,stim/latef.jpg,CD,1,2,,,,,,,,,0,39,39,23,,,,,,,,,,2,1,0.716427163706,,,,,,2016_Aug_29_1538,P7,PLC_L_D1S1,NHGX,60.0191832502,
stim/negf.jpg,stim/posf.jpg,stim/3.jpg,stim/6.jpg,stim/latef.jpg,EF,1,2,,,,,,,,,0,40,40,46,,,,,,,,,,2,1,1.06628825949,,,,,,2016_Aug_29_1538,P7,PLC_L_D1S1,NHGX,60.0191832502,
stim/posf.jpg,stim/negf.jpg,stim/1.jpg,stim/4.jpg,stim/latef.jpg,AB,1,2,,,,,,,,,0,41,41,3,,,,,,,,,,2,1,0.766406375892,,,,,,2016_Aug_29_1538,P7,PLC_L_D1S1,NHGX,60.0191832502,
stim/posf.jpg,stim/negf.jpg,stim/1.jpg,stim/4.jpg,stim/latef.jpg,AB,1,2,,,,,,,,,0,42,42,4,,,,,,,,,,2,1,1.34954606958,,,,,,2016_Aug_29_1538,P7,PLC_L_D1S1,NHGX,60.0191832502,
stim/negf.jpg,stim/posf.jpg,stim/3.jpg,stim/6.jpg,stim/latef.jpg,EF,1,2,,,,,,,,,0,43,43,47,,,,,,,,,,2,1,0.883100220299,,,,,,2016_Aug_29_1538,P7,PLC_L_D1S1,NHGX,60.0191832502,
stim/posf.jpg,stim/negf.jpg,stim/6.jpg,stim/3.jpg,stim/latef.jpg,EF,2,4,,,,,,,,,0,44,44,50,,,,,,,,,,4,1,1.59947172728,,,,,,2016_Aug_29_1538,P7,PLC_L_D1S1,NHGX,60.0191832502,
stim/posf.jpg,stim/negf.jpg,stim/5.jpg,stim/2.jpg,stim/latef.jpg,CD,2,4,,,,,,,,,0,45,45,30,,,,,,,,,,4,1,0.866371233299,,,,,,2016_Aug_29_1538,P7,PLC_L_D1S1,NHGX,60.0191832502,
stim/negf.jpg,stim/posf.jpg,stim/3.jpg,stim/6.jpg,stim/latef.jpg,EF,1,2,,,,,,,,,0,46,46,48,,,,,,,,,,2,1,1.11629178427,,,,,,2016_Aug_29_1538,P7,PLC_L_D1S1,NHGX,60.0191832502,
stim/posf.jpg,stim/negf.jpg,stim/3.jpg,stim/6.jpg,stim/latef.jpg,EF,1,2,,,,,,,,,0,47,47,42,,,,,,,,,,2,1,1.16626846715,,,,,,2016_Aug_29_1538,P7,PLC_L_D1S1,NHGX,60.0191832502,
stim/posf.jpg,stim/negf.jpg,stim/2.jpg,stim/5.jpg,stim/latef.jpg,CD,1,2,,,,,,,,,0,48,48,26,,,,,,,,,,2,1,1.09964741919,,,,,,2016_Aug_29_1538,P7,PLC_L_D1S1,NHGX,60.0191832502,
stim/posf.jpg,stim/negf.jpg,stim/3.jpg,stim/6.jpg,stim/latef.jpg,EF,1,2,,,,,,,,,0,49,49,45,,,,,,,,,,2,1,0.633092930128,,,,,,2016_Aug_29_1538,P7,PLC_L_D1S1,NHGX,60.0191832502,
stim/negf.jpg,stim/posf.jpg,stim/5.jpg,stim/2.jpg,stim/latef.jpg,CD,2,4,,,,,,,,,0,50,50,39,,,,,,,,,,4,1,1.04970701273,,,,,,2016_Aug_29_1538,P7,PLC_L_D1S1,NHGX,60.0191832502,
stim/posf.jpg,stim/negf.jpg,stim/2.jpg,stim/5.jpg,stim/latef.jpg,CD,1,2,,,,,,,,,0,51,51,21,,,,,,,,,,2,1,0.783082015924,,,,,,2016_Aug_29_1538,P7,PLC_L_D1S1,NHGX,60.0191832502,
stim/posf.jpg,stim/negf.jpg,stim/1.jpg,stim/4.jpg,stim/latef.jpg,AB,1,2,,,,,,,,,0,52,52,5,,,,,,,,,,None,0,,,,,,,2016_Aug_29_1538,P7,PLC_L_D1S1,NHGX,60.0191832502,
stim/posf.jpg,stim/negf.jpg,stim/1.jpg,stim/4.jpg,stim/latef.jpg,AB,1,2,,,,,,,,,0,53,53,0,,,,,,,,,,2,1,0.66644703724,,,,,,2016_Aug_29_1538,P7,PLC_L_D1S1,NHGX,60.0191832502,
stim/posf.jpg,stim/negf.jpg,stim/3.jpg,stim/6.jpg,stim/latef.jpg,EF,1,2,,,,,,,,,0,54,54,44,,,,,,,,,,2,1,0.783073450576,,,,,,2016_Aug_29_1538,P7,PLC_L_D1S1,NHGX,60.0191832502,
stim/posf.jpg,stim/negf.jpg,stim/2.jpg,stim/5.jpg,stim/latef.jpg,CD,1,2,,,,,,,,,0,55,55,22,,,,,,,,,,2,1,0.666480261051,,,,,,2016_Aug_29_1538,P7,PLC_L_D1S1,NHGX,60.0191832502,
stim/posf.jpg,stim/negf.jpg,stim/3.jpg,stim/6.jpg,stim/latef.jpg,EF,1,2,,,,,,,,,0,56,56,43,,,,,,,,,,2,1,0.883035213269,,,,,,2016_Aug_29_1538,P7,PLC_L_D1S1,NHGX,60.0191832502,
stim/negf.jpg,stim/posf.jpg,stim/4.jpg,stim/1.jpg,stim/latef.jpg,AB,2,4,,,,,,,,,0,57,57,18,,,,,,,,,,4,1,0.733084584326,,,,,,2016_Aug_29_1538,P7,PLC_L_D1S1,NHGX,60.0191832502,
stim/negf.jpg,stim/posf.jpg,stim/1.jpg,stim/4.jpg,stim/latef.jpg,AB,1,2,,,,,,,,,0,58,58,9,,,,,,,,,,2,1,0.54983098473,,,,,,2016_Aug_29_1538,P7,PLC_L_D1S1,NHGX,60.0191832502,
stim/posf.jpg,stim/negf.jpg,stim/4.jpg,stim/1.jpg,stim/latef.jpg,AB,2,4,,,,,,,,,0,59,59,14,,,,,,,,,,4,1,0.516515890858,,,,,,2016_Aug_29_1538,P7,PLC_L_D1S1,NHGX,60.0191832502,
,,,,,,,,,,,,,,,,,,,,,,,,,,,,,,,,0.24375,0.123046875,1,0,0,2016_Aug_29_1538,P7,PLC_L_D1S1,NHGX,60.0191832502,
stim/negf.jpg,stim/posf.jpg,stim/5.jpg,stim/2.jpg,stim/latef.jpg,CD,2,4,,,,,,,,,,,,,0,0,0,39,,,,,,4,1,0.849776097924,,,,,,2016_Aug_29_1538,P7,PLC_L_D1S1,NHGX,60.0191832502,
stim/posf.jpg,stim/negf.jpg,stim/4.jpg,stim/1.jpg,stim/latef.jpg,AB,2,4,,,,,,,,,,,,,0,1,1,13,,,,,,4,1,0.599802374418,,,,,,2016_Aug_29_1538,P7,PLC_L_D1S1,NHGX,60.0191832502,
stim/negf.jpg,stim/posf.jpg,stim/5.jpg,stim/2.jpg,stim/latef.jpg,CD,2,4,,,,,,,,,,,,,0,2,2,37,,,,,,4,1,0.699684489591,,,,,,2016_Aug_29_1538,P7,PLC_L_D1S1,NHGX,60.0191832502,
stim/negf.jpg,stim/posf.jpg,stim/1.jpg,stim/4.jpg,stim/latef.jpg,AB,1,2,,,,,,,,,,,,,0,3,3,8,,,,,,2,1,0.566450195111,,,,,,2016_Aug_29_1538,P7,PLC_L_D1S1,NHGX,60.0191832502,
stim/negf.jpg,stim/posf.jpg,stim/3.jpg,stim/6.jpg,stim/latef.jpg,EF,1,2,,,,,,,,,,,,,0,4,4,48,,,,,,2,1,0.94968118736,,,,,,2016_Aug_29_1538,P7,PLC_L_D1S1,NHGX,60.0191832502,
stim/posf.jpg,stim/negf.jpg,stim/4.jpg,stim/1.jpg,stim/latef.jpg,AB,2,4,,,,,,,,,,,,,0,5,5,16,,,,,,4,1,0.516505196202,,,,,,2016_Aug_29_1538,P7,PLC_L_D1S1,NHGX,60.0191832502,
stim/posf.jpg,stim/negf.jpg,stim/6.jpg,stim/3.jpg,stim/latef.jpg,EF,2,4,,,,,,,,,,,,,0,6,6,54,,,,,,4,1,0.616510760069,,,,,,2016_Aug_29_1538,P7,PLC_L_D1S1,NHGX,60.0191832502,
stim/posf.jpg,stim/negf.jpg,stim/1.jpg,stim/4.jpg,stim/latef.jpg,AB,1,2,,,,,,,,,,,,,0,7,7,1,,,,,,2,1,0.566487467011,,,,,,2016_Aug_29_1538,P7,PLC_L_D1S1,NHGX,60.0191832502,
stim/posf.jpg,stim/negf.jpg,stim/3.jpg,stim/6.jpg,stim/latef.jpg,EF,1,2,,,,,,,,,,,,,0,8,8,40,,,,,,2,1,0.633129462184,,,,,,2016_Aug_29_1538,P7,PLC_L_D1S1,NHGX,60.0191832502,
stim/posf.jpg,stim/negf.jpg,stim/3.jpg,stim/6.jpg,stim/latef.jpg,EF,1,2,,,,,,,,,,,,,0,9,9,44,,,,,,2,1,0.549818629935,,,,,,2016_Aug_29_1538,P7,PLC_L_D1S1,NHGX,60.0191832502,
stim/posf.jpg,stim/negf.jpg,stim/5.jpg,stim/2.jpg,stim/latef.jpg,CD,2,4,,,,,,,,,,,,,0,10,10,33,,,,,,4,1,0.56648877828,,,,,,2016_Aug_29_1538,P7,PLC_L_D1S1,NHGX,60.0191832502,
stim/negf.jpg,stim/posf.jpg,stim/4.jpg,stim/1.jpg,stim/latef.jpg,AB,2,4,,,,,,,,,,,,,0,11,11,18,,,,,,4,1,0.783073561853,,,,,,2016_Aug_29_1538,P7,PLC_L_D1S1,NHGX,60.0191832502,
stim/posf.jpg,stim/negf.jpg,stim/2.jpg,stim/5.jpg,stim/latef.jpg,CD,1,2,,,,,,,,,,,,,0,12,12,20,,,,,,2,1,0.58312775092,,,,,,2016_Aug_29_1538,P7,PLC_L_D1S1,NHGX,60.0191832502,
stim/negf.jpg,stim/posf.jpg,stim/3.jpg,stim/6.jpg,stim/latef.jpg,EF,1,2,,,,,,,,,,,,,0,13,13,46,,,,,,2,1,0.483163146142,,,,,,2016_Aug_29_1538,P7,PLC_L_D1S1,NHGX,60.0191832502,
stim/posf.jpg,stim/negf.jpg,stim/4.jpg,stim/1.jpg,stim/latef.jpg,AB,2,4,,,,,,,,,,,,,0,14,14,15,,,,,,4,1,0.499846458298,,,,,,2016_Aug_29_1538,P7,PLC_L_D1S1,NHGX,60.0191832502,
stim/posf.jpg,stim/negf.jpg,stim/1.jpg,stim/4.jpg,stim/latef.jpg,AB,1,2,,,,,,,,,,,,,0,15,15,0,,,,,,2,1,0.549831011797,,,,,,2016_Aug_29_1538,P7,PLC_L_D1S1,NHGX,60.0191832502,
stim/negf.jpg,stim/posf.jpg,stim/3.jpg,stim/6.jpg,stim/latef.jpg,EF,1,2,,,,,,,,,,,,,0,16,16,47,,,,,,2,1,0.716410643529,,,,,,2016_Aug_29_1538,P7,PLC_L_D1S1,NHGX,60.0191832502,
stim/negf.jpg,stim/posf.jpg,stim/1.jpg,stim/4.jpg,stim/latef.jpg,AB,1,2,,,,,,,,,,,,,0,17,17,9,,,,,,2,1,0.866344000421,,,,,,2016_Aug_29_1538,P7,PLC_L_D1S1,NHGX,60.0191832502,
stim/posf.jpg,stim/negf.jpg,stim/1.jpg,stim/4.jpg,stim/latef.jpg,AB,1,2,,,,,,,,,,,,,0,18,18,4,,,,,,2,1,0.516509475869,,,,,,2016_Aug_29_1538,P7,PLC_L_D1S1,NHGX,60.0191832502,
stim/posf.jpg,stim/negf.jpg,stim/4.jpg,stim/1.jpg,stim/latef.jpg,AB,2,4,,,,,,,,,,,,,0,19,19,11,,,,,,4,1,0.5998006421,,,,,,2016_Aug_29_1538,P7,PLC_L_D1S1,NHGX,60.0191832502,
stim/negf.jpg,stim/posf.jpg,stim/3.jpg,stim/6.jpg,stim/latef.jpg,EF,1,2,,,,,,,,,,,,,0,20,20,49,,,,,,2,1,0.61647263404,,,,,,2016_Aug_29_1538,P7,PLC_L_D1S1,NHGX,60.0191832502,
stim/posf.jpg,stim/negf.jpg,stim/6.jpg,stim/3.jpg,stim/latef.jpg,EF,2,4,,,,,,,,,,,,,0,21,21,53,,,,,,2,0,0.983029826843,,,,,,2016_Aug_29_1538,P7,PLC_L_D1S1,NHGX,60.0191832502,
stim/posf.jpg,stim/negf.jpg,stim/2.jpg,stim/5.jpg,stim/latef.jpg,CD,1,2,,,,,,,,,,,,,0,22,22,23,,,,,,2,1,0.53312682461,,,,,,2016_Aug_29_1538,P7,PLC_L_D1S1,NHGX,60.0191832502,
stim/negf.jpg,stim/posf.jpg,stim/2.jpg,stim/5.jpg,stim/latef.jpg,CD,1,2,,,,,,,,,,,,,0,23,23,28,,,,,,2,1,0.616425154698,,,,,,2016_Aug_29_1538,P7,PLC_L_D1S1,NHGX,60.0191832502,
stim/posf.jpg,stim/negf.jpg,stim/1.jpg,stim/4.jpg,stim/latef.jpg,AB,1,2,,,,,,,,,,,,,0,24,24,3,,,,,,2,1,0.749751165781,,,,,,2016_Aug_29_1538,P7,PLC_L_D1S1,NHGX,60.0191832502,
stim/posf.jpg,stim/negf.jpg,stim/4.jpg,stim/1.jpg,stim/latef.jpg,AB,2,4,,,,,,,,,,,,,0,25,25,14,,,,,,4,1,0.583128830611,,,,,,2016_Aug_29_1538,P7,PLC_L_D1S1,NHGX,60.0191832502,
stim/posf.jpg,stim/negf.jpg,stim/2.jpg,stim/5.jpg,stim/latef.jpg,CD,1,2,,,,,,,,,,,,,0,26,26,24,,,,,,2,1,0.616379467823,,,,,,2016_Aug_29_1538,P7,PLC_L_D1S1,NHGX,60.0191832502,
stim/posf.jpg,stim/negf.jpg,stim/1.jpg,stim/4.jpg,stim/latef.jpg,AB,1,2,,,,,,,,,,,,,0,27,27,2,,,,,,2,1,0.716483400877,,,,,,2016_Aug_29_1538,P7,PLC_L_D1S1,NHGX,60.0191832502,
stim/posf.jpg,stim/negf.jpg,stim/5.jpg,stim/2.jpg,stim/latef.jpg,CD,2,4,,,,,,,,,,,,,0,28,28,31,,,,,,4,1,0.533133480199,,,,,,2016_Aug_29_1538,P7,PLC_L_D1S1,NHGX,60.0191832502,
stim/negf.jpg,stim/posf.jpg,stim/2.jpg,stim/5.jpg,stim/latef.jpg,CD,1,2,,,,,,,,,,,,,0,29,29,29,,,,,,2,1,0.81639023466,,,,,,2016_Aug_29_1538,P7,PLC_L_D1S1,NHGX,60.0191832502,
stim/negf.jpg,stim/posf.jpg,stim/6.jpg,stim/3.jpg,stim/latef.jpg,EF,2,4,,,,,,,,,,,,,0,30,30,58,,,,,,4,1,0.699748949256,,,,,,2016_Aug_29_1538,P7,PLC_L_D1S1,NHGX,60.0191832502,
stim/posf.jpg,stim/negf.jpg,stim/3.jpg,stim/6.jpg,stim/latef.jpg,EF,1,2,,,,,,,,,,,,,0,31,31,41,,,,,,2,1,0.649757956707,,,,,,2016_Aug_29_1538,P7,PLC_L_D1S1,NHGX,60.0191832502,
stim/posf.jpg,stim/negf.jpg,stim/5.jpg,stim/2.jpg,stim/latef.jpg,CD,2,4,,,,,,,,,,,,,0,32,32,35,,,,,,4,1,0.599811772844,,,,,,2016_Aug_29_1538,P7,PLC_L_D1S1,NHGX,60.0191832502,
stim/posf.jpg,stim/negf.jpg,stim/4.jpg,stim/1.jpg,stim/latef.jpg,AB,2,4,,,,,,,,,,,,,0,33,33,10,,,,,,4,1,0.616464119818,,,,,,2016_Aug_29_1538,P7,PLC_L_D1S1,NHGX,60.0191832502,
stim/posf.jpg,stim/negf.jpg,stim/6.jpg,stim/3.jpg,stim/latef.jpg,EF,2,4,,,,,,,,,,,,,0,34,34,51,,,,,,4,1,0.583113113436,,,,,,2016_Aug_29_1538,P7,PLC_L_D1S1,NHGX,60.0191832502,
stim/posf.jpg,stim/negf.jpg,stim/1.jpg,stim/4.jpg,stim/latef.jpg,AB,1,2,,,,,,,,,,,,,0,35,35,5,,,,,,2,1,0.666444847783,,,,,,2016_Aug_29_1538,P7,PLC_L_D1S1,NHGX,60.0191832502,
stim/posf.jpg,stim/negf.jpg,stim/2.jpg,stim/5.jpg,stim/latef.jpg,CD,1,2,,,,,,,,,,,,,0,36,36,22,,,,,,2,1,0.516511936,,,,,,2016_Aug_29_1538,P7,PLC_L_D1S1,NHGX,60.0191832502,
stim/posf.jpg,stim/negf.jpg,stim/6.jpg,stim/3.jpg,stim/latef.jpg,EF,2,4,,,,,,,,,,,,,0,37,37,50,,,,,,4,1,0.783088761739,,,,,,2016_Aug_29_1538,P7,PLC_L_D1S1,NHGX,60.0191832502,
stim/posf.jpg,stim/negf.jpg,stim/4.jpg,stim/1.jpg,stim/latef.jpg,AB,2,4,,,,,,,,,,,,,0,38,38,17,,,,,,4,1,0.849662351411,,,,,,2016_Aug_29_1538,P7,PLC_L_D1S1,NHGX,60.0191832502,
stim/posf.jpg,stim/negf.jpg,stim/6.jpg,stim/3.jpg,stim/latef.jpg,EF,2,4,,,,,,,,,,,,,0,39,39,52,,,,,,4,1,0.73313477643,,,,,,2016_Aug_29_1538,P7,PLC_L_D1S1,NHGX,60.0191832502,
stim/negf.jpg,stim/posf.jpg,stim/6.jpg,stim/3.jpg,stim/latef.jpg,EF,2,4,,,,,,,,,,,,,0,40,40,56,,,,,,4,1,0.733151654499,,,,,,2016_Aug_29_1538,P7,PLC_L_D1S1,NHGX,60.0191832502,
stim/posf.jpg,stim/negf.jpg,stim/5.jpg,stim/2.jpg,stim/latef.jpg,CD,2,4,,,,,,,,,,,,,0,41,41,34,,,,,,4,1,0.949659761956,,,,,,2016_Aug_29_1538,P7,PLC_L_D1S1,NHGX,60.0191832502,
stim/posf.jpg,stim/negf.jpg,stim/6.jpg,stim/3.jpg,stim/latef.jpg,EF,2,4,,,,,,,,,,,,,0,42,42,55,,,,,,4,1,0.88303673807,,,,,,2016_Aug_29_1538,P7,PLC_L_D1S1,NHGX,60.0191832502,
stim/negf.jpg,stim/posf.jpg,stim/6.jpg,stim/3.jpg,stim/latef.jpg,EF,2,4,,,,,,,,,,,,,0,43,43,59,,,,,,4,1,0.616465280712,,,,,,2016_Aug_29_1538,P7,PLC_L_D1S1,NHGX,60.0191832502,
stim/posf.jpg,stim/negf.jpg,stim/2.jpg,stim/5.jpg,stim/latef.jpg,CD,1,2,,,,,,,,,,,,,0,44,44,26,,,,,,2,1,0.516499722558,,,,,,2016_Aug_29_1538,P7,PLC_L_D1S1,NHGX,60.0191832502,
stim/posf.jpg,stim/negf.jpg,stim/1.jpg,stim/4.jpg,stim/latef.jpg,AB,1,2,,,,,,,,,,,,,0,45,45,7,,,,,,2,1,0.616392733889,,,,,,2016_Aug_29_1538,P7,PLC_L_D1S1,NHGX,60.0191832502,
stim/negf.jpg,stim/posf.jpg,stim/2.jpg,stim/5.jpg,stim/latef.jpg,CD,1,2,,,,,,,,,,,,,0,46,46,27,,,,,,2,1,0.583130550898,,,,,,2016_Aug_29_1538,P7,PLC_L_D1S1,NHGX,60.0191832502,
stim/posf.jpg,stim/negf.jpg,stim/2.jpg,stim/5.jpg,stim/latef.jpg,CD,1,2,,,,,,,,,,,,,0,47,47,25,,,,,,2,1,0.633128027609,,,,,,2016_Aug_29_1538,P7,PLC_L_D1S1,NHGX,60.0191832502,
stim/negf.jpg,stim/posf.jpg,stim/4.jpg,stim/1.jpg,stim/latef.jpg,AB,2,4,,,,,,,,,,,,,0,48,48,19,,,,,,4,1,0.666441148563,,,,,,2016_Aug_29_1538,P7,PLC_L_D1S1,NHGX,60.0191832502,
stim/posf.jpg,stim/negf.jpg,stim/5.jpg,stim/2.jpg,stim/latef.jpg,CD,2,4,,,,,,,,,,,,,0,49,49,36,,,,,,4,1,0.583199633085,,,,,,2016_Aug_29_1538,P7,PLC_L_D1S1,NHGX,60.0191832502,
stim/negf.jpg,stim/posf.jpg,stim/6.jpg,stim/3.jpg,stim/latef.jpg,EF,2,4,,,,,,,,,,,,,0,50,50,57,,,,,,4,1,0.433147934225,,,,,,2016_Aug_29_1538,P7,PLC_L_D1S1,NHGX,60.0191832502,
stim/posf.jpg,stim/negf.jpg,stim/3.jpg,stim/6.jpg,stim/latef.jpg,EF,1,2,,,,,,,,,,,,,0,51,51,43,,,,,,2,1,0.649781706904,,,,,,2016_Aug_29_1538,P7,PLC_L_D1S1,NHGX,60.0191832502,
stim/posf.jpg,stim/negf.jpg,stim/2.jpg,stim/5.jpg,stim/latef.jpg,CD,1,2,,,,,,,,,,,,,0,52,52,21,,,,,,2,1,0.533196772957,,,,,,2016_Aug_29_1538,P7,PLC_L_D1S1,NHGX,60.0191832502,
stim/posf.jpg,stim/negf.jpg,stim/1.jpg,stim/4.jpg,stim/latef.jpg,AB,1,2,,,,,,,,,,,,,0,53,53,6,,,,,,2,1,0.816441395177,,,,,,2016_Aug_29_1538,P7,PLC_L_D1S1,NHGX,60.0191832502,
stim/posf.jpg,stim/negf.jpg,stim/3.jpg,stim/6.jpg,stim/latef.jpg,EF,1,2,,,,,,,,,,,,,0,54,54,42,,,,,,2,1,0.916365567176,,,,,,2016_Aug_29_1538,P7,PLC_L_D1S1,NHGX,60.0191832502,
stim/posf.jpg,stim/negf.jpg,stim/5.jpg,stim/2.jpg,stim/latef.jpg,CD,2,4,,,,,,,,,,,,,0,55,55,32,,,,,,4,1,0.733097104533,,,,,,2016_Aug_29_1538,P7,PLC_L_D1S1,NHGX,60.0191832502,
stim/posf.jpg,stim/negf.jpg,stim/4.jpg,stim/1.jpg,stim/latef.jpg,AB,2,4,,,,,,,,,,,,,0,56,56,12,,,,,,4,1,0.616443286893,,,,,,2016_Aug_29_1538,P7,PLC_L_D1S1,NHGX,60.0191832502,
stim/posf.jpg,stim/negf.jpg,stim/3.jpg,stim/6.jpg,stim/latef.jpg,EF,1,2,,,,,,,,,,,,,0,57,57,45,,,,,,2,1,0.599784735453,,,,,,2016_Aug_29_1538,P7,PLC_L_D1S1,NHGX,60.0191832502,
stim/posf.jpg,stim/negf.jpg,stim/5.jpg,stim/2.jpg,stim/latef.jpg,CD,2,4,,,,,,,,,,,,,0,58,58,30,,,,,,4,1,0.616471855099,,,,,,2016_Aug_29_1538,P7,PLC_L_D1S1,NHGX,60.0191832502,
stim/negf.jpg,stim/posf.jpg,stim/5.jpg,stim/2.jpg,stim/latef.jpg,CD,2,4,,,,,,,,,,,,,0,59,59,38,,,,,,4,1,0.449857907835,,,,,,2016_Aug_29_1538,P7,PLC_L_D1S1,NHGX,60.0191832502,
