fb_corr,fb_incorr,symbol2,symbol1,fb_late,pair,position,correct,block_01.thisRepN,block_01.thisTrialN,block_01.thisN,block_01.thisIndex,block_02.thisRepN,block_02.thisTrialN,block_02.thisN,block_02.thisIndex,block_03.thisRepN,block_03.thisTrialN,block_03.thisN,block_03.thisIndex,block_04.thisRepN,block_04.thisTrialN,block_04.thisN,block_04.thisIndex,mouse.x,mouse.y,mouse.leftButton,mouse.midButton,mouse.rightButton,buttonBox_2.keys,buttonBox_2.corr,buttonBox_2.rt,mouse_2.x,mouse_2.y,mouse_2.leftButton,mouse_2.midButton,mouse_2.rightButton,date,Participant,expName,Group,frameRate,
,,,,,,,,,,,,,,,,,,,,,,,,0.9984375,1.0,1,0,0,,,,,,,,,2016_Aug_24_1329,P8,PLC_L_D1S1,NHGX,60.0161632083,
stim/posf.jpg,stim/negf.jpg,stim/5.jpg,stim/2.jpg,stim/latef.jpg,EF,2,4,0,0,0,52,,,,,,,,,,,,,,,,,,4,1,1.08300015864,,,,,,2016_Aug_24_1329,P8,PLC_L_D1S1,NHGX,60.0161632083,
stim/negf.jpg,stim/posf.jpg,stim/5.jpg,stim/2.jpg,stim/latef.jpg,EF,2,4,0,1,1,57,,,,,,,,,,,,,,,,,,4,1,1.04964790923,,,,,,2016_Aug_24_1329,P8,PLC_L_D1S1,NHGX,60.0161632083,
stim/posf.jpg,stim/negf.jpg,stim/4.jpg,stim/6.jpg,stim/latef.jpg,CD,2,4,0,2,2,30,,,,,,,,,,,,,,,,,,4,1,1.19957198979,,,,,,2016_Aug_24_1329,P8,PLC_L_D1S1,NHGX,60.0161632083,
stim/posf.jpg,stim/negf.jpg,stim/4.jpg,stim/6.jpg,stim/latef.jpg,CD,2,4,0,3,3,36,,,,,,,,,,,,,,,,,,4,1,1.11628918772,,,,,,2016_Aug_24_1329,P8,PLC_L_D1S1,NHGX,60.0161632083,
stim/posf.jpg,stim/negf.jpg,stim/2.jpg,stim/5.jpg,stim/latef.jpg,EF,1,2,0,4,4,40,,,,,,,,,,,,,,,,,,2,1,0.999680644203,,,,,,2016_Aug_24_1329,P8,PLC_L_D1S1,NHGX,60.0161632083,
stim/posf.jpg,stim/negf.jpg,stim/2.jpg,stim/5.jpg,stim/latef.jpg,EF,1,2,0,5,5,45,,,,,,,,,,,,,,,,,,2,1,0.666439052191,,,,,,2016_Aug_24_1329,P8,PLC_L_D1S1,NHGX,60.0161632083,
stim/posf.jpg,stim/negf.jpg,stim/1.jpg,stim/3.jpg,stim/latef.jpg,AB,2,4,0,6,6,17,,,,,,,,,,,,,,,,,,2,0,1.49949508539,,,,,,2016_Aug_24_1329,P8,PLC_L_D1S1,NHGX,60.0161632083,
stim/posf.jpg,stim/negf.jpg,stim/5.jpg,stim/2.jpg,stim/latef.jpg,EF,2,4,0,7,7,54,,,,,,,,,,,,,,,,,,4,1,1.01631697086,,,,,,2016_Aug_24_1329,P8,PLC_L_D1S1,NHGX,60.0161632083,
stim/posf.jpg,stim/negf.jpg,stim/2.jpg,stim/5.jpg,stim/latef.jpg,EF,1,2,0,8,8,42,,,,,,,,,,,,,,,,,,2,1,1.11626678195,,,,,,2016_Aug_24_1329,P8,PLC_L_D1S1,NHGX,60.0161632083,
stim/negf.jpg,stim/posf.jpg,stim/2.jpg,stim/5.jpg,stim/latef.jpg,EF,1,2,0,9,9,49,,,,,,,,,,,,,,,,,,2,1,0.516490195975,,,,,,2016_Aug_24_1329,P8,PLC_L_D1S1,NHGX,60.0161632083,
stim/posf.jpg,stim/negf.jpg,stim/4.jpg,stim/6.jpg,stim/latef.jpg,CD,2,4,0,10,10,33,,,,,,,,,,,,,,,,,,2,0,1.39955252234,,,,,,2016_Aug_24_1329,P8,PLC_L_D1S1,NHGX,60.0161632083,
stim/posf.jpg,stim/negf.jpg,stim/3.jpg,stim/1.jpg,stim/latef.jpg,AB,1,2,0,11,11,7,,,,,,,,,,,,,,,,,,2,1,0.916362462078,,,,,,2016_Aug_24_1329,P8,PLC_L_D1S1,NHGX,60.0161632083,
stim/posf.jpg,stim/negf.jpg,stim/4.jpg,stim/6.jpg,stim/latef.jpg,CD,2,4,0,12,12,31,,,,,,,,,,,,,,,,,,4,1,1.18293003011,,,,,,2016_Aug_24_1329,P8,PLC_L_D1S1,NHGX,60.0161632083,
stim/posf.jpg,stim/negf.jpg,stim/6.jpg,stim/4.jpg,stim/latef.jpg,CD,1,2,0,13,13,24,,,,,,,,,,,,,,,,,,2,1,0.599798056413,,,,,,2016_Aug_24_1329,P8,PLC_L_D1S1,NHGX,60.0161632083,
stim/posf.jpg,stim/negf.jpg,stim/1.jpg,stim/3.jpg,stim/latef.jpg,AB,2,4,0,14,14,16,,,,,,,,,,,,,,,,,,2,0,1.24958907982,,,,,,2016_Aug_24_1329,P8,PLC_L_D1S1,NHGX,60.0161632083,
stim/posf.jpg,stim/negf.jpg,stim/3.jpg,stim/1.jpg,stim/latef.jpg,AB,1,2,0,15,15,0,,,,,,,,,,,,,,,,,,2,1,0.849690835066,,,,,,2016_Aug_24_1329,P8,PLC_L_D1S1,NHGX,60.0161632083,
stim/negf.jpg,stim/posf.jpg,stim/4.jpg,stim/6.jpg,stim/latef.jpg,CD,2,4,0,16,16,39,,,,,,,,,,,,,,,,,,4,1,0.982993966234,,,,,,2016_Aug_24_1329,P8,PLC_L_D1S1,NHGX,60.0161632083,
stim/posf.jpg,stim/negf.jpg,stim/3.jpg,stim/1.jpg,stim/latef.jpg,AB,1,2,0,17,17,2,,,,,,,,,,,,,,,,,,2,1,0.966352932862,,,,,,2016_Aug_24_1329,P8,PLC_L_D1S1,NHGX,60.0161632083,
stim/posf.jpg,stim/negf.jpg,stim/5.jpg,stim/2.jpg,stim/latef.jpg,EF,2,4,0,18,18,50,,,,,,,,,,,,,,,,,,4,1,1.0163230129,,,,,,2016_Aug_24_1329,P8,PLC_L_D1S1,NHGX,60.0161632083,
stim/posf.jpg,stim/negf.jpg,stim/1.jpg,stim/3.jpg,stim/latef.jpg,AB,2,4,0,19,19,15,,,,,,,,,,,,,,,,,,4,1,0.916337283414,,,,,,2016_Aug_24_1329,P8,PLC_L_D1S1,NHGX,60.0161632083,
stim/negf.jpg,stim/posf.jpg,stim/2.jpg,stim/5.jpg,stim/latef.jpg,EF,1,2,0,20,20,47,,,,,,,,,,,,,,,,,,2,1,0.7663944151,,,,,,2016_Aug_24_1329,P8,PLC_L_D1S1,NHGX,60.0161632083,
stim/negf.jpg,stim/posf.jpg,stim/1.jpg,stim/3.jpg,stim/latef.jpg,AB,2,4,0,21,21,18,,,,,,,,,,,,,,,,,,4,1,0.866311020552,,,,,,2016_Aug_24_1329,P8,PLC_L_D1S1,NHGX,60.0161632083,
stim/posf.jpg,stim/negf.jpg,stim/5.jpg,stim/2.jpg,stim/latef.jpg,EF,2,4,0,22,22,51,,,,,,,,,,,,,,,,,,4,1,1.04964564159,,,,,,2016_Aug_24_1329,P8,PLC_L_D1S1,NHGX,60.0161632083,
stim/negf.jpg,stim/posf.jpg,stim/5.jpg,stim/2.jpg,stim/latef.jpg,EF,2,4,0,23,23,56,,,,,,,,,,,,,,,,,,4,1,0.999677883332,,,,,,2016_Aug_24_1329,P8,PLC_L_D1S1,NHGX,60.0161632083,
stim/negf.jpg,stim/posf.jpg,stim/3.jpg,stim/1.jpg,stim/latef.jpg,AB,1,2,0,24,24,8,,,,,,,,,,,,,,,,,,2,1,1.16626910524,,,,,,2016_Aug_24_1329,P8,PLC_L_D1S1,NHGX,60.0161632083,
stim/posf.jpg,stim/negf.jpg,stim/4.jpg,stim/6.jpg,stim/latef.jpg,CD,2,4,0,25,25,35,,,,,,,,,,,,,,,,,,4,1,1.06636401544,,,,,,2016_Aug_24_1329,P8,PLC_L_D1S1,NHGX,60.0161632083,
stim/negf.jpg,stim/posf.jpg,stim/6.jpg,stim/4.jpg,stim/latef.jpg,CD,1,2,0,26,26,28,,,,,,,,,,,,,,,,,,2,1,0.949650694165,,,,,,2016_Aug_24_1329,P8,PLC_L_D1S1,NHGX,60.0161632083,
stim/posf.jpg,stim/negf.jpg,stim/6.jpg,stim/4.jpg,stim/latef.jpg,CD,1,2,0,27,27,22,,,,,,,,,,,,,,,,,,2,1,0.749767056762,,,,,,2016_Aug_24_1329,P8,PLC_L_D1S1,NHGX,60.0161632083,
stim/posf.jpg,stim/negf.jpg,stim/1.jpg,stim/3.jpg,stim/latef.jpg,AB,2,4,0,28,28,14,,,,,,,,,,,,,,,,,,4,1,0.966339618726,,,,,,2016_Aug_24_1329,P8,PLC_L_D1S1,NHGX,60.0161632083,
stim/posf.jpg,stim/negf.jpg,stim/6.jpg,stim/4.jpg,stim/latef.jpg,CD,1,2,0,29,29,25,,,,,,,,,,,,,,,,,,2,1,0.966362292155,,,,,,2016_Aug_24_1329,P8,PLC_L_D1S1,NHGX,60.0161632083,
stim/posf.jpg,stim/negf.jpg,stim/3.jpg,stim/1.jpg,stim/latef.jpg,AB,1,2,0,30,30,3,,,,,,,,,,,,,,,,,,2,1,1.21628070059,,,,,,2016_Aug_24_1329,P8,PLC_L_D1S1,NHGX,60.0161632083,
stim/posf.jpg,stim/negf.jpg,stim/1.jpg,stim/3.jpg,stim/latef.jpg,AB,2,4,0,31,31,11,,,,,,,,,,,,,,,,,,4,1,0.749731171453,,,,,,2016_Aug_24_1329,P8,PLC_L_D1S1,NHGX,60.0161632083,
stim/posf.jpg,stim/negf.jpg,stim/3.jpg,stim/1.jpg,stim/latef.jpg,AB,1,2,0,32,32,5,,,,,,,,,,,,,,,,,,2,1,0.783080620895,,,,,,2016_Aug_24_1329,P8,PLC_L_D1S1,NHGX,60.0161632083,
stim/negf.jpg,stim/posf.jpg,stim/5.jpg,stim/2.jpg,stim/latef.jpg,EF,2,4,0,33,33,58,,,,,,,,,,,,,,,,,,4,1,0.966337633786,,,,,,2016_Aug_24_1329,P8,PLC_L_D1S1,NHGX,60.0161632083,
stim/posf.jpg,stim/negf.jpg,stim/4.jpg,stim/6.jpg,stim/latef.jpg,CD,2,4,0,34,34,32,,,,,,,,,,,,,,,,,,4,1,0.949666155645,,,,,,2016_Aug_24_1329,P8,PLC_L_D1S1,NHGX,60.0161632083,
stim/posf.jpg,stim/negf.jpg,stim/2.jpg,stim/5.jpg,stim/latef.jpg,EF,1,2,0,35,35,43,,,,,,,,,,,,,,,,,,2,1,0.916362308696,,,,,,2016_Aug_24_1329,P8,PLC_L_D1S1,NHGX,60.0161632083,
stim/posf.jpg,stim/negf.jpg,stim/3.jpg,stim/1.jpg,stim/latef.jpg,AB,1,2,0,36,36,4,,,,,,,,,,,,,,,,,,2,1,0.966314506227,,,,,,2016_Aug_24_1329,P8,PLC_L_D1S1,NHGX,60.0161632083,
stim/posf.jpg,stim/negf.jpg,stim/6.jpg,stim/4.jpg,stim/latef.jpg,CD,1,2,0,37,37,21,,,,,,,,,,,,,,,,,,2,1,1.43285455277,,,,,,2016_Aug_24_1329,P8,PLC_L_D1S1,NHGX,60.0161632083,
stim/posf.jpg,stim/negf.jpg,stim/1.jpg,stim/3.jpg,stim/latef.jpg,AB,2,4,0,38,38,10,,,,,,,,,,,,,,,,,,4,1,0.916357072665,,,,,,2016_Aug_24_1329,P8,PLC_L_D1S1,NHGX,60.0161632083,
stim/posf.jpg,stim/negf.jpg,stim/5.jpg,stim/2.jpg,stim/latef.jpg,EF,2,4,0,39,39,53,,,,,,,,,,,,,,,,,,4,1,0.783088831329,,,,,,2016_Aug_24_1329,P8,PLC_L_D1S1,NHGX,60.0161632083,
stim/posf.jpg,stim/negf.jpg,stim/5.jpg,stim/2.jpg,stim/latef.jpg,EF,2,4,0,40,40,55,,,,,,,,,,,,,,,,,,4,1,0.71642858464,,,,,,2016_Aug_24_1329,P8,PLC_L_D1S1,NHGX,60.0161632083,
stim/posf.jpg,stim/negf.jpg,stim/1.jpg,stim/3.jpg,stim/latef.jpg,AB,2,4,0,41,41,13,,,,,,,,,,,,,,,,,,4,1,0.699717185144,,,,,,2016_Aug_24_1329,P8,PLC_L_D1S1,NHGX,60.0161632083,
stim/negf.jpg,stim/posf.jpg,stim/4.jpg,stim/6.jpg,stim/latef.jpg,CD,2,4,0,42,42,38,,,,,,,,,,,,,,,,,,4,1,1.19959044973,,,,,,2016_Aug_24_1329,P8,PLC_L_D1S1,NHGX,60.0161632083,
stim/posf.jpg,stim/negf.jpg,stim/6.jpg,stim/4.jpg,stim/latef.jpg,CD,1,2,0,43,43,23,,,,,,,,,,,,,,,,,,2,1,1.09964057247,,,,,,2016_Aug_24_1329,P8,PLC_L_D1S1,NHGX,60.0161632083,
stim/posf.jpg,stim/negf.jpg,stim/2.jpg,stim/5.jpg,stim/latef.jpg,EF,1,2,0,44,44,44,,,,,,,,,,,,,,,,,,2,1,0.699767756003,,,,,,2016_Aug_24_1329,P8,PLC_L_D1S1,NHGX,60.0161632083,
stim/posf.jpg,stim/negf.jpg,stim/1.jpg,stim/3.jpg,stim/latef.jpg,AB,2,4,0,45,45,12,,,,,,,,,,,,,,,,,,4,1,0.832968034195,,,,,,2016_Aug_24_1329,P8,PLC_L_D1S1,NHGX,60.0161632083,
stim/negf.jpg,stim/posf.jpg,stim/2.jpg,stim/5.jpg,stim/latef.jpg,EF,1,2,0,46,46,48,,,,,,,,,,,,,,,,,,2,1,0.616440295786,,,,,,2016_Aug_24_1329,P8,PLC_L_D1S1,NHGX,60.0161632083,
stim/negf.jpg,stim/posf.jpg,stim/3.jpg,stim/1.jpg,stim/latef.jpg,AB,1,2,0,47,47,9,,,,,,,,,,,,,,,,,,2,1,0.61644996485,,,,,,2016_Aug_24_1329,P8,PLC_L_D1S1,NHGX,60.0161632083,
stim/posf.jpg,stim/negf.jpg,stim/3.jpg,stim/1.jpg,stim/latef.jpg,AB,1,2,0,48,48,6,,,,,,,,,,,,,,,,,,2,1,0.683111366413,,,,,,2016_Aug_24_1329,P8,PLC_L_D1S1,NHGX,60.0161632083,
stim/posf.jpg,stim/negf.jpg,stim/2.jpg,stim/5.jpg,stim/latef.jpg,EF,1,2,0,49,49,41,,,,,,,,,,,,,,,,,,2,1,0.883037562734,,,,,,2016_Aug_24_1329,P8,PLC_L_D1S1,NHGX,60.0161632083,
stim/negf.jpg,stim/posf.jpg,stim/5.jpg,stim/2.jpg,stim/latef.jpg,EF,2,4,0,50,50,59,,,,,,,,,,,,,,,,,,4,1,0.816396843645,,,,,,2016_Aug_24_1329,P8,PLC_L_D1S1,NHGX,60.0161632083,
stim/posf.jpg,stim/negf.jpg,stim/6.jpg,stim/4.jpg,stim/latef.jpg,CD,1,2,0,51,51,20,,,,,,,,,,,,,,,,,,2,1,1.06631937234,,,,,,2016_Aug_24_1329,P8,PLC_L_D1S1,NHGX,60.0161632083,
stim/negf.jpg,stim/posf.jpg,stim/1.jpg,stim/3.jpg,stim/latef.jpg,AB,2,4,0,52,52,19,,,,,,,,,,,,,,,,,,4,1,0.999660313606,,,,,,2016_Aug_24_1329,P8,PLC_L_D1S1,NHGX,60.0161632083,
stim/negf.jpg,stim/posf.jpg,stim/6.jpg,stim/4.jpg,stim/latef.jpg,CD,1,2,0,53,53,29,,,,,,,,,,,,,,,,,,2,1,0.849719195648,,,,,,2016_Aug_24_1329,P8,PLC_L_D1S1,NHGX,60.0161632083,
stim/negf.jpg,stim/posf.jpg,stim/6.jpg,stim/4.jpg,stim/latef.jpg,CD,1,2,0,54,54,27,,,,,,,,,,,,,,,,,,2,1,1.46619303091,,,,,,2016_Aug_24_1329,P8,PLC_L_D1S1,NHGX,60.0161632083,
stim/posf.jpg,stim/negf.jpg,stim/6.jpg,stim/4.jpg,stim/latef.jpg,CD,1,2,0,55,55,26,,,,,,,,,,,,,,,,,,2,1,0.99966247298,,,,,,2016_Aug_24_1329,P8,PLC_L_D1S1,NHGX,60.0161632083,
stim/posf.jpg,stim/negf.jpg,stim/4.jpg,stim/6.jpg,stim/latef.jpg,CD,2,4,0,56,56,34,,,,,,,,,,,,,,,,,,4,1,0.899708821329,,,,,,2016_Aug_24_1329,P8,PLC_L_D1S1,NHGX,60.0161632083,
stim/posf.jpg,stim/negf.jpg,stim/3.jpg,stim/1.jpg,stim/latef.jpg,AB,1,2,0,57,57,1,,,,,,,,,,,,,,,,,,2,1,0.899729338391,,,,,,2016_Aug_24_1329,P8,PLC_L_D1S1,NHGX,60.0161632083,
stim/negf.jpg,stim/posf.jpg,stim/2.jpg,stim/5.jpg,stim/latef.jpg,EF,1,2,0,58,58,46,,,,,,,,,,,,,,,,,,2,1,1.13294818179,,,,,,2016_Aug_24_1329,P8,PLC_L_D1S1,NHGX,60.0161632083,
stim/negf.jpg,stim/posf.jpg,stim/4.jpg,stim/6.jpg,stim/latef.jpg,CD,2,4,0,59,59,37,,,,,,,,,,,,,,,,,,4,1,0.783112686699,,,,,,2016_Aug_24_1329,P8,PLC_L_D1S1,NHGX,60.0161632083,
,,,,,,,,,,,,,,,,,,,,,,,,,,,,,,,,0.9984375,1.0,1,0,0,2016_Aug_24_1329,P8,PLC_L_D1S1,NHGX,60.0161632083,
stim/negf.jpg,stim/posf.jpg,stim/4.jpg,stim/6.jpg,stim/latef.jpg,CD,2,4,,,,,0,0,0,37,,,,,,,,,,,,,,4,1,0.833048433288,,,,,,2016_Aug_24_1329,P8,PLC_L_D1S1,NHGX,60.0161632083,
stim/posf.jpg,stim/negf.jpg,stim/3.jpg,stim/1.jpg,stim/latef.jpg,AB,1,2,,,,,0,1,1,1,,,,,,,,,,,,,,2,1,0.899703245452,,,,,,2016_Aug_24_1329,P8,PLC_L_D1S1,NHGX,60.0161632083,
stim/posf.jpg,stim/negf.jpg,stim/6.jpg,stim/4.jpg,stim/latef.jpg,CD,1,2,,,,,0,2,2,25,,,,,,,,,,,,,,2,1,1.34955063815,,,,,,2016_Aug_24_1329,P8,PLC_L_D1S1,NHGX,60.0161632083,
stim/posf.jpg,stim/negf.jpg,stim/4.jpg,stim/6.jpg,stim/latef.jpg,CD,2,4,,,,,0,3,3,36,,,,,,,,,,,,,,4,1,0.783066861652,,,,,,2016_Aug_24_1329,P8,PLC_L_D1S1,NHGX,60.0161632083,
stim/negf.jpg,stim/posf.jpg,stim/3.jpg,stim/1.jpg,stim/latef.jpg,AB,1,2,,,,,0,4,4,9,,,,,,,,,,,,,,2,1,0.716429405684,,,,,,2016_Aug_24_1329,P8,PLC_L_D1S1,NHGX,60.0161632083,
stim/negf.jpg,stim/posf.jpg,stim/1.jpg,stim/3.jpg,stim/latef.jpg,AB,2,4,,,,,0,5,5,18,,,,,,,,,,,,,,4,1,0.783066209028,,,,,,2016_Aug_24_1329,P8,PLC_L_D1S1,NHGX,60.0161632083,
stim/posf.jpg,stim/negf.jpg,stim/6.jpg,stim/4.jpg,stim/latef.jpg,CD,1,2,,,,,0,6,6,22,,,,,,,,,,,,,,2,1,0.833094507957,,,,,,2016_Aug_24_1329,P8,PLC_L_D1S1,NHGX,60.0161632083,
stim/negf.jpg,stim/posf.jpg,stim/5.jpg,stim/2.jpg,stim/latef.jpg,EF,2,4,,,,,0,7,7,58,,,,,,,,,,,,,,4,1,0.91635710274,,,,,,2016_Aug_24_1329,P8,PLC_L_D1S1,NHGX,60.0161632083,
stim/posf.jpg,stim/negf.jpg,stim/1.jpg,stim/3.jpg,stim/latef.jpg,AB,2,4,,,,,0,8,8,11,,,,,,,,,,,,,,4,1,0.833068312764,,,,,,2016_Aug_24_1329,P8,PLC_L_D1S1,NHGX,60.0161632083,
stim/negf.jpg,stim/posf.jpg,stim/3.jpg,stim/1.jpg,stim/latef.jpg,AB,1,2,,,,,0,9,9,8,,,,,,,,,,,,,,2,1,0.76637911001,,,,,,2016_Aug_24_1329,P8,PLC_L_D1S1,NHGX,60.0161632083,
stim/posf.jpg,stim/negf.jpg,stim/5.jpg,stim/2.jpg,stim/latef.jpg,EF,2,4,,,,,0,10,10,50,,,,,,,,,,,,,,4,1,0.899693233535,,,,,,2016_Aug_24_1329,P8,PLC_L_D1S1,NHGX,60.0161632083,
stim/negf.jpg,stim/posf.jpg,stim/4.jpg,stim/6.jpg,stim/latef.jpg,CD,2,4,,,,,0,11,11,38,,,,,,,,,,,,,,4,1,0.949668760127,,,,,,2016_Aug_24_1329,P8,PLC_L_D1S1,NHGX,60.0161632083,
stim/posf.jpg,stim/negf.jpg,stim/4.jpg,stim/6.jpg,stim/latef.jpg,CD,2,4,,,,,0,12,12,31,,,,,,,,,,,,,,4,1,1.06638026789,,,,,,2016_Aug_24_1329,P8,PLC_L_D1S1,NHGX,60.0161632083,
stim/posf.jpg,stim/negf.jpg,stim/6.jpg,stim/4.jpg,stim/latef.jpg,CD,1,2,,,,,0,13,13,26,,,,,,,,,,,,,,2,1,1.2162738706,,,,,,2016_Aug_24_1329,P8,PLC_L_D1S1,NHGX,60.0161632083,
stim/posf.jpg,stim/negf.jpg,stim/4.jpg,stim/6.jpg,stim/latef.jpg,CD,2,4,,,,,0,14,14,33,,,,,,,,,,,,,,4,1,0.833025564373,,,,,,2016_Aug_24_1329,P8,PLC_L_D1S1,NHGX,60.0161632083,
stim/posf.jpg,stim/negf.jpg,stim/5.jpg,stim/2.jpg,stim/latef.jpg,EF,2,4,,,,,0,15,15,54,,,,,,,,,,,,,,4,1,1.1996523167,,,,,,2016_Aug_24_1329,P8,PLC_L_D1S1,NHGX,60.0161632083,
stim/posf.jpg,stim/negf.jpg,stim/2.jpg,stim/5.jpg,stim/latef.jpg,EF,1,2,,,,,0,16,16,42,,,,,,,,,,,,,,2,1,0.833065197009,,,,,,2016_Aug_24_1329,P8,PLC_L_D1S1,NHGX,60.0161632083,
stim/negf.jpg,stim/posf.jpg,stim/4.jpg,stim/6.jpg,stim/latef.jpg,CD,2,4,,,,,0,17,17,39,,,,,,,,,,,,,,4,1,0.749681277279,,,,,,2016_Aug_24_1329,P8,PLC_L_D1S1,NHGX,60.0161632083,
stim/posf.jpg,stim/negf.jpg,stim/4.jpg,stim/6.jpg,stim/latef.jpg,CD,2,4,,,,,0,18,18,32,,,,,,,,,,,,,,4,1,0.833032454521,,,,,,2016_Aug_24_1329,P8,PLC_L_D1S1,NHGX,60.0161632083,
stim/posf.jpg,stim/negf.jpg,stim/4.jpg,stim/6.jpg,stim/latef.jpg,CD,2,4,,,,,0,19,19,35,,,,,,,,,,,,,,4,1,0.899698932719,,,,,,2016_Aug_24_1329,P8,PLC_L_D1S1,NHGX,60.0161632083,
stim/posf.jpg,stim/negf.jpg,stim/5.jpg,stim/2.jpg,stim/latef.jpg,EF,2,4,,,,,0,20,20,52,,,,,,,,,,,,,,4,1,0.699752438882,,,,,,2016_Aug_24_1329,P8,PLC_L_D1S1,NHGX,60.0161632083,
stim/posf.jpg,stim/negf.jpg,stim/2.jpg,stim/5.jpg,stim/latef.jpg,EF,1,2,,,,,0,21,21,41,,,,,,,,,,,,,,2,1,0.866393037672,,,,,,2016_Aug_24_1329,P8,PLC_L_D1S1,NHGX,60.0161632083,
stim/posf.jpg,stim/negf.jpg,stim/1.jpg,stim/3.jpg,stim/latef.jpg,AB,2,4,,,,,0,22,22,10,,,,,,,,,,,,,,2,0,1.21626162412,,,,,,2016_Aug_24_1329,P8,PLC_L_D1S1,NHGX,60.0161632083,
stim/posf.jpg,stim/negf.jpg,stim/1.jpg,stim/3.jpg,stim/latef.jpg,AB,2,4,,,,,0,23,23,15,,,,,,,,,,,,,,2,0,0.849785606929,,,,,,2016_Aug_24_1329,P8,PLC_L_D1S1,NHGX,60.0161632083,
stim/posf.jpg,stim/negf.jpg,stim/1.jpg,stim/3.jpg,stim/latef.jpg,AB,2,4,,,,,0,24,24,14,,,,,,,,,,,,,,2,0,0.983040125111,,,,,,2016_Aug_24_1329,P8,PLC_L_D1S1,NHGX,60.0161632083,
stim/posf.jpg,stim/negf.jpg,stim/6.jpg,stim/4.jpg,stim/latef.jpg,CD,1,2,,,,,0,25,25,21,,,,,,,,,,,,,,2,1,0.816392055729,,,,,,2016_Aug_24_1329,P8,PLC_L_D1S1,NHGX,60.0161632083,
stim/posf.jpg,stim/negf.jpg,stim/2.jpg,stim/5.jpg,stim/latef.jpg,EF,1,2,,,,,0,26,26,40,,,,,,,,,,,,,,2,1,0.93301768777,,,,,,2016_Aug_24_1329,P8,PLC_L_D1S1,NHGX,60.0161632083,
stim/posf.jpg,stim/negf.jpg,stim/2.jpg,stim/5.jpg,stim/latef.jpg,EF,1,2,,,,,0,27,27,45,,,,,,,,,,,,,,2,1,0.899702355237,,,,,,2016_Aug_24_1329,P8,PLC_L_D1S1,NHGX,60.0161632083,
stim/posf.jpg,stim/negf.jpg,stim/3.jpg,stim/1.jpg,stim/latef.jpg,AB,1,2,,,,,0,28,28,0,,,,,,,,,,,,,,2,1,0.799724213637,,,,,,2016_Aug_24_1329,P8,PLC_L_D1S1,NHGX,60.0161632083,
stim/posf.jpg,stim/negf.jpg,stim/5.jpg,stim/2.jpg,stim/latef.jpg,EF,2,4,,,,,0,29,29,55,,,,,,,,,,,,,,4,1,0.816445176934,,,,,,2016_Aug_24_1329,P8,PLC_L_D1S1,NHGX,60.0161632083,
stim/negf.jpg,stim/posf.jpg,stim/1.jpg,stim/3.jpg,stim/latef.jpg,AB,2,4,,,,,0,30,30,19,,,,,,,,,,,,,,4,1,0.716446301733,,,,,,2016_Aug_24_1329,P8,PLC_L_D1S1,NHGX,60.0161632083,
stim/negf.jpg,stim/posf.jpg,stim/5.jpg,stim/2.jpg,stim/latef.jpg,EF,2,4,,,,,0,31,31,59,,,,,,,,,,,,,,4,1,1.21629139521,,,,,,2016_Aug_24_1329,P8,PLC_L_D1S1,NHGX,60.0161632083,
stim/posf.jpg,stim/negf.jpg,stim/2.jpg,stim/5.jpg,stim/latef.jpg,EF,1,2,,,,,0,32,32,43,,,,,,,,,,,,,,2,1,0.683097811679,,,,,,2016_Aug_24_1329,P8,PLC_L_D1S1,NHGX,60.0161632083,
stim/posf.jpg,stim/negf.jpg,stim/6.jpg,stim/4.jpg,stim/latef.jpg,CD,1,2,,,,,0,33,33,23,,,,,,,,,,,,,,2,1,1.09964686714,,,,,,2016_Aug_24_1329,P8,PLC_L_D1S1,NHGX,60.0161632083,
stim/negf.jpg,stim/posf.jpg,stim/6.jpg,stim/4.jpg,stim/latef.jpg,CD,1,2,,,,,0,34,34,29,,,,,,,,,,,,,,2,1,0.66643629132,,,,,,2016_Aug_24_1329,P8,PLC_L_D1S1,NHGX,60.0161632083,
stim/posf.jpg,stim/negf.jpg,stim/5.jpg,stim/2.jpg,stim/latef.jpg,EF,2,4,,,,,0,35,35,53,,,,,,,,,,,,,,4,1,0.882988874562,,,,,,2016_Aug_24_1329,P8,PLC_L_D1S1,NHGX,60.0161632083,
stim/negf.jpg,stim/posf.jpg,stim/6.jpg,stim/4.jpg,stim/latef.jpg,CD,1,2,,,,,0,36,36,28,,,,,,,,,,,,,,2,1,0.933052643767,,,,,,2016_Aug_24_1329,P8,PLC_L_D1S1,NHGX,60.0161632083,
stim/posf.jpg,stim/negf.jpg,stim/3.jpg,stim/1.jpg,stim/latef.jpg,AB,1,2,,,,,0,37,37,2,,,,,,,,,,,,,,2,1,1.06629656658,,,,,,2016_Aug_24_1329,P8,PLC_L_D1S1,NHGX,60.0161632083,
stim/posf.jpg,stim/negf.jpg,stim/3.jpg,stim/1.jpg,stim/latef.jpg,AB,1,2,,,,,0,38,38,3,,,,,,,,,,,,,,2,1,0.816389812145,,,,,,2016_Aug_24_1329,P8,PLC_L_D1S1,NHGX,60.0161632083,
stim/posf.jpg,stim/negf.jpg,stim/2.jpg,stim/5.jpg,stim/latef.jpg,EF,1,2,,,,,0,39,39,44,,,,,,,,,,,,,,2,1,0.666457503111,,,,,,2016_Aug_24_1329,P8,PLC_L_D1S1,NHGX,60.0161632083,
stim/posf.jpg,stim/negf.jpg,stim/6.jpg,stim/4.jpg,stim/latef.jpg,CD,1,2,,,,,0,40,40,20,,,,,,,,,,,,,,2,1,0.949668633812,,,,,,2016_Aug_24_1329,P8,PLC_L_D1S1,NHGX,60.0161632083,
stim/posf.jpg,stim/negf.jpg,stim/5.jpg,stim/2.jpg,stim/latef.jpg,EF,2,4,,,,,0,41,41,51,,,,,,,,,,,,,,4,1,0.766385488885,,,,,,2016_Aug_24_1329,P8,PLC_L_D1S1,NHGX,60.0161632083,
stim/posf.jpg,stim/negf.jpg,stim/3.jpg,stim/1.jpg,stim/latef.jpg,AB,1,2,,,,,0,42,42,4,,,,,,,,,,,,,,2,1,0.733078772796,,,,,,2016_Aug_24_1329,P8,PLC_L_D1S1,NHGX,60.0161632083,
stim/posf.jpg,stim/negf.jpg,stim/1.jpg,stim/3.jpg,stim/latef.jpg,AB,2,4,,,,,0,43,43,12,,,,,,,,,,,,,,4,1,0.916405754822,,,,,,2016_Aug_24_1329,P8,PLC_L_D1S1,NHGX,60.0161632083,
stim/negf.jpg,stim/posf.jpg,stim/2.jpg,stim/5.jpg,stim/latef.jpg,EF,1,2,,,,,0,44,44,49,,,,,,,,,,,,,,2,1,1.36621866971,,,,,,2016_Aug_24_1329,P8,PLC_L_D1S1,NHGX,60.0161632083,
stim/posf.jpg,stim/negf.jpg,stim/4.jpg,stim/6.jpg,stim/latef.jpg,CD,2,4,,,,,0,45,45,30,,,,,,,,,,,,,,4,1,1.31620083383,,,,,,2016_Aug_24_1329,P8,PLC_L_D1S1,NHGX,60.0161632083,
stim/posf.jpg,stim/negf.jpg,stim/1.jpg,stim/3.jpg,stim/latef.jpg,AB,2,4,,,,,0,46,46,16,,,,,,,,,,,,,,4,1,0.866448745315,,,,,,2016_Aug_24_1329,P8,PLC_L_D1S1,NHGX,60.0161632083,
stim/posf.jpg,stim/negf.jpg,stim/3.jpg,stim/1.jpg,stim/latef.jpg,AB,1,2,,,,,0,47,47,7,,,,,,,,,,,,,,2,1,0.683100867283,,,,,,2016_Aug_24_1329,P8,PLC_L_D1S1,NHGX,60.0161632083,
stim/negf.jpg,stim/posf.jpg,stim/2.jpg,stim/5.jpg,stim/latef.jpg,EF,1,2,,,,,0,48,48,46,,,,,,,,,,,,,,2,1,0.733072760833,,,,,,2016_Aug_24_1329,P8,PLC_L_D1S1,NHGX,60.0161632083,
stim/negf.jpg,stim/posf.jpg,stim/5.jpg,stim/2.jpg,stim/latef.jpg,EF,2,4,,,,,0,49,49,57,,,,,,,,,,,,,,4,1,0.949673668342,,,,,,2016_Aug_24_1329,P8,PLC_L_D1S1,NHGX,60.0161632083,
stim/negf.jpg,stim/posf.jpg,stim/5.jpg,stim/2.jpg,stim/latef.jpg,EF,2,4,,,,,0,50,50,56,,,,,,,,,,,,,,2,0,0.866368153743,,,,,,2016_Aug_24_1329,P8,PLC_L_D1S1,NHGX,60.0161632083,
stim/posf.jpg,stim/negf.jpg,stim/4.jpg,stim/6.jpg,stim/latef.jpg,CD,2,4,,,,,0,51,51,34,,,,,,,,,,,,,,4,1,1.08298042052,,,,,,2016_Aug_24_1329,P8,PLC_L_D1S1,NHGX,60.0161632083,
stim/posf.jpg,stim/negf.jpg,stim/6.jpg,stim/4.jpg,stim/latef.jpg,CD,1,2,,,,,0,52,52,24,,,,,,,,,,,,,,2,1,1.0329616072,,,,,,2016_Aug_24_1329,P8,PLC_L_D1S1,NHGX,60.0161632083,
stim/posf.jpg,stim/negf.jpg,stim/1.jpg,stim/3.jpg,stim/latef.jpg,AB,2,4,,,,,0,53,53,17,,,,,,,,,,,,,,4,1,0.733090312515,,,,,,2016_Aug_24_1329,P8,PLC_L_D1S1,NHGX,60.0161632083,
stim/posf.jpg,stim/negf.jpg,stim/3.jpg,stim/1.jpg,stim/latef.jpg,AB,1,2,,,,,0,54,54,6,,,,,,,,,,,,,,2,1,0.749748265997,,,,,,2016_Aug_24_1329,P8,PLC_L_D1S1,NHGX,60.0161632083,
stim/negf.jpg,stim/posf.jpg,stim/2.jpg,stim/5.jpg,stim/latef.jpg,EF,1,2,,,,,0,55,55,47,,,,,,,,,,,,,,4,0,1.48284734533,,,,,,2016_Aug_24_1329,P8,PLC_L_D1S1,NHGX,60.0161632083,
stim/posf.jpg,stim/negf.jpg,stim/1.jpg,stim/3.jpg,stim/latef.jpg,AB,2,4,,,,,0,56,56,13,,,,,,,,,,,,,,4,1,0.749715658846,,,,,,2016_Aug_24_1329,P8,PLC_L_D1S1,NHGX,60.0161632083,
stim/negf.jpg,stim/posf.jpg,stim/2.jpg,stim/5.jpg,stim/latef.jpg,EF,1,2,,,,,0,57,57,48,,,,,,,,,,,,,,4,0,1.01633580373,,,,,,2016_Aug_24_1329,P8,PLC_L_D1S1,NHGX,60.0161632083,
stim/posf.jpg,stim/negf.jpg,stim/3.jpg,stim/1.jpg,stim/latef.jpg,AB,1,2,,,,,0,58,58,5,,,,,,,,,,,,,,2,1,0.816380937057,,,,,,2016_Aug_24_1329,P8,PLC_L_D1S1,NHGX,60.0161632083,
stim/negf.jpg,stim/posf.jpg,stim/6.jpg,stim/4.jpg,stim/latef.jpg,CD,1,2,,,,,0,59,59,27,,,,,,,,,,,,,,2,1,1.24950458754,,,,,,2016_Aug_24_1329,P8,PLC_L_D1S1,NHGX,60.0161632083,
,,,,,,,,,,,,,,,,,,,,,,,,,,,,,,,,0.9984375,1.0,1,0,0,2016_Aug_24_1329,P8,PLC_L_D1S1,NHGX,60.0161632083,
stim/negf.jpg,stim/posf.jpg,stim/5.jpg,stim/2.jpg,stim/latef.jpg,EF,2,4,,,,,,,,,0,0,0,59,,,,,,,,,,2,0,1.39954632391,,,,,,2016_Aug_24_1329,P8,PLC_L_D1S1,NHGX,60.0161632083,
stim/posf.jpg,stim/negf.jpg,stim/3.jpg,stim/1.jpg,stim/latef.jpg,AB,1,2,,,,,,,,,0,1,1,0,,,,,,,,,,2,1,0.932996100044,,,,,,2016_Aug_24_1329,P8,PLC_L_D1S1,NHGX,60.0161632083,
stim/posf.jpg,stim/negf.jpg,stim/5.jpg,stim/2.jpg,stim/latef.jpg,EF,2,4,,,,,,,,,0,2,2,55,,,,,,,,,,2,0,0.999624945583,,,,,,2016_Aug_24_1329,P8,PLC_L_D1S1,NHGX,60.0161632083,
stim/posf.jpg,stim/negf.jpg,stim/2.jpg,stim/5.jpg,stim/latef.jpg,EF,1,2,,,,,,,,,0,3,3,43,,,,,,,,,,4,0,0.916364344763,,,,,,2016_Aug_24_1329,P8,PLC_L_D1S1,NHGX,60.0161632083,
stim/negf.jpg,stim/posf.jpg,stim/4.jpg,stim/6.jpg,stim/latef.jpg,CD,2,4,,,,,,,,,0,4,4,37,,,,,,,,,,4,1,1.38288202464,,,,,,2016_Aug_24_1329,P8,PLC_L_D1S1,NHGX,60.0161632083,
stim/negf.jpg,stim/posf.jpg,stim/1.jpg,stim/3.jpg,stim/latef.jpg,AB,2,4,,,,,,,,,0,5,5,18,,,,,,,,,,4,1,0.81639686169,,,,,,2016_Aug_24_1329,P8,PLC_L_D1S1,NHGX,60.0161632083,
stim/posf.jpg,stim/negf.jpg,stim/5.jpg,stim/2.jpg,stim/latef.jpg,EF,2,4,,,,,,,,,0,6,6,50,,,,,,,,,,2,0,1.34954064127,,,,,,2016_Aug_24_1329,P8,PLC_L_D1S1,NHGX,60.0161632083,
stim/posf.jpg,stim/negf.jpg,stim/6.jpg,stim/4.jpg,stim/latef.jpg,CD,1,2,,,,,,,,,0,7,7,26,,,,,,,,,,2,1,1.3161782416,,,,,,2016_Aug_24_1329,P8,PLC_L_D1S1,NHGX,60.0161632083,
stim/negf.jpg,stim/posf.jpg,stim/2.jpg,stim/5.jpg,stim/latef.jpg,EF,1,2,,,,,,,,,0,8,8,49,,,,,,,,,,4,0,1.61612247681,,,,,,2016_Aug_24_1329,P8,PLC_L_D1S1,NHGX,60.0161632083,
stim/negf.jpg,stim/posf.jpg,stim/5.jpg,stim/2.jpg,stim/latef.jpg,EF,2,4,,,,,,,,,0,9,9,56,,,,,,,,,,2,0,0.766388866291,,,,,,2016_Aug_24_1329,P8,PLC_L_D1S1,NHGX,60.0161632083,
stim/negf.jpg,stim/posf.jpg,stim/6.jpg,stim/4.jpg,stim/latef.jpg,CD,1,2,,,,,,,,,0,10,10,29,,,,,,,,,,2,1,1.0996509092,,,,,,2016_Aug_24_1329,P8,PLC_L_D1S1,NHGX,60.0161632083,
stim/posf.jpg,stim/negf.jpg,stim/3.jpg,stim/1.jpg,stim/latef.jpg,AB,1,2,,,,,,,,,0,11,11,4,,,,,,,,,,2,1,0.999653703154,,,,,,2016_Aug_24_1329,P8,PLC_L_D1S1,NHGX,60.0161632083,
stim/negf.jpg,stim/posf.jpg,stim/3.jpg,stim/1.jpg,stim/latef.jpg,AB,1,2,,,,,,,,,0,12,12,8,,,,,,,,,,2,1,0.749750822359,,,,,,2016_Aug_24_1329,P8,PLC_L_D1S1,NHGX,60.0161632083,
stim/posf.jpg,stim/negf.jpg,stim/4.jpg,stim/6.jpg,stim/latef.jpg,CD,2,4,,,,,,,,,0,13,13,34,,,,,,,,,,4,1,1.23293116845,,,,,,2016_Aug_24_1329,P8,PLC_L_D1S1,NHGX,60.0161632083,
stim/posf.jpg,stim/negf.jpg,stim/3.jpg,stim/1.jpg,stim/latef.jpg,AB,1,2,,,,,,,,,0,14,14,3,,,,,,,,,,2,1,0.599795091033,,,,,,2016_Aug_24_1329,P8,PLC_L_D1S1,NHGX,60.0161632083,
stim/posf.jpg,stim/negf.jpg,stim/5.jpg,stim/2.jpg,stim/latef.jpg,EF,2,4,,,,,,,,,0,15,15,51,,,,,,,,,,2,0,0.866366295117,,,,,,2016_Aug_24_1329,P8,PLC_L_D1S1,NHGX,60.0161632083,
stim/posf.jpg,stim/negf.jpg,stim/3.jpg,stim/1.jpg,stim/latef.jpg,AB,1,2,,,,,,,,,0,16,16,6,,,,,,,,,,2,1,0.666456405379,,,,,,2016_Aug_24_1329,P8,PLC_L_D1S1,NHGX,60.0161632083,
stim/posf.jpg,stim/negf.jpg,stim/3.jpg,stim/1.jpg,stim/latef.jpg,AB,1,2,,,,,,,,,0,17,17,1,,,,,,,,,,2,1,0.949677099882,,,,,,2016_Aug_24_1329,P8,PLC_L_D1S1,NHGX,60.0161632083,
stim/posf.jpg,stim/negf.jpg,stim/1.jpg,stim/3.jpg,stim/latef.jpg,AB,2,4,,,,,,,,,0,18,18,12,,,,,,,,,,4,1,0.916355505765,,,,,,2016_Aug_24_1329,P8,PLC_L_D1S1,NHGX,60.0161632083,
stim/posf.jpg,stim/negf.jpg,stim/1.jpg,stim/3.jpg,stim/latef.jpg,AB,2,4,,,,,,,,,0,19,19,17,,,,,,,,,,4,1,0.716427201197,,,,,,2016_Aug_24_1329,P8,PLC_L_D1S1,NHGX,60.0161632083,
stim/negf.jpg,stim/posf.jpg,stim/2.jpg,stim/5.jpg,stim/latef.jpg,EF,1,2,,,,,,,,,0,20,20,47,,,,,,,,,,4,0,0.833032361289,,,,,,2016_Aug_24_1329,P8,PLC_L_D1S1,NHGX,60.0161632083,
stim/posf.jpg,stim/negf.jpg,stim/2.jpg,stim/5.jpg,stim/latef.jpg,EF,1,2,,,,,,,,,0,21,21,45,,,,,,,,,,4,0,0.716397541381,,,,,,2016_Aug_24_1329,P8,PLC_L_D1S1,NHGX,60.0161632083,
stim/posf.jpg,stim/negf.jpg,stim/1.jpg,stim/3.jpg,stim/latef.jpg,AB,2,4,,,,,,,,,0,22,22,11,,,,,,,,,,4,1,0.683146578046,,,,,,2016_Aug_24_1329,P8,PLC_L_D1S1,NHGX,60.0161632083,
stim/posf.jpg,stim/negf.jpg,stim/5.jpg,stim/2.jpg,stim/latef.jpg,EF,2,4,,,,,,,,,0,23,23,54,,,,,,,,,,2,0,0.68306222411,,,,,,2016_Aug_24_1329,P8,PLC_L_D1S1,NHGX,60.0161632083,
stim/posf.jpg,stim/negf.jpg,stim/6.jpg,stim/4.jpg,stim/latef.jpg,CD,1,2,,,,,,,,,0,24,24,23,,,,,,,,,,2,1,1.11628891103,,,,,,2016_Aug_24_1329,P8,PLC_L_D1S1,NHGX,60.0161632083,
stim/posf.jpg,stim/negf.jpg,stim/6.jpg,stim/4.jpg,stim/latef.jpg,CD,1,2,,,,,,,,,0,25,25,25,,,,,,,,,,2,1,1.04965613771,,,,,,2016_Aug_24_1329,P8,PLC_L_D1S1,NHGX,60.0161632083,
stim/posf.jpg,stim/negf.jpg,stim/3.jpg,stim/1.jpg,stim/latef.jpg,AB,1,2,,,,,,,,,0,26,26,7,,,,,,,,,,2,1,0.599809770566,,,,,,2016_Aug_24_1329,P8,PLC_L_D1S1,NHGX,60.0161632083,
stim/posf.jpg,stim/negf.jpg,stim/6.jpg,stim/4.jpg,stim/latef.jpg,CD,1,2,,,,,,,,,0,27,27,20,,,,,,,,,,2,1,0.733104068751,,,,,,2016_Aug_24_1329,P8,PLC_L_D1S1,NHGX,60.0161632083,
stim/posf.jpg,stim/negf.jpg,stim/5.jpg,stim/2.jpg,stim/latef.jpg,EF,2,4,,,,,,,,,0,28,28,52,,,,,,,,,,2,0,0.666451954301,,,,,,2016_Aug_24_1329,P8,PLC_L_D1S1,NHGX,60.0161632083,
stim/posf.jpg,stim/negf.jpg,stim/2.jpg,stim/5.jpg,stim/latef.jpg,EF,1,2,,,,,,,,,0,29,29,44,,,,,,,,,,4,0,0.916359830528,,,,,,2016_Aug_24_1329,P8,PLC_L_D1S1,NHGX,60.0161632083,
stim/negf.jpg,stim/posf.jpg,stim/4.jpg,stim/6.jpg,stim/latef.jpg,CD,2,4,,,,,,,,,0,30,30,38,,,,,,,,,,4,1,0.883062536889,,,,,,2016_Aug_24_1329,P8,PLC_L_D1S1,NHGX,60.0161632083,
stim/posf.jpg,stim/negf.jpg,stim/1.jpg,stim/3.jpg,stim/latef.jpg,AB,2,4,,,,,,,,,0,31,31,15,,,,,,,,,,4,1,0.933027074131,,,,,,2016_Aug_24_1329,P8,PLC_L_D1S1,NHGX,60.0161632083,
stim/posf.jpg,stim/negf.jpg,stim/4.jpg,stim/6.jpg,stim/latef.jpg,CD,2,4,,,,,,,,,0,32,32,31,,,,,,,,,,4,1,0.716413706612,,,,,,2016_Aug_24_1329,P8,PLC_L_D1S1,NHGX,60.0161632083,
stim/posf.jpg,stim/negf.jpg,stim/5.jpg,stim/2.jpg,stim/latef.jpg,EF,2,4,,,,,,,,,0,33,33,53,,,,,,,,,,4,1,0.8330535009,,,,,,2016_Aug_24_1329,P8,PLC_L_D1S1,NHGX,60.0161632083,
stim/posf.jpg,stim/negf.jpg,stim/1.jpg,stim/3.jpg,stim/latef.jpg,AB,2,4,,,,,,,,,0,34,34,10,,,,,,,,,,4,1,0.683107450668,,,,,,2016_Aug_24_1329,P8,PLC_L_D1S1,NHGX,60.0161632083,
stim/negf.jpg,stim/posf.jpg,stim/4.jpg,stim/6.jpg,stim/latef.jpg,CD,2,4,,,,,,,,,0,35,35,39,,,,,,,,,,4,1,0.916400473679,,,,,,2016_Aug_24_1329,P8,PLC_L_D1S1,NHGX,60.0161632083,
stim/posf.jpg,stim/negf.jpg,stim/6.jpg,stim/4.jpg,stim/latef.jpg,CD,1,2,,,,,,,,,0,36,36,21,,,,,,,,,,2,1,0.866389579065,,,,,,2016_Aug_24_1329,P8,PLC_L_D1S1,NHGX,60.0161632083,
stim/negf.jpg,stim/posf.jpg,stim/1.jpg,stim/3.jpg,stim/latef.jpg,AB,2,4,,,,,,,,,0,37,37,19,,,,,,,,,,4,1,0.733097247776,,,,,,2016_Aug_24_1329,P8,PLC_L_D1S1,NHGX,60.0161632083,
stim/posf.jpg,stim/negf.jpg,stim/4.jpg,stim/6.jpg,stim/latef.jpg,CD,2,4,,,,,,,,,0,38,38,32,,,,,,,,,,4,1,0.733053801649,,,,,,2016_Aug_24_1329,P8,PLC_L_D1S1,NHGX,60.0161632083,
stim/negf.jpg,stim/posf.jpg,stim/3.jpg,stim/1.jpg,stim/latef.jpg,AB,1,2,,,,,,,,,0,39,39,9,,,,,,,,,,2,1,1.06631704755,,,,,,2016_Aug_24_1329,P8,PLC_L_D1S1,NHGX,60.0161632083,
stim/posf.jpg,stim/negf.jpg,stim/3.jpg,stim/1.jpg,stim/latef.jpg,AB,1,2,,,,,,,,,0,40,40,5,,,,,,,,,,2,1,0.683109372451,,,,,,2016_Aug_24_1329,P8,PLC_L_D1S1,NHGX,60.0161632083,
stim/posf.jpg,stim/negf.jpg,stim/6.jpg,stim/4.jpg,stim/latef.jpg,CD,1,2,,,,,,,,,0,41,41,24,,,,,,,,,,2,1,0.933016611091,,,,,,2016_Aug_24_1329,P8,PLC_L_D1S1,NHGX,60.0161632083,
stim/negf.jpg,stim/posf.jpg,stim/2.jpg,stim/5.jpg,stim/latef.jpg,EF,1,2,,,,,,,,,0,42,42,46,,,,,,,,,,2,1,1.31621433142,,,,,,2016_Aug_24_1329,P8,PLC_L_D1S1,NHGX,60.0161632083,
stim/posf.jpg,stim/negf.jpg,stim/2.jpg,stim/5.jpg,stim/latef.jpg,EF,1,2,,,,,,,,,0,43,43,41,,,,,,,,,,4,0,0.883059923384,,,,,,2016_Aug_24_1329,P8,PLC_L_D1S1,NHGX,60.0161632083,
stim/negf.jpg,stim/posf.jpg,stim/5.jpg,stim/2.jpg,stim/latef.jpg,EF,2,4,,,,,,,,,0,44,44,57,,,,,,,,,,2,0,1.06631622952,,,,,,2016_Aug_24_1329,P8,PLC_L_D1S1,NHGX,60.0161632083,
stim/negf.jpg,stim/posf.jpg,stim/6.jpg,stim/4.jpg,stim/latef.jpg,CD,1,2,,,,,,,,,0,45,45,27,,,,,,,,,,2,1,0.766409455533,,,,,,2016_Aug_24_1329,P8,PLC_L_D1S1,NHGX,60.0161632083,
stim/negf.jpg,stim/posf.jpg,stim/5.jpg,stim/2.jpg,stim/latef.jpg,EF,2,4,,,,,,,,,0,46,46,58,,,,,,,,,,2,0,0.749737036049,,,,,,2016_Aug_24_1329,P8,PLC_L_D1S1,NHGX,60.0161632083,
stim/posf.jpg,stim/negf.jpg,stim/2.jpg,stim/5.jpg,stim/latef.jpg,EF,1,2,,,,,,,,,0,47,47,40,,,,,,,,,,4,0,0.649787393375,,,,,,2016_Aug_24_1329,P8,PLC_L_D1S1,NHGX,60.0161632083,
stim/posf.jpg,stim/negf.jpg,stim/4.jpg,stim/6.jpg,stim/latef.jpg,CD,2,4,,,,,,,,,0,48,48,35,,,,,,,,,,4,1,1.01633680522,,,,,,2016_Aug_24_1329,P8,PLC_L_D1S1,NHGX,60.0161632083,
stim/posf.jpg,stim/negf.jpg,stim/4.jpg,stim/6.jpg,stim/latef.jpg,CD,2,4,,,,,,,,,0,49,49,36,,,,,,,,,,4,1,0.783071739792,,,,,,2016_Aug_24_1329,P8,PLC_L_D1S1,NHGX,60.0161632083,
stim/posf.jpg,stim/negf.jpg,stim/3.jpg,stim/1.jpg,stim/latef.jpg,AB,1,2,,,,,,,,,0,50,50,2,,,,,,,,,,2,1,0.783116719736,,,,,,2016_Aug_24_1329,P8,PLC_L_D1S1,NHGX,60.0161632083,
stim/posf.jpg,stim/negf.jpg,stim/4.jpg,stim/6.jpg,stim/latef.jpg,CD,2,4,,,,,,,,,0,51,51,30,,,,,,,,,,4,1,0.683019737372,,,,,,2016_Aug_24_1329,P8,PLC_L_D1S1,NHGX,60.0161632083,
stim/negf.jpg,stim/posf.jpg,stim/2.jpg,stim/5.jpg,stim/latef.jpg,EF,1,2,,,,,,,,,0,52,52,48,,,,,,,,,,4,0,1.58280145111,,,,,,2016_Aug_24_1329,P8,PLC_L_D1S1,NHGX,60.0161632083,
stim/posf.jpg,stim/negf.jpg,stim/1.jpg,stim/3.jpg,stim/latef.jpg,AB,2,4,,,,,,,,,0,53,53,13,,,,,,,,,,4,1,0.79972160314,,,,,,2016_Aug_24_1329,P8,PLC_L_D1S1,NHGX,60.0161632083,
stim/posf.jpg,stim/negf.jpg,stim/1.jpg,stim/3.jpg,stim/latef.jpg,AB,2,4,,,,,,,,,0,54,54,16,,,,,,,,,,4,1,0.799754071947,,,,,,2016_Aug_24_1329,P8,PLC_L_D1S1,NHGX,60.0161632083,
stim/posf.jpg,stim/negf.jpg,stim/6.jpg,stim/4.jpg,stim/latef.jpg,CD,1,2,,,,,,,,,0,55,55,22,,,,,,,,,,2,1,0.949688678699,,,,,,2016_Aug_24_1329,P8,PLC_L_D1S1,NHGX,60.0161632083,
stim/posf.jpg,stim/negf.jpg,stim/2.jpg,stim/5.jpg,stim/latef.jpg,EF,1,2,,,,,,,,,0,56,56,42,,,,,,,,,,4,0,1.13296864471,,,,,,2016_Aug_24_1329,P8,PLC_L_D1S1,NHGX,60.0161632083,
stim/posf.jpg,stim/negf.jpg,stim/4.jpg,stim/6.jpg,stim/latef.jpg,CD,2,4,,,,,,,,,0,57,57,33,,,,,,,,,,4,1,1.06631678891,,,,,,2016_Aug_24_1329,P8,PLC_L_D1S1,NHGX,60.0161632083,
stim/negf.jpg,stim/posf.jpg,stim/6.jpg,stim/4.jpg,stim/latef.jpg,CD,1,2,,,,,,,,,0,58,58,28,,,,,,,,,,2,1,0.749758016263,,,,,,2016_Aug_24_1329,P8,PLC_L_D1S1,NHGX,60.0161632083,
stim/posf.jpg,stim/negf.jpg,stim/1.jpg,stim/3.jpg,stim/latef.jpg,AB,2,4,,,,,,,,,0,59,59,14,,,,,,,,,,4,1,0.833056165532,,,,,,2016_Aug_24_1329,P8,PLC_L_D1S1,NHGX,60.0161632083,
,,,,,,,,,,,,,,,,,,,,,,,,,,,,,,,,0.9984375,1.0,1,0,0,2016_Aug_24_1329,P8,PLC_L_D1S1,NHGX,60.0161632083,
stim/negf.jpg,stim/posf.jpg,stim/5.jpg,stim/2.jpg,stim/latef.jpg,EF,2,4,,,,,,,,,,,,,0,0,0,57,,,,,,2,0,1.11627380142,,,,,,2016_Aug_24_1329,P8,PLC_L_D1S1,NHGX,60.0161632083,
stim/posf.jpg,stim/negf.jpg,stim/4.jpg,stim/6.jpg,stim/latef.jpg,CD,2,4,,,,,,,,,,,,,0,1,1,34,,,,,,4,1,0.716435152987,,,,,,2016_Aug_24_1329,P8,PLC_L_D1S1,NHGX,60.0161632083,
stim/negf.jpg,stim/posf.jpg,stim/5.jpg,stim/2.jpg,stim/latef.jpg,EF,2,4,,,,,,,,,,,,,0,2,2,56,,,,,,2,0,0.633109064183,,,,,,2016_Aug_24_1329,P8,PLC_L_D1S1,NHGX,60.0161632083,
stim/posf.jpg,stim/negf.jpg,stim/6.jpg,stim/4.jpg,stim/latef.jpg,CD,1,2,,,,,,,,,,,,,0,3,3,25,,,,,,2,1,0.799732195502,,,,,,2016_Aug_24_1329,P8,PLC_L_D1S1,NHGX,60.0161632083,
stim/posf.jpg,stim/negf.jpg,stim/6.jpg,stim/4.jpg,stim/latef.jpg,CD,1,2,,,,,,,,,,,,,0,4,4,22,,,,,,2,1,0.833051979113,,,,,,2016_Aug_24_1329,P8,PLC_L_D1S1,NHGX,60.0161632083,
stim/posf.jpg,stim/negf.jpg,stim/1.jpg,stim/3.jpg,stim/latef.jpg,AB,2,4,,,,,,,,,,,,,0,5,5,14,,,,,,4,1,0.999672644293,,,,,,2016_Aug_24_1329,P8,PLC_L_D1S1,NHGX,60.0161632083,
stim/posf.jpg,stim/negf.jpg,stim/6.jpg,stim/4.jpg,stim/latef.jpg,CD,1,2,,,,,,,,,,,,,0,6,6,23,,,,,,2,1,0.900720812923,,,,,,2016_Aug_24_1329,P8,PLC_L_D1S1,NHGX,60.0161632083,
stim/posf.jpg,stim/negf.jpg,stim/3.jpg,stim/1.jpg,stim/latef.jpg,AB,1,2,,,,,,,,,,,,,0,7,7,5,,,,,,2,1,0.716539654064,,,,,,2016_Aug_24_1329,P8,PLC_L_D1S1,NHGX,60.0161632083,
stim/posf.jpg,stim/negf.jpg,stim/2.jpg,stim/5.jpg,stim/latef.jpg,EF,1,2,,,,,,,,,,,,,0,8,8,41,,,,,,4,0,0.983011923926,,,,,,2016_Aug_24_1329,P8,PLC_L_D1S1,NHGX,60.0161632083,
stim/negf.jpg,stim/posf.jpg,stim/1.jpg,stim/3.jpg,stim/latef.jpg,AB,2,4,,,,,,,,,,,,,0,9,9,18,,,,,,4,1,0.783042795758,,,,,,2016_Aug_24_1329,P8,PLC_L_D1S1,NHGX,60.0161632083,
stim/posf.jpg,stim/negf.jpg,stim/6.jpg,stim/4.jpg,stim/latef.jpg,CD,1,2,,,,,,,,,,,,,0,10,10,21,,,,,,2,1,0.899693940294,,,,,,2016_Aug_24_1329,P8,PLC_L_D1S1,NHGX,60.0161632083,
stim/negf.jpg,stim/posf.jpg,stim/6.jpg,stim/4.jpg,stim/latef.jpg,CD,1,2,,,,,,,,,,,,,0,11,11,29,,,,,,2,1,0.883040155186,,,,,,2016_Aug_24_1329,P8,PLC_L_D1S1,NHGX,60.0161632083,
stim/posf.jpg,stim/negf.jpg,stim/2.jpg,stim/5.jpg,stim/latef.jpg,EF,1,2,,,,,,,,,,,,,0,12,12,40,,,,,,4,0,0.849704591302,,,,,,2016_Aug_24_1329,P8,PLC_L_D1S1,NHGX,60.0161632083,
stim/posf.jpg,stim/negf.jpg,stim/1.jpg,stim/3.jpg,stim/latef.jpg,AB,2,4,,,,,,,,,,,,,0,13,13,15,,,,,,4,1,0.966359982406,,,,,,2016_Aug_24_1329,P8,PLC_L_D1S1,NHGX,60.0161632083,
stim/posf.jpg,stim/negf.jpg,stim/3.jpg,stim/1.jpg,stim/latef.jpg,AB,1,2,,,,,,,,,,,,,0,14,14,2,,,,,,2,1,0.766440992019,,,,,,2016_Aug_24_1329,P8,PLC_L_D1S1,NHGX,60.0161632083,
stim/negf.jpg,stim/posf.jpg,stim/3.jpg,stim/1.jpg,stim/latef.jpg,AB,1,2,,,,,,,,,,,,,0,15,15,9,,,,,,2,1,0.633122718165,,,,,,2016_Aug_24_1329,P8,PLC_L_D1S1,NHGX,60.0161632083,
stim/posf.jpg,stim/negf.jpg,stim/1.jpg,stim/3.jpg,stim/latef.jpg,AB,2,4,,,,,,,,,,,,,0,16,16,11,,,,,,4,1,0.716488316297,,,,,,2016_Aug_24_1329,P8,PLC_L_D1S1,NHGX,60.0161632083,
stim/negf.jpg,stim/posf.jpg,stim/4.jpg,stim/6.jpg,stim/latef.jpg,CD,2,4,,,,,,,,,,,,,0,17,17,37,,,,,,4,1,1.14962504934,,,,,,2016_Aug_24_1329,P8,PLC_L_D1S1,NHGX,60.0161632083,
stim/posf.jpg,stim/negf.jpg,stim/4.jpg,stim/6.jpg,stim/latef.jpg,CD,2,4,,,,,,,,,,,,,0,18,18,30,,,,,,4,1,0.799664142134,,,,,,2016_Aug_24_1329,P8,PLC_L_D1S1,NHGX,60.0161632083,
stim/negf.jpg,stim/posf.jpg,stim/2.jpg,stim/5.jpg,stim/latef.jpg,EF,1,2,,,,,,,,,,,,,0,19,19,46,,,,,,4,0,1.09962712601,,,,,,2016_Aug_24_1329,P8,PLC_L_D1S1,NHGX,60.0161632083,
stim/posf.jpg,stim/negf.jpg,stim/6.jpg,stim/4.jpg,stim/latef.jpg,CD,1,2,,,,,,,,,,,,,0,20,20,26,,,,,,2,1,1.01626746165,,,,,,2016_Aug_24_1329,P8,PLC_L_D1S1,NHGX,60.0161632083,
stim/posf.jpg,stim/negf.jpg,stim/4.jpg,stim/6.jpg,stim/latef.jpg,CD,2,4,,,,,,,,,,,,,0,21,21,36,,,,,,4,1,0.749648008481,,,,,,2016_Aug_24_1329,P8,PLC_L_D1S1,NHGX,60.0161632083,
stim/posf.jpg,stim/negf.jpg,stim/3.jpg,stim/1.jpg,stim/latef.jpg,AB,1,2,,,,,,,,,,,,,0,22,22,3,,,,,,2,1,0.966345829182,,,,,,2016_Aug_24_1329,P8,PLC_L_D1S1,NHGX,60.0161632083,
stim/posf.jpg,stim/negf.jpg,stim/1.jpg,stim/3.jpg,stim/latef.jpg,AB,2,4,,,,,,,,,,,,,0,23,23,17,,,,,,4,1,0.633167448487,,,,,,2016_Aug_24_1329,P8,PLC_L_D1S1,NHGX,60.0161632083,
stim/posf.jpg,stim/negf.jpg,stim/3.jpg,stim/1.jpg,stim/latef.jpg,AB,1,2,,,,,,,,,,,,,0,24,24,7,,,,,,2,1,0.583129862445,,,,,,2016_Aug_24_1329,P8,PLC_L_D1S1,NHGX,60.0161632083,
stim/posf.jpg,stim/negf.jpg,stim/4.jpg,stim/6.jpg,stim/latef.jpg,CD,2,4,,,,,,,,,,,,,0,25,25,31,,,,,,4,1,0.683085462946,,,,,,2016_Aug_24_1329,P8,PLC_L_D1S1,NHGX,60.0161632083,
stim/negf.jpg,stim/posf.jpg,stim/6.jpg,stim/4.jpg,stim/latef.jpg,CD,1,2,,,,,,,,,,,,,0,26,26,28,,,,,,2,1,0.93304455664,,,,,,2016_Aug_24_1329,P8,PLC_L_D1S1,NHGX,60.0161632083,
stim/posf.jpg,stim/negf.jpg,stim/5.jpg,stim/2.jpg,stim/latef.jpg,EF,2,4,,,,,,,,,,,,,0,27,27,54,,,,,,2,0,0.733080481047,,,,,,2016_Aug_24_1329,P8,PLC_L_D1S1,NHGX,60.0161632083,
stim/posf.jpg,stim/negf.jpg,stim/5.jpg,stim/2.jpg,stim/latef.jpg,EF,2,4,,,,,,,,,,,,,0,28,28,53,,,,,,2,0,0.783089276437,,,,,,2016_Aug_24_1329,P8,PLC_L_D1S1,NHGX,60.0161632083,
stim/posf.jpg,stim/negf.jpg,stim/6.jpg,stim/4.jpg,stim/latef.jpg,CD,1,2,,,,,,,,,,,,,0,29,29,24,,,,,,2,1,0.983002194712,,,,,,2016_Aug_24_1329,P8,PLC_L_D1S1,NHGX,60.0161632083,
stim/negf.jpg,stim/posf.jpg,stim/3.jpg,stim/1.jpg,stim/latef.jpg,AB,1,2,,,,,,,,,,,,,0,30,30,8,,,,,,2,1,0.833064604534,,,,,,2016_Aug_24_1329,P8,PLC_L_D1S1,NHGX,60.0161632083,
stim/posf.jpg,stim/negf.jpg,stim/5.jpg,stim/2.jpg,stim/latef.jpg,EF,2,4,,,,,,,,,,,,,0,31,31,51,,,,,,2,0,0.766368749225,,,,,,2016_Aug_24_1329,P8,PLC_L_D1S1,NHGX,60.0161632083,
stim/posf.jpg,stim/negf.jpg,stim/4.jpg,stim/6.jpg,stim/latef.jpg,CD,2,4,,,,,,,,,,,,,0,32,32,35,,,,,,4,1,0.833050397176,,,,,,2016_Aug_24_1329,P8,PLC_L_D1S1,NHGX,60.0161632083,
stim/posf.jpg,stim/negf.jpg,stim/6.jpg,stim/4.jpg,stim/latef.jpg,CD,1,2,,,,,,,,,,,,,0,33,33,20,,,,,,2,1,0.933029735755,,,,,,2016_Aug_24_1329,P8,PLC_L_D1S1,NHGX,60.0161632083,
stim/posf.jpg,stim/negf.jpg,stim/4.jpg,stim/6.jpg,stim/latef.jpg,CD,2,4,,,,,,,,,,,,,0,34,34,33,,,,,,4,1,0.733095262835,,,,,,2016_Aug_24_1329,P8,PLC_L_D1S1,NHGX,60.0161632083,
stim/posf.jpg,stim/negf.jpg,stim/2.jpg,stim/5.jpg,stim/latef.jpg,EF,1,2,,,,,,,,,,,,,0,35,35,45,,,,,,4,0,0.933022559896,,,,,,2016_Aug_24_1329,P8,PLC_L_D1S1,NHGX,60.0161632083,
stim/posf.jpg,stim/negf.jpg,stim/3.jpg,stim/1.jpg,stim/latef.jpg,AB,1,2,,,,,,,,,,,,,0,36,36,6,,,,,,2,1,0.816375568696,,,,,,2016_Aug_24_1329,P8,PLC_L_D1S1,NHGX,60.0161632083,
stim/posf.jpg,stim/negf.jpg,stim/1.jpg,stim/3.jpg,stim/latef.jpg,AB,2,4,,,,,,,,,,,,,0,37,37,12,,,,,,4,1,0.683098319944,,,,,,2016_Aug_24_1329,P8,PLC_L_D1S1,NHGX,60.0161632083,
stim/negf.jpg,stim/posf.jpg,stim/5.jpg,stim/2.jpg,stim/latef.jpg,EF,2,4,,,,,,,,,,,,,0,38,38,58,,,,,,4,1,0.633111214535,,,,,,2016_Aug_24_1329,P8,PLC_L_D1S1,NHGX,60.0161632083,
stim/negf.jpg,stim/posf.jpg,stim/5.jpg,stim/2.jpg,stim/latef.jpg,EF,2,4,,,,,,,,,,,,,0,39,39,59,,,,,,4,1,0.866330542137,,,,,,2016_Aug_24_1329,P8,PLC_L_D1S1,NHGX,60.0161632083,
stim/negf.jpg,stim/posf.jpg,stim/2.jpg,stim/5.jpg,stim/latef.jpg,EF,1,2,,,,,,,,,,,,,0,40,40,49,,,,,,4,0,0.916362687639,,,,,,2016_Aug_24_1329,P8,PLC_L_D1S1,NHGX,60.0161632083,
stim/negf.jpg,stim/posf.jpg,stim/2.jpg,stim/5.jpg,stim/latef.jpg,EF,1,2,,,,,,,,,,,,,0,41,41,48,,,,,,4,0,0.616435835686,,,,,,2016_Aug_24_1329,P8,PLC_L_D1S1,NHGX,60.0161632083,
stim/posf.jpg,stim/negf.jpg,stim/3.jpg,stim/1.jpg,stim/latef.jpg,AB,1,2,,,,,,,,,,,,,0,42,42,4,,,,,,2,1,0.733041479983,,,,,,2016_Aug_24_1329,P8,PLC_L_D1S1,NHGX,60.0161632083,
stim/posf.jpg,stim/negf.jpg,stim/2.jpg,stim/5.jpg,stim/latef.jpg,EF,1,2,,,,,,,,,,,,,0,43,43,44,,,,,,4,0,0.849721463292,,,,,,2016_Aug_24_1329,P8,PLC_L_D1S1,NHGX,60.0161632083,
stim/posf.jpg,stim/negf.jpg,stim/5.jpg,stim/2.jpg,stim/latef.jpg,EF,2,4,,,,,,,,,,,,,0,44,44,50,,,,,,2,0,0.716402771397,,,,,,2016_Aug_24_1329,P8,PLC_L_D1S1,NHGX,60.0161632083,
stim/posf.jpg,stim/negf.jpg,stim/4.jpg,stim/6.jpg,stim/latef.jpg,CD,2,4,,,,,,,,,,,,,0,45,45,32,,,,,,4,1,1.01632775269,,,,,,2016_Aug_24_1329,P8,PLC_L_D1S1,NHGX,60.0161632083,
stim/negf.jpg,stim/posf.jpg,stim/6.jpg,stim/4.jpg,stim/latef.jpg,CD,1,2,,,,,,,,,,,,,0,46,46,27,,,,,,2,1,0.783061225625,,,,,,2016_Aug_24_1329,P8,PLC_L_D1S1,NHGX,60.0161632083,
stim/negf.jpg,stim/posf.jpg,stim/1.jpg,stim/3.jpg,stim/latef.jpg,AB,2,4,,,,,,,,,,,,,0,47,47,19,,,,,,4,1,0.699742580347,,,,,,2016_Aug_24_1329,P8,PLC_L_D1S1,NHGX,60.0161632083,
stim/posf.jpg,stim/negf.jpg,stim/3.jpg,stim/1.jpg,stim/latef.jpg,AB,1,2,,,,,,,,,,,,,0,48,48,0,,,,,,2,1,0.616441862686,,,,,,2016_Aug_24_1329,P8,PLC_L_D1S1,NHGX,60.0161632083,
stim/posf.jpg,stim/negf.jpg,stim/1.jpg,stim/3.jpg,stim/latef.jpg,AB,2,4,,,,,,,,,,,,,0,49,49,16,,,,,,4,1,0.73309236362,,,,,,2016_Aug_24_1329,P8,PLC_L_D1S1,NHGX,60.0161632083,
stim/posf.jpg,stim/negf.jpg,stim/1.jpg,stim/3.jpg,stim/latef.jpg,AB,2,4,,,,,,,,,,,,,0,50,50,10,,,,,,4,1,0.6831069815,,,,,,2016_Aug_24_1329,P8,PLC_L_D1S1,NHGX,60.0161632083,
stim/negf.jpg,stim/posf.jpg,stim/4.jpg,stim/6.jpg,stim/latef.jpg,CD,2,4,,,,,,,,,,,,,0,51,51,38,,,,,,4,1,0.899690460634,,,,,,2016_Aug_24_1329,P8,PLC_L_D1S1,NHGX,60.0161632083,
stim/posf.jpg,stim/negf.jpg,stim/2.jpg,stim/5.jpg,stim/latef.jpg,EF,1,2,,,,,,,,,,,,,0,52,52,43,,,,,,4,0,1.31623809055,,,,,,2016_Aug_24_1329,P8,PLC_L_D1S1,NHGX,60.0161632083,
stim/posf.jpg,stim/negf.jpg,stim/3.jpg,stim/1.jpg,stim/latef.jpg,AB,1,2,,,,,,,,,,,,,0,53,53,1,,,,,,2,1,0.699779701733,,,,,,2016_Aug_24_1329,P8,PLC_L_D1S1,NHGX,60.0161632083,
stim/posf.jpg,stim/negf.jpg,stim/5.jpg,stim/2.jpg,stim/latef.jpg,EF,2,4,,,,,,,,,,,,,0,54,54,55,,,,,,2,0,0.783087080973,,,,,,2016_Aug_24_1329,P8,PLC_L_D1S1,NHGX,60.0161632083,
stim/negf.jpg,stim/posf.jpg,stim/4.jpg,stim/6.jpg,stim/latef.jpg,CD,2,4,,,,,,,,,,,,,0,55,55,39,,,,,,4,1,0.783080741195,,,,,,2016_Aug_24_1329,P8,PLC_L_D1S1,NHGX,60.0161632083,
stim/posf.jpg,stim/negf.jpg,stim/2.jpg,stim/5.jpg,stim/latef.jpg,EF,1,2,,,,,,,,,,,,,0,56,56,42,,,,,,4,0,0.699696872592,,,,,,2016_Aug_24_1329,P8,PLC_L_D1S1,NHGX,60.0161632083,
stim/negf.jpg,stim/posf.jpg,stim/2.jpg,stim/5.jpg,stim/latef.jpg,EF,1,2,,,,,,,,,,,,,0,57,57,47,,,,,,4,0,0.66644331079,,,,,,2016_Aug_24_1329,P8,PLC_L_D1S1,NHGX,60.0161632083,
stim/posf.jpg,stim/negf.jpg,stim/5.jpg,stim/2.jpg,stim/latef.jpg,EF,2,4,,,,,,,,,,,,,0,58,58,52,,,,,,2,0,0.633114703218,,,,,,2016_Aug_24_1329,P8,PLC_L_D1S1,NHGX,60.0161632083,
stim/posf.jpg,stim/negf.jpg,stim/1.jpg,stim/3.jpg,stim/latef.jpg,AB,2,4,,,,,,,,,,,,,0,59,59,13,,,,,,4,1,0.716476301395,,,,,,2016_Aug_24_1329,P8,PLC_L_D1S1,NHGX,60.0161632083,
