fb_corr,fb_incorr,symbol2,symbol1,fb_late,pair,position,correct,block_01.thisRepN,block_01.thisTrialN,block_01.thisN,block_01.thisIndex,block_02.thisRepN,block_02.thisTrialN,block_02.thisN,block_02.thisIndex,block_03.thisRepN,block_03.thisTrialN,block_03.thisN,block_03.thisIndex,block_04.thisRepN,block_04.thisTrialN,block_04.thisN,block_04.thisIndex,mouse.x,mouse.y,mouse.leftButton,mouse.midButton,mouse.rightButton,buttonBox_2.keys,buttonBox_2.corr,buttonBox_2.rt,mouse_2.x,mouse_2.y,mouse_2.leftButton,mouse_2.midButton,mouse_2.rightButton,date,Participant,expName,Group,frameRate,
,,,,,,,,,,,,,,,,,,,,,,,,-0.2484375,0.705078125,1,0,0,,,,,,,,,2016_Sep_01_1310,P9,PLC_L_D1S1,NHGX,60.0241648256,
stim/posf.jpg,stim/negf.jpg,stim/4.jpg,stim/6.jpg,stim/latef.jpg,AB,2,4,0,0,0,13,,,,,,,,,,,,,,,,,,2,0,1.16641585859,,,,,,2016_Sep_01_1310,P9,PLC_L_D1S1,NHGX,60.0241648256,
stim/negf.jpg,stim/posf.jpg,stim/2.jpg,stim/3.jpg,stim/latef.jpg,EF,1,2,0,1,1,47,,,,,,,,,,,,,,,,,,4,0,1.03392988147,,,,,,2016_Sep_01_1310,P9,PLC_L_D1S1,NHGX,60.0241648256,
stim/posf.jpg,stim/negf.jpg,stim/1.jpg,stim/5.jpg,stim/latef.jpg,CD,2,4,0,2,2,33,,,,,,,,,,,,,,,,,,2,0,1.51617538581,,,,,,2016_Sep_01_1310,P9,PLC_L_D1S1,NHGX,60.0241648256,
stim/negf.jpg,stim/posf.jpg,stim/6.jpg,stim/4.jpg,stim/latef.jpg,AB,1,2,0,3,3,8,,,,,,,,,,,,,,,,,,4,0,1.16625468626,,,,,,2016_Sep_01_1310,P9,PLC_L_D1S1,NHGX,60.0241648256,
stim/negf.jpg,stim/posf.jpg,stim/2.jpg,stim/3.jpg,stim/latef.jpg,EF,1,2,0,4,4,48,,,,,,,,,,,,,,,,,,4,0,1.43287784031,,,,,,2016_Sep_01_1310,P9,PLC_L_D1S1,NHGX,60.0241648256,
stim/negf.jpg,stim/posf.jpg,stim/3.jpg,stim/2.jpg,stim/latef.jpg,EF,2,4,0,5,5,58,,,,,,,,,,,,,,,,,,2,0,1.23292171082,,,,,,2016_Sep_01_1310,P9,PLC_L_D1S1,NHGX,60.0241648256,
stim/posf.jpg,stim/negf.jpg,stim/6.jpg,stim/4.jpg,stim/latef.jpg,AB,1,2,0,6,6,3,,,,,,,,,,,,,,,,,,4,0,1.0496503968,,,,,,2016_Sep_01_1310,P9,PLC_L_D1S1,NHGX,60.0241648256,
stim/posf.jpg,stim/negf.jpg,stim/1.jpg,stim/5.jpg,stim/latef.jpg,CD,2,4,0,7,7,35,,,,,,,,,,,,,,,,,,4,1,1.24960395788,,,,,,2016_Sep_01_1310,P9,PLC_L_D1S1,NHGX,60.0241648256,
stim/posf.jpg,stim/negf.jpg,stim/2.jpg,stim/3.jpg,stim/latef.jpg,EF,1,2,0,8,8,44,,,,,,,,,,,,,,,,,,4,0,0.916371282815,,,,,,2016_Sep_01_1310,P9,PLC_L_D1S1,NHGX,60.0241648256,
stim/posf.jpg,stim/negf.jpg,stim/2.jpg,stim/3.jpg,stim/latef.jpg,EF,1,2,0,9,9,45,,,,,,,,,,,,,,,,,,4,0,1.08295777535,,,,,,2016_Sep_01_1310,P9,PLC_L_D1S1,NHGX,60.0241648256,
stim/negf.jpg,stim/posf.jpg,stim/6.jpg,stim/4.jpg,stim/latef.jpg,AB,1,2,0,10,10,9,,,,,,,,,,,,,,,,,,4,0,0.899604984944,,,,,,2016_Sep_01_1310,P9,PLC_L_D1S1,NHGX,60.0241648256,
stim/posf.jpg,stim/negf.jpg,stim/4.jpg,stim/6.jpg,stim/latef.jpg,AB,2,4,0,11,11,15,,,,,,,,,,,,,,,,,,4,1,1.33287720272,,,,,,2016_Sep_01_1310,P9,PLC_L_D1S1,NHGX,60.0241648256,
stim/negf.jpg,stim/posf.jpg,stim/3.jpg,stim/2.jpg,stim/latef.jpg,EF,2,4,0,12,12,59,,,,,,,,,,,,,,,,,,2,0,1.58281312627,,,,,,2016_Sep_01_1310,P9,PLC_L_D1S1,NHGX,60.0241648256,
stim/posf.jpg,stim/negf.jpg,stim/1.jpg,stim/5.jpg,stim/latef.jpg,CD,2,4,0,13,13,31,,,,,,,,,,,,,,,,,,2,0,1.49954088894,,,,,,2016_Sep_01_1310,P9,PLC_L_D1S1,NHGX,60.0241648256,
stim/posf.jpg,stim/negf.jpg,stim/6.jpg,stim/4.jpg,stim/latef.jpg,AB,1,2,0,14,14,4,,,,,,,,,,,,,,,,,,2,1,1.41620874508,,,,,,2016_Sep_01_1310,P9,PLC_L_D1S1,NHGX,60.0241648256,
stim/posf.jpg,stim/negf.jpg,stim/4.jpg,stim/6.jpg,stim/latef.jpg,AB,2,4,0,15,15,14,,,,,,,,,,,,,,,,,,4,1,0.833057707302,,,,,,2016_Sep_01_1310,P9,PLC_L_D1S1,NHGX,60.0241648256,
stim/negf.jpg,stim/posf.jpg,stim/2.jpg,stim/3.jpg,stim/latef.jpg,EF,1,2,0,16,16,49,,,,,,,,,,,,,,,,,,2,1,1.43286539825,,,,,,2016_Sep_01_1310,P9,PLC_L_D1S1,NHGX,60.0241648256,
stim/posf.jpg,stim/negf.jpg,stim/5.jpg,stim/1.jpg,stim/latef.jpg,CD,1,2,0,17,17,23,,,,,,,,,,,,,,,,,,None,0,,,,,,,2016_Sep_01_1310,P9,PLC_L_D1S1,NHGX,60.0241648256,
stim/posf.jpg,stim/negf.jpg,stim/6.jpg,stim/4.jpg,stim/latef.jpg,AB,1,2,0,18,18,2,,,,,,,,,,,,,,,,,,4,0,1.199654681,,,,,,2016_Sep_01_1310,P9,PLC_L_D1S1,NHGX,60.0241648256,
stim/posf.jpg,stim/negf.jpg,stim/1.jpg,stim/5.jpg,stim/latef.jpg,CD,2,4,0,19,19,32,,,,,,,,,,,,,,,,,,4,1,0.96634387991,,,,,,2016_Sep_01_1310,P9,PLC_L_D1S1,NHGX,60.0241648256,
stim/posf.jpg,stim/negf.jpg,stim/5.jpg,stim/1.jpg,stim/latef.jpg,CD,1,2,0,20,20,21,,,,,,,,,,,,,,,,,,4,0,0.88302015406,,,,,,2016_Sep_01_1310,P9,PLC_L_D1S1,NHGX,60.0241648256,
stim/posf.jpg,stim/negf.jpg,stim/3.jpg,stim/2.jpg,stim/latef.jpg,EF,2,4,0,21,21,52,,,,,,,,,,,,,,,,,,2,0,1.34956950989,,,,,,2016_Sep_01_1310,P9,PLC_L_D1S1,NHGX,60.0241648256,
stim/posf.jpg,stim/negf.jpg,stim/2.jpg,stim/3.jpg,stim/latef.jpg,EF,1,2,0,22,22,40,,,,,,,,,,,,,,,,,,2,1,1.34960025263,,,,,,2016_Sep_01_1310,P9,PLC_L_D1S1,NHGX,60.0241648256,
stim/posf.jpg,stim/negf.jpg,stim/5.jpg,stim/1.jpg,stim/latef.jpg,CD,1,2,0,23,23,24,,,,,,,,,,,,,,,,,,2,1,1.53274540772,,,,,,2016_Sep_01_1310,P9,PLC_L_D1S1,NHGX,60.0241648256,
stim/negf.jpg,stim/posf.jpg,stim/3.jpg,stim/2.jpg,stim/latef.jpg,EF,2,4,0,24,24,57,,,,,,,,,,,,,,,,,,4,1,1.56610253646,,,,,,2016_Sep_01_1310,P9,PLC_L_D1S1,NHGX,60.0241648256,
stim/posf.jpg,stim/negf.jpg,stim/4.jpg,stim/6.jpg,stim/latef.jpg,AB,2,4,0,25,25,12,,,,,,,,,,,,,,,,,,4,1,1.0829954925,,,,,,2016_Sep_01_1310,P9,PLC_L_D1S1,NHGX,60.0241648256,
stim/posf.jpg,stim/negf.jpg,stim/3.jpg,stim/2.jpg,stim/latef.jpg,EF,2,4,0,26,26,50,,,,,,,,,,,,,,,,,,2,0,1.18293283409,,,,,,2016_Sep_01_1310,P9,PLC_L_D1S1,NHGX,60.0241648256,
stim/posf.jpg,stim/negf.jpg,stim/1.jpg,stim/5.jpg,stim/latef.jpg,CD,2,4,0,27,27,36,,,,,,,,,,,,,,,,,,None,0,,,,,,,2016_Sep_01_1310,P9,PLC_L_D1S1,NHGX,60.0241648256,
stim/posf.jpg,stim/negf.jpg,stim/4.jpg,stim/6.jpg,stim/latef.jpg,AB,2,4,0,28,28,11,,,,,,,,,,,,,,,,,,4,1,1.08298900831,,,,,,2016_Sep_01_1310,P9,PLC_L_D1S1,NHGX,60.0241648256,
stim/negf.jpg,stim/posf.jpg,stim/4.jpg,stim/6.jpg,stim/latef.jpg,AB,2,4,0,29,29,19,,,,,,,,,,,,,,,,,,2,0,1.03300599622,,,,,,2016_Sep_01_1310,P9,PLC_L_D1S1,NHGX,60.0241648256,
stim/posf.jpg,stim/negf.jpg,stim/2.jpg,stim/3.jpg,stim/latef.jpg,EF,1,2,0,30,30,43,,,,,,,,,,,,,,,,,,4,0,1.4162352713,,,,,,2016_Sep_01_1310,P9,PLC_L_D1S1,NHGX,60.0241648256,
stim/posf.jpg,stim/negf.jpg,stim/5.jpg,stim/1.jpg,stim/latef.jpg,CD,1,2,0,31,31,26,,,,,,,,,,,,,,,,,,2,1,1.5494743704,,,,,,2016_Sep_01_1310,P9,PLC_L_D1S1,NHGX,60.0241648256,
stim/posf.jpg,stim/negf.jpg,stim/1.jpg,stim/5.jpg,stim/latef.jpg,CD,2,4,0,32,32,34,,,,,,,,,,,,,,,,,,2,0,1.06625605768,,,,,,2016_Sep_01_1310,P9,PLC_L_D1S1,NHGX,60.0241648256,
stim/posf.jpg,stim/negf.jpg,stim/3.jpg,stim/2.jpg,stim/latef.jpg,EF,2,4,0,33,33,51,,,,,,,,,,,,,,,,,,2,0,1.4495270499,,,,,,2016_Sep_01_1310,P9,PLC_L_D1S1,NHGX,60.0241648256,
stim/negf.jpg,stim/posf.jpg,stim/5.jpg,stim/1.jpg,stim/latef.jpg,CD,1,2,0,34,34,28,,,,,,,,,,,,,,,,,,4,0,0.883040358495,,,,,,2016_Sep_01_1310,P9,PLC_L_D1S1,NHGX,60.0241648256,
stim/posf.jpg,stim/negf.jpg,stim/1.jpg,stim/5.jpg,stim/latef.jpg,CD,2,4,0,35,35,30,,,,,,,,,,,,,,,,,,2,0,0.983033086342,,,,,,2016_Sep_01_1310,P9,PLC_L_D1S1,NHGX,60.0241648256,
stim/negf.jpg,stim/posf.jpg,stim/1.jpg,stim/5.jpg,stim/latef.jpg,CD,2,4,0,36,36,37,,,,,,,,,,,,,,,,,,2,0,1.19961118342,,,,,,2016_Sep_01_1310,P9,PLC_L_D1S1,NHGX,60.0241648256,
stim/negf.jpg,stim/posf.jpg,stim/3.jpg,stim/2.jpg,stim/latef.jpg,EF,2,4,0,37,37,56,,,,,,,,,,,,,,,,,,2,0,1.049669705,,,,,,2016_Sep_01_1310,P9,PLC_L_D1S1,NHGX,60.0241648256,
stim/posf.jpg,stim/negf.jpg,stim/3.jpg,stim/2.jpg,stim/latef.jpg,EF,2,4,0,38,38,53,,,,,,,,,,,,,,,,,,4,1,1.34957134146,,,,,,2016_Sep_01_1310,P9,PLC_L_D1S1,NHGX,60.0241648256,
stim/negf.jpg,stim/posf.jpg,stim/1.jpg,stim/5.jpg,stim/latef.jpg,CD,2,4,0,39,39,39,,,,,,,,,,,,,,,,,,2,0,1.24956199714,,,,,,2016_Sep_01_1310,P9,PLC_L_D1S1,NHGX,60.0241648256,
stim/negf.jpg,stim/posf.jpg,stim/5.jpg,stim/1.jpg,stim/latef.jpg,CD,1,2,0,40,40,29,,,,,,,,,,,,,,,,,,2,1,1.16626772982,,,,,,2016_Sep_01_1310,P9,PLC_L_D1S1,NHGX,60.0241648256,
stim/negf.jpg,stim/posf.jpg,stim/4.jpg,stim/6.jpg,stim/latef.jpg,AB,2,4,0,41,41,18,,,,,,,,,,,,,,,,,,4,1,1.03298928049,,,,,,2016_Sep_01_1310,P9,PLC_L_D1S1,NHGX,60.0241648256,
stim/posf.jpg,stim/negf.jpg,stim/6.jpg,stim/4.jpg,stim/latef.jpg,AB,1,2,0,42,42,6,,,,,,,,,,,,,,,,,,2,1,1.63279060154,,,,,,2016_Sep_01_1310,P9,PLC_L_D1S1,NHGX,60.0241648256,
stim/posf.jpg,stim/negf.jpg,stim/5.jpg,stim/1.jpg,stim/latef.jpg,CD,1,2,0,43,43,20,,,,,,,,,,,,,,,,,,2,1,1.38287188996,,,,,,2016_Sep_01_1310,P9,PLC_L_D1S1,NHGX,60.0241648256,
stim/posf.jpg,stim/negf.jpg,stim/2.jpg,stim/3.jpg,stim/latef.jpg,EF,1,2,0,44,44,42,,,,,,,,,,,,,,,,,,2,1,1.41619593911,,,,,,2016_Sep_01_1310,P9,PLC_L_D1S1,NHGX,60.0241648256,
stim/posf.jpg,stim/negf.jpg,stim/4.jpg,stim/6.jpg,stim/latef.jpg,AB,2,4,0,45,45,10,,,,,,,,,,,,,,,,,,4,1,1.1830248187,,,,,,2016_Sep_01_1310,P9,PLC_L_D1S1,NHGX,60.0241648256,
stim/negf.jpg,stim/posf.jpg,stim/5.jpg,stim/1.jpg,stim/latef.jpg,CD,1,2,0,46,46,27,,,,,,,,,,,,,,,,,,2,1,1.61606595163,,,,,,2016_Sep_01_1310,P9,PLC_L_D1S1,NHGX,60.0241648256,
stim/posf.jpg,stim/negf.jpg,stim/6.jpg,stim/4.jpg,stim/latef.jpg,AB,1,2,0,47,47,5,,,,,,,,,,,,,,,,,,2,1,1.19961173078,,,,,,2016_Sep_01_1310,P9,PLC_L_D1S1,NHGX,60.0241648256,
stim/posf.jpg,stim/negf.jpg,stim/6.jpg,stim/4.jpg,stim/latef.jpg,AB,1,2,0,48,48,0,,,,,,,,,,,,,,,,,,2,1,1.08297504145,,,,,,2016_Sep_01_1310,P9,PLC_L_D1S1,NHGX,60.0241648256,
stim/posf.jpg,stim/negf.jpg,stim/4.jpg,stim/6.jpg,stim/latef.jpg,AB,2,4,0,49,49,16,,,,,,,,,,,,,,,,,,4,1,1.19962383901,,,,,,2016_Sep_01_1310,P9,PLC_L_D1S1,NHGX,60.0241648256,
stim/posf.jpg,stim/negf.jpg,stim/4.jpg,stim/6.jpg,stim/latef.jpg,AB,2,4,0,50,50,17,,,,,,,,,,,,,,,,,,4,1,0.666427804407,,,,,,2016_Sep_01_1310,P9,PLC_L_D1S1,NHGX,60.0241648256,
stim/posf.jpg,stim/negf.jpg,stim/2.jpg,stim/3.jpg,stim/latef.jpg,EF,1,2,0,51,51,41,,,,,,,,,,,,,,,,,,2,1,1.51618946996,,,,,,2016_Sep_01_1310,P9,PLC_L_D1S1,NHGX,60.0241648256,
stim/negf.jpg,stim/posf.jpg,stim/2.jpg,stim/3.jpg,stim/latef.jpg,EF,1,2,0,52,52,46,,,,,,,,,,,,,,,,,,2,1,1.03299259176,,,,,,2016_Sep_01_1310,P9,PLC_L_D1S1,NHGX,60.0241648256,
stim/negf.jpg,stim/posf.jpg,stim/1.jpg,stim/5.jpg,stim/latef.jpg,CD,2,4,0,53,53,38,,,,,,,,,,,,,,,,,,4,1,1.6494479705,,,,,,2016_Sep_01_1310,P9,PLC_L_D1S1,NHGX,60.0241648256,
stim/posf.jpg,stim/negf.jpg,stim/6.jpg,stim/4.jpg,stim/latef.jpg,AB,1,2,0,54,54,1,,,,,,,,,,,,,,,,,,2,1,1.16629309815,,,,,,2016_Sep_01_1310,P9,PLC_L_D1S1,NHGX,60.0241648256,
stim/posf.jpg,stim/negf.jpg,stim/5.jpg,stim/1.jpg,stim/latef.jpg,CD,1,2,0,55,55,25,,,,,,,,,,,,,,,,,,4,0,1.59950243495,,,,,,2016_Sep_01_1310,P9,PLC_L_D1S1,NHGX,60.0241648256,
stim/posf.jpg,stim/negf.jpg,stim/3.jpg,stim/2.jpg,stim/latef.jpg,EF,2,4,0,56,56,54,,,,,,,,,,,,,,,,,,None,0,,,,,,,2016_Sep_01_1310,P9,PLC_L_D1S1,NHGX,60.0241648256,
stim/posf.jpg,stim/negf.jpg,stim/3.jpg,stim/2.jpg,stim/latef.jpg,EF,2,4,0,57,57,55,,,,,,,,,,,,,,,,,,2,0,1.04962623148,,,,,,2016_Sep_01_1310,P9,PLC_L_D1S1,NHGX,60.0241648256,
stim/posf.jpg,stim/negf.jpg,stim/6.jpg,stim/4.jpg,stim/latef.jpg,AB,1,2,0,58,58,7,,,,,,,,,,,,,,,,,,2,1,1.03292968372,,,,,,2016_Sep_01_1310,P9,PLC_L_D1S1,NHGX,60.0241648256,
stim/posf.jpg,stim/negf.jpg,stim/5.jpg,stim/1.jpg,stim/latef.jpg,CD,1,2,0,59,59,22,,,,,,,,,,,,,,,,,,4,0,1.1496314465,,,,,,2016_Sep_01_1310,P9,PLC_L_D1S1,NHGX,60.0241648256,
,,,,,,,,,,,,,,,,,,,,,,,,,,,,,,,,0.9984375,1.0,1,0,0,2016_Sep_01_1310,P9,PLC_L_D1S1,NHGX,60.0241648256,
stim/negf.jpg,stim/posf.jpg,stim/2.jpg,stim/3.jpg,stim/latef.jpg,EF,1,2,,,,,0,0,0,47,,,,,,,,,,,,,,2,1,1.39952812809,,,,,,2016_Sep_01_1310,P9,PLC_L_D1S1,NHGX,60.0241648256,
stim/posf.jpg,stim/negf.jpg,stim/5.jpg,stim/1.jpg,stim/latef.jpg,CD,1,2,,,,,0,1,1,23,,,,,,,,,,,,,,2,1,1.31622984274,,,,,,2016_Sep_01_1310,P9,PLC_L_D1S1,NHGX,60.0241648256,
stim/posf.jpg,stim/negf.jpg,stim/2.jpg,stim/3.jpg,stim/latef.jpg,EF,1,2,,,,,0,2,2,42,,,,,,,,,,,,,,4,0,1.18294197992,,,,,,2016_Sep_01_1310,P9,PLC_L_D1S1,NHGX,60.0241648256,
stim/posf.jpg,stim/negf.jpg,stim/6.jpg,stim/4.jpg,stim/latef.jpg,AB,1,2,,,,,0,3,3,2,,,,,,,,,,,,,,2,1,0.79971804918,,,,,,2016_Sep_01_1310,P9,PLC_L_D1S1,NHGX,60.0241648256,
stim/posf.jpg,stim/negf.jpg,stim/5.jpg,stim/1.jpg,stim/latef.jpg,CD,1,2,,,,,0,4,4,22,,,,,,,,,,,,,,2,1,1.53279218048,,,,,,2016_Sep_01_1310,P9,PLC_L_D1S1,NHGX,60.0241648256,
stim/posf.jpg,stim/negf.jpg,stim/4.jpg,stim/6.jpg,stim/latef.jpg,AB,2,4,,,,,0,5,5,12,,,,,,,,,,,,,,4,1,0.999731495746,,,,,,2016_Sep_01_1310,P9,PLC_L_D1S1,NHGX,60.0241648256,
stim/negf.jpg,stim/posf.jpg,stim/3.jpg,stim/2.jpg,stim/latef.jpg,EF,2,4,,,,,0,6,6,57,,,,,,,,,,,,,,2,0,1.26621200973,,,,,,2016_Sep_01_1310,P9,PLC_L_D1S1,NHGX,60.0241648256,
stim/posf.jpg,stim/negf.jpg,stim/4.jpg,stim/6.jpg,stim/latef.jpg,AB,2,4,,,,,0,7,7,14,,,,,,,,,,,,,,4,1,0.866373867767,,,,,,2016_Sep_01_1310,P9,PLC_L_D1S1,NHGX,60.0241648256,
stim/negf.jpg,stim/posf.jpg,stim/1.jpg,stim/5.jpg,stim/latef.jpg,CD,2,4,,,,,0,8,8,39,,,,,,,,,,,,,,4,1,1.34957587377,,,,,,2016_Sep_01_1310,P9,PLC_L_D1S1,NHGX,60.0241648256,
stim/posf.jpg,stim/negf.jpg,stim/3.jpg,stim/2.jpg,stim/latef.jpg,EF,2,4,,,,,0,9,9,51,,,,,,,,,,,,,,2,0,1.3162485344,,,,,,2016_Sep_01_1310,P9,PLC_L_D1S1,NHGX,60.0241648256,
stim/posf.jpg,stim/negf.jpg,stim/2.jpg,stim/3.jpg,stim/latef.jpg,EF,1,2,,,,,0,10,10,44,,,,,,,,,,,,,,4,0,1.66611998602,,,,,,2016_Sep_01_1310,P9,PLC_L_D1S1,NHGX,60.0241648256,
stim/posf.jpg,stim/negf.jpg,stim/4.jpg,stim/6.jpg,stim/latef.jpg,AB,2,4,,,,,0,11,11,15,,,,,,,,,,,,,,4,1,0.833087505686,,,,,,2016_Sep_01_1310,P9,PLC_L_D1S1,NHGX,60.0241648256,
stim/posf.jpg,stim/negf.jpg,stim/3.jpg,stim/2.jpg,stim/latef.jpg,EF,2,4,,,,,0,12,12,53,,,,,,,,,,,,,,4,1,1.06630604847,,,,,,2016_Sep_01_1310,P9,PLC_L_D1S1,NHGX,60.0241648256,
stim/negf.jpg,stim/posf.jpg,stim/5.jpg,stim/1.jpg,stim/latef.jpg,CD,1,2,,,,,0,13,13,27,,,,,,,,,,,,,,4,0,1.31627078996,,,,,,2016_Sep_01_1310,P9,PLC_L_D1S1,NHGX,60.0241648256,
stim/posf.jpg,stim/negf.jpg,stim/1.jpg,stim/5.jpg,stim/latef.jpg,CD,2,4,,,,,0,14,14,36,,,,,,,,,,,,,,2,0,0.816394187992,,,,,,2016_Sep_01_1310,P9,PLC_L_D1S1,NHGX,60.0241648256,
stim/posf.jpg,stim/negf.jpg,stim/4.jpg,stim/6.jpg,stim/latef.jpg,AB,2,4,,,,,0,15,15,16,,,,,,,,,,,,,,4,1,0.683095919188,,,,,,2016_Sep_01_1310,P9,PLC_L_D1S1,NHGX,60.0241648256,
stim/negf.jpg,stim/posf.jpg,stim/4.jpg,stim/6.jpg,stim/latef.jpg,AB,2,4,,,,,0,16,16,18,,,,,,,,,,,,,,4,1,0.816382536908,,,,,,2016_Sep_01_1310,P9,PLC_L_D1S1,NHGX,60.0241648256,
stim/negf.jpg,stim/posf.jpg,stim/2.jpg,stim/3.jpg,stim/latef.jpg,EF,1,2,,,,,0,17,17,49,,,,,,,,,,,,,,None,0,,,,,,,2016_Sep_01_1310,P9,PLC_L_D1S1,NHGX,60.0241648256,
stim/negf.jpg,stim/posf.jpg,stim/5.jpg,stim/1.jpg,stim/latef.jpg,CD,1,2,,,,,0,18,18,29,,,,,,,,,,,,,,4,0,1.03306001707,,,,,,2016_Sep_01_1310,P9,PLC_L_D1S1,NHGX,60.0241648256,
stim/posf.jpg,stim/negf.jpg,stim/3.jpg,stim/2.jpg,stim/latef.jpg,EF,2,4,,,,,0,19,19,55,,,,,,,,,,,,,,2,0,1.08296517682,,,,,,2016_Sep_01_1310,P9,PLC_L_D1S1,NHGX,60.0241648256,
stim/posf.jpg,stim/negf.jpg,stim/3.jpg,stim/2.jpg,stim/latef.jpg,EF,2,4,,,,,0,20,20,54,,,,,,,,,,,,,,4,1,0.799725375468,,,,,,2016_Sep_01_1310,P9,PLC_L_D1S1,NHGX,60.0241648256,
stim/negf.jpg,stim/posf.jpg,stim/3.jpg,stim/2.jpg,stim/latef.jpg,EF,2,4,,,,,0,21,21,56,,,,,,,,,,,,,,4,1,0.799722969462,,,,,,2016_Sep_01_1310,P9,PLC_L_D1S1,NHGX,60.0241648256,
stim/posf.jpg,stim/negf.jpg,stim/1.jpg,stim/5.jpg,stim/latef.jpg,CD,2,4,,,,,0,22,22,33,,,,,,,,,,,,,,2,0,1.0663355822,,,,,,2016_Sep_01_1310,P9,PLC_L_D1S1,NHGX,60.0241648256,
stim/negf.jpg,stim/posf.jpg,stim/1.jpg,stim/5.jpg,stim/latef.jpg,CD,2,4,,,,,0,23,23,38,,,,,,,,,,,,,,2,0,0.666510634171,,,,,,2016_Sep_01_1310,P9,PLC_L_D1S1,NHGX,60.0241648256,
stim/negf.jpg,stim/posf.jpg,stim/2.jpg,stim/3.jpg,stim/latef.jpg,EF,1,2,,,,,0,24,24,48,,,,,,,,,,,,,,2,1,1.2829297153,,,,,,2016_Sep_01_1310,P9,PLC_L_D1S1,NHGX,60.0241648256,
stim/posf.jpg,stim/negf.jpg,stim/4.jpg,stim/6.jpg,stim/latef.jpg,AB,2,4,,,,,0,25,25,10,,,,,,,,,,,,,,4,1,0.816470449359,,,,,,2016_Sep_01_1310,P9,PLC_L_D1S1,NHGX,60.0241648256,
stim/negf.jpg,stim/posf.jpg,stim/3.jpg,stim/2.jpg,stim/latef.jpg,EF,2,4,,,,,0,26,26,59,,,,,,,,,,,,,,2,0,1.28290196804,,,,,,2016_Sep_01_1310,P9,PLC_L_D1S1,NHGX,60.0241648256,
stim/posf.jpg,stim/negf.jpg,stim/2.jpg,stim/3.jpg,stim/latef.jpg,EF,1,2,,,,,0,27,27,45,,,,,,,,,,,,,,4,0,0.816339057372,,,,,,2016_Sep_01_1310,P9,PLC_L_D1S1,NHGX,60.0241648256,
stim/posf.jpg,stim/negf.jpg,stim/6.jpg,stim/4.jpg,stim/latef.jpg,AB,1,2,,,,,0,28,28,7,,,,,,,,,,,,,,2,1,0.949686580126,,,,,,2016_Sep_01_1310,P9,PLC_L_D1S1,NHGX,60.0241648256,
stim/posf.jpg,stim/negf.jpg,stim/5.jpg,stim/1.jpg,stim/latef.jpg,CD,1,2,,,,,0,29,29,24,,,,,,,,,,,,,,4,0,0.8497152928,,,,,,2016_Sep_01_1310,P9,PLC_L_D1S1,NHGX,60.0241648256,
stim/negf.jpg,stim/posf.jpg,stim/3.jpg,stim/2.jpg,stim/latef.jpg,EF,2,4,,,,,0,30,30,58,,,,,,,,,,,,,,2,0,1.59946228473,,,,,,2016_Sep_01_1310,P9,PLC_L_D1S1,NHGX,60.0241648256,
stim/posf.jpg,stim/negf.jpg,stim/2.jpg,stim/3.jpg,stim/latef.jpg,EF,1,2,,,,,0,31,31,40,,,,,,,,,,,,,,4,0,0.916360103909,,,,,,2016_Sep_01_1310,P9,PLC_L_D1S1,NHGX,60.0241648256,
stim/posf.jpg,stim/negf.jpg,stim/4.jpg,stim/6.jpg,stim/latef.jpg,AB,2,4,,,,,0,32,32,17,,,,,,,,,,,,,,4,1,0.499830322442,,,,,,2016_Sep_01_1310,P9,PLC_L_D1S1,NHGX,60.0241648256,
stim/posf.jpg,stim/negf.jpg,stim/1.jpg,stim/5.jpg,stim/latef.jpg,CD,2,4,,,,,0,33,33,32,,,,,,,,,,,,,,4,1,1.14963355175,,,,,,2016_Sep_01_1310,P9,PLC_L_D1S1,NHGX,60.0241648256,
stim/posf.jpg,stim/negf.jpg,stim/5.jpg,stim/1.jpg,stim/latef.jpg,CD,1,2,,,,,0,34,34,26,,,,,,,,,,,,,,2,1,0.766307898091,,,,,,2016_Sep_01_1310,P9,PLC_L_D1S1,NHGX,60.0241648256,
stim/posf.jpg,stim/negf.jpg,stim/5.jpg,stim/1.jpg,stim/latef.jpg,CD,1,2,,,,,0,35,35,20,,,,,,,,,,,,,,2,1,0.566435190845,,,,,,2016_Sep_01_1310,P9,PLC_L_D1S1,NHGX,60.0241648256,
stim/posf.jpg,stim/negf.jpg,stim/1.jpg,stim/5.jpg,stim/latef.jpg,CD,2,4,,,,,0,36,36,34,,,,,,,,,,,,,,4,1,0.666442703599,,,,,,2016_Sep_01_1310,P9,PLC_L_D1S1,NHGX,60.0241648256,
stim/posf.jpg,stim/negf.jpg,stim/3.jpg,stim/2.jpg,stim/latef.jpg,EF,2,4,,,,,0,37,37,50,,,,,,,,,,,,,,4,1,1.49956624524,,,,,,2016_Sep_01_1310,P9,PLC_L_D1S1,NHGX,60.0241648256,
stim/posf.jpg,stim/negf.jpg,stim/4.jpg,stim/6.jpg,stim/latef.jpg,AB,2,4,,,,,0,38,38,11,,,,,,,,,,,,,,4,1,0.733084007955,,,,,,2016_Sep_01_1310,P9,PLC_L_D1S1,NHGX,60.0241648256,
stim/negf.jpg,stim/posf.jpg,stim/4.jpg,stim/6.jpg,stim/latef.jpg,AB,2,4,,,,,0,39,39,19,,,,,,,,,,,,,,4,1,0.799710831162,,,,,,2016_Sep_01_1310,P9,PLC_L_D1S1,NHGX,60.0241648256,
stim/negf.jpg,stim/posf.jpg,stim/6.jpg,stim/4.jpg,stim/latef.jpg,AB,1,2,,,,,0,40,40,9,,,,,,,,,,,,,,2,1,0.86638204518,,,,,,2016_Sep_01_1310,P9,PLC_L_D1S1,NHGX,60.0241648256,
stim/negf.jpg,stim/posf.jpg,stim/6.jpg,stim/4.jpg,stim/latef.jpg,AB,1,2,,,,,0,41,41,8,,,,,,,,,,,,,,2,1,0.783093916188,,,,,,2016_Sep_01_1310,P9,PLC_L_D1S1,NHGX,60.0241648256,
stim/posf.jpg,stim/negf.jpg,stim/6.jpg,stim/4.jpg,stim/latef.jpg,AB,1,2,,,,,0,42,42,3,,,,,,,,,,,,,,4,0,0.533136564148,,,,,,2016_Sep_01_1310,P9,PLC_L_D1S1,NHGX,60.0241648256,
stim/negf.jpg,stim/posf.jpg,stim/1.jpg,stim/5.jpg,stim/latef.jpg,CD,2,4,,,,,0,43,43,37,,,,,,,,,,,,,,4,1,1.49951171612,,,,,,2016_Sep_01_1310,P9,PLC_L_D1S1,NHGX,60.0241648256,
stim/posf.jpg,stim/negf.jpg,stim/6.jpg,stim/4.jpg,stim/latef.jpg,AB,1,2,,,,,0,44,44,6,,,,,,,,,,,,,,4,0,1.41621613152,,,,,,2016_Sep_01_1310,P9,PLC_L_D1S1,NHGX,60.0241648256,
stim/posf.jpg,stim/negf.jpg,stim/1.jpg,stim/5.jpg,stim/latef.jpg,CD,2,4,,,,,0,45,45,35,,,,,,,,,,,,,,4,1,0.883051516348,,,,,,2016_Sep_01_1310,P9,PLC_L_D1S1,NHGX,60.0241648256,
stim/negf.jpg,stim/posf.jpg,stim/2.jpg,stim/3.jpg,stim/latef.jpg,EF,1,2,,,,,0,46,46,46,,,,,,,,,,,,,,2,1,1.09963586904,,,,,,2016_Sep_01_1310,P9,PLC_L_D1S1,NHGX,60.0241648256,
stim/posf.jpg,stim/negf.jpg,stim/3.jpg,stim/2.jpg,stim/latef.jpg,EF,2,4,,,,,0,47,47,52,,,,,,,,,,,,,,4,1,1.03298884741,,,,,,2016_Sep_01_1310,P9,PLC_L_D1S1,NHGX,60.0241648256,
stim/posf.jpg,stim/negf.jpg,stim/2.jpg,stim/3.jpg,stim/latef.jpg,EF,1,2,,,,,0,48,48,41,,,,,,,,,,,,,,2,1,0.749739067146,,,,,,2016_Sep_01_1310,P9,PLC_L_D1S1,NHGX,60.0241648256,
stim/posf.jpg,stim/negf.jpg,stim/5.jpg,stim/1.jpg,stim/latef.jpg,CD,1,2,,,,,0,49,49,21,,,,,,,,,,,,,,2,1,1.28289677106,,,,,,2016_Sep_01_1310,P9,PLC_L_D1S1,NHGX,60.0241648256,
stim/posf.jpg,stim/negf.jpg,stim/1.jpg,stim/5.jpg,stim/latef.jpg,CD,2,4,,,,,0,50,50,30,,,,,,,,,,,,,,4,1,1.59945982158,,,,,,2016_Sep_01_1310,P9,PLC_L_D1S1,NHGX,60.0241648256,
stim/posf.jpg,stim/negf.jpg,stim/6.jpg,stim/4.jpg,stim/latef.jpg,AB,1,2,,,,,0,51,51,4,,,,,,,,,,,,,,2,1,1.5994823418,,,,,,2016_Sep_01_1310,P9,PLC_L_D1S1,NHGX,60.0241648256,
stim/posf.jpg,stim/negf.jpg,stim/4.jpg,stim/6.jpg,stim/latef.jpg,AB,2,4,,,,,0,52,52,13,,,,,,,,,,,,,,4,1,0.766416640539,,,,,,2016_Sep_01_1310,P9,PLC_L_D1S1,NHGX,60.0241648256,
stim/posf.jpg,stim/negf.jpg,stim/2.jpg,stim/3.jpg,stim/latef.jpg,EF,1,2,,,,,0,53,53,43,,,,,,,,,,,,,,None,0,,,,,,,2016_Sep_01_1310,P9,PLC_L_D1S1,NHGX,60.0241648256,
stim/posf.jpg,stim/negf.jpg,stim/6.jpg,stim/4.jpg,stim/latef.jpg,AB,1,2,,,,,0,54,54,5,,,,,,,,,,,,,,2,1,0.766417651061,,,,,,2016_Sep_01_1310,P9,PLC_L_D1S1,NHGX,60.0241648256,
stim/negf.jpg,stim/posf.jpg,stim/5.jpg,stim/1.jpg,stim/latef.jpg,CD,1,2,,,,,0,55,55,28,,,,,,,,,,,,,,2,1,1.04966558772,,,,,,2016_Sep_01_1310,P9,PLC_L_D1S1,NHGX,60.0241648256,
stim/posf.jpg,stim/negf.jpg,stim/5.jpg,stim/1.jpg,stim/latef.jpg,CD,1,2,,,,,0,56,56,25,,,,,,,,,,,,,,2,1,0.483183242168,,,,,,2016_Sep_01_1310,P9,PLC_L_D1S1,NHGX,60.0241648256,
stim/posf.jpg,stim/negf.jpg,stim/1.jpg,stim/5.jpg,stim/latef.jpg,CD,2,4,,,,,0,57,57,31,,,,,,,,,,,,,,4,1,0.733080392931,,,,,,2016_Sep_01_1310,P9,PLC_L_D1S1,NHGX,60.0241648256,
stim/posf.jpg,stim/negf.jpg,stim/6.jpg,stim/4.jpg,stim/latef.jpg,AB,1,2,,,,,0,58,58,0,,,,,,,,,,,,,,2,1,0.716439908121,,,,,,2016_Sep_01_1310,P9,PLC_L_D1S1,NHGX,60.0241648256,
stim/posf.jpg,stim/negf.jpg,stim/6.jpg,stim/4.jpg,stim/latef.jpg,AB,1,2,,,,,0,59,59,1,,,,,,,,,,,,,,2,1,0.799740816012,,,,,,2016_Sep_01_1310,P9,PLC_L_D1S1,NHGX,60.0241648256,
,,,,,,,,,,,,,,,,,,,,,,,,,,,,,,,,0.9984375,1.0,1,0,0,2016_Sep_01_1310,P9,PLC_L_D1S1,NHGX,60.0241648256,
stim/posf.jpg,stim/negf.jpg,stim/6.jpg,stim/4.jpg,stim/latef.jpg,AB,1,2,,,,,,,,,0,0,0,2,,,,,,,,,,2,1,0.733079060605,,,,,,2016_Sep_01_1310,P9,PLC_L_D1S1,NHGX,60.0241648256,
stim/negf.jpg,stim/posf.jpg,stim/3.jpg,stim/2.jpg,stim/latef.jpg,EF,2,4,,,,,,,,,0,1,1,57,,,,,,,,,,4,1,1.43287142229,,,,,,2016_Sep_01_1310,P9,PLC_L_D1S1,NHGX,60.0241648256,
stim/posf.jpg,stim/negf.jpg,stim/1.jpg,stim/5.jpg,stim/latef.jpg,CD,2,4,,,,,,,,,0,2,2,35,,,,,,,,,,4,1,0.932999963158,,,,,,2016_Sep_01_1310,P9,PLC_L_D1S1,NHGX,60.0241648256,
stim/posf.jpg,stim/negf.jpg,stim/6.jpg,stim/4.jpg,stim/latef.jpg,AB,1,2,,,,,,,,,0,3,3,4,,,,,,,,,,2,1,0.516506073285,,,,,,2016_Sep_01_1310,P9,PLC_L_D1S1,NHGX,60.0241648256,
stim/posf.jpg,stim/negf.jpg,stim/5.jpg,stim/1.jpg,stim/latef.jpg,CD,1,2,,,,,,,,,0,4,4,21,,,,,,,,,,2,1,1.19961353228,,,,,,2016_Sep_01_1310,P9,PLC_L_D1S1,NHGX,60.0241648256,
stim/posf.jpg,stim/negf.jpg,stim/5.jpg,stim/1.jpg,stim/latef.jpg,CD,1,2,,,,,,,,,0,5,5,23,,,,,,,,,,2,1,0.749755334754,,,,,,2016_Sep_01_1310,P9,PLC_L_D1S1,NHGX,60.0241648256,
stim/posf.jpg,stim/negf.jpg,stim/6.jpg,stim/4.jpg,stim/latef.jpg,AB,1,2,,,,,,,,,0,6,6,1,,,,,,,,,,2,1,0.633122461946,,,,,,2016_Sep_01_1310,P9,PLC_L_D1S1,NHGX,60.0241648256,
stim/posf.jpg,stim/negf.jpg,stim/3.jpg,stim/2.jpg,stim/latef.jpg,EF,2,4,,,,,,,,,0,7,7,53,,,,,,,,,,4,1,0.88305757046,,,,,,2016_Sep_01_1310,P9,PLC_L_D1S1,NHGX,60.0241648256,
stim/posf.jpg,stim/negf.jpg,stim/3.jpg,stim/2.jpg,stim/latef.jpg,EF,2,4,,,,,,,,,0,8,8,52,,,,,,,,,,4,1,0.899709381544,,,,,,2016_Sep_01_1310,P9,PLC_L_D1S1,NHGX,60.0241648256,
stim/posf.jpg,stim/negf.jpg,stim/5.jpg,stim/1.jpg,stim/latef.jpg,CD,1,2,,,,,,,,,0,9,9,20,,,,,,,,,,2,1,0.866381443679,,,,,,2016_Sep_01_1310,P9,PLC_L_D1S1,NHGX,60.0241648256,
stim/negf.jpg,stim/posf.jpg,stim/5.jpg,stim/1.jpg,stim/latef.jpg,CD,1,2,,,,,,,,,0,10,10,29,,,,,,,,,,2,1,0.533162882846,,,,,,2016_Sep_01_1310,P9,PLC_L_D1S1,NHGX,60.0241648256,
stim/negf.jpg,stim/posf.jpg,stim/2.jpg,stim/3.jpg,stim/latef.jpg,EF,1,2,,,,,,,,,0,11,11,49,,,,,,,,,,2,1,1.34957040613,,,,,,2016_Sep_01_1310,P9,PLC_L_D1S1,NHGX,60.0241648256,
stim/posf.jpg,stim/negf.jpg,stim/2.jpg,stim/3.jpg,stim/latef.jpg,EF,1,2,,,,,,,,,0,12,12,45,,,,,,,,,,2,1,0.799741534806,,,,,,2016_Sep_01_1310,P9,PLC_L_D1S1,NHGX,60.0241648256,
stim/posf.jpg,stim/negf.jpg,stim/4.jpg,stim/6.jpg,stim/latef.jpg,AB,2,4,,,,,,,,,0,13,13,11,,,,,,,,,,4,1,0.76639610227,,,,,,2016_Sep_01_1310,P9,PLC_L_D1S1,NHGX,60.0241648256,
stim/posf.jpg,stim/negf.jpg,stim/3.jpg,stim/2.jpg,stim/latef.jpg,EF,2,4,,,,,,,,,0,14,14,51,,,,,,,,,,4,1,0.86638711283,,,,,,2016_Sep_01_1310,P9,PLC_L_D1S1,NHGX,60.0241648256,
stim/posf.jpg,stim/negf.jpg,stim/2.jpg,stim/3.jpg,stim/latef.jpg,EF,1,2,,,,,,,,,0,15,15,44,,,,,,,,,,2,1,0.933020808193,,,,,,2016_Sep_01_1310,P9,PLC_L_D1S1,NHGX,60.0241648256,
stim/posf.jpg,stim/negf.jpg,stim/4.jpg,stim/6.jpg,stim/latef.jpg,AB,2,4,,,,,,,,,0,16,16,15,,,,,,,,,,4,1,0.799741381423,,,,,,2016_Sep_01_1310,P9,PLC_L_D1S1,NHGX,60.0241648256,
stim/posf.jpg,stim/negf.jpg,stim/2.jpg,stim/3.jpg,stim/latef.jpg,EF,1,2,,,,,,,,,0,17,17,40,,,,,,,,,,2,1,0.766307410874,,,,,,2016_Sep_01_1310,P9,PLC_L_D1S1,NHGX,60.0241648256,
stim/negf.jpg,stim/posf.jpg,stim/4.jpg,stim/6.jpg,stim/latef.jpg,AB,2,4,,,,,,,,,0,18,18,19,,,,,,,,,,4,1,0.616452930628,,,,,,2016_Sep_01_1310,P9,PLC_L_D1S1,NHGX,60.0241648256,
stim/posf.jpg,stim/negf.jpg,stim/4.jpg,stim/6.jpg,stim/latef.jpg,AB,2,4,,,,,,,,,0,19,19,13,,,,,,,,,,4,1,0.54980589697,,,,,,2016_Sep_01_1310,P9,PLC_L_D1S1,NHGX,60.0241648256,
stim/posf.jpg,stim/negf.jpg,stim/2.jpg,stim/3.jpg,stim/latef.jpg,EF,1,2,,,,,,,,,0,20,20,41,,,,,,,,,,2,1,0.733057445649,,,,,,2016_Sep_01_1310,P9,PLC_L_D1S1,NHGX,60.0241648256,
stim/posf.jpg,stim/negf.jpg,stim/1.jpg,stim/5.jpg,stim/latef.jpg,CD,2,4,,,,,,,,,0,21,21,30,,,,,,,,,,4,1,0.899690109436,,,,,,2016_Sep_01_1310,P9,PLC_L_D1S1,NHGX,60.0241648256,
stim/negf.jpg,stim/posf.jpg,stim/5.jpg,stim/1.jpg,stim/latef.jpg,CD,1,2,,,,,,,,,0,22,22,27,,,,,,,,,,2,1,1.01634261826,,,,,,2016_Sep_01_1310,P9,PLC_L_D1S1,NHGX,60.0241648256,
stim/negf.jpg,stim/posf.jpg,stim/1.jpg,stim/5.jpg,stim/latef.jpg,CD,2,4,,,,,,,,,0,23,23,39,,,,,,,,,,4,1,0.716436545727,,,,,,2016_Sep_01_1310,P9,PLC_L_D1S1,NHGX,60.0241648256,
stim/posf.jpg,stim/negf.jpg,stim/1.jpg,stim/5.jpg,stim/latef.jpg,CD,2,4,,,,,,,,,0,24,24,36,,,,,,,,,,4,1,0.633119613836,,,,,,2016_Sep_01_1310,P9,PLC_L_D1S1,NHGX,60.0241648256,
stim/posf.jpg,stim/negf.jpg,stim/3.jpg,stim/2.jpg,stim/latef.jpg,EF,2,4,,,,,,,,,0,25,25,54,,,,,,,,,,4,1,1.29954134909,,,,,,2016_Sep_01_1310,P9,PLC_L_D1S1,NHGX,60.0241648256,
stim/posf.jpg,stim/negf.jpg,stim/4.jpg,stim/6.jpg,stim/latef.jpg,AB,2,4,,,,,,,,,0,26,26,12,,,,,,,,,,4,1,0.649793921075,,,,,,2016_Sep_01_1310,P9,PLC_L_D1S1,NHGX,60.0241648256,
stim/posf.jpg,stim/negf.jpg,stim/1.jpg,stim/5.jpg,stim/latef.jpg,CD,2,4,,,,,,,,,0,27,27,34,,,,,,,,,,4,1,0.799729808534,,,,,,2016_Sep_01_1310,P9,PLC_L_D1S1,NHGX,60.0241648256,
stim/posf.jpg,stim/negf.jpg,stim/4.jpg,stim/6.jpg,stim/latef.jpg,AB,2,4,,,,,,,,,0,28,28,14,,,,,,,,,,4,1,0.683087035011,,,,,,2016_Sep_01_1310,P9,PLC_L_D1S1,NHGX,60.0241648256,
stim/negf.jpg,stim/posf.jpg,stim/1.jpg,stim/5.jpg,stim/latef.jpg,CD,2,4,,,,,,,,,0,29,29,37,,,,,,,,,,4,1,0.633129030342,,,,,,2016_Sep_01_1310,P9,PLC_L_D1S1,NHGX,60.0241648256,
stim/negf.jpg,stim/posf.jpg,stim/6.jpg,stim/4.jpg,stim/latef.jpg,AB,1,2,,,,,,,,,0,30,30,8,,,,,,,,,,2,1,0.783086950801,,,,,,2016_Sep_01_1310,P9,PLC_L_D1S1,NHGX,60.0241648256,
stim/posf.jpg,stim/negf.jpg,stim/3.jpg,stim/2.jpg,stim/latef.jpg,EF,2,4,,,,,,,,,0,31,31,55,,,,,,,,,,4,1,0.766404021037,,,,,,2016_Sep_01_1310,P9,PLC_L_D1S1,NHGX,60.0241648256,
stim/negf.jpg,stim/posf.jpg,stim/1.jpg,stim/5.jpg,stim/latef.jpg,CD,2,4,,,,,,,,,0,32,32,38,,,,,,,,,,4,1,1.1329644866,,,,,,2016_Sep_01_1310,P9,PLC_L_D1S1,NHGX,60.0241648256,
stim/negf.jpg,stim/posf.jpg,stim/4.jpg,stim/6.jpg,stim/latef.jpg,AB,2,4,,,,,,,,,0,33,33,18,,,,,,,,,,4,1,0.683163684347,,,,,,2016_Sep_01_1310,P9,PLC_L_D1S1,NHGX,60.0241648256,
stim/negf.jpg,stim/posf.jpg,stim/2.jpg,stim/3.jpg,stim/latef.jpg,EF,1,2,,,,,,,,,0,34,34,46,,,,,,,,,,2,1,0.899662268939,,,,,,2016_Sep_01_1310,P9,PLC_L_D1S1,NHGX,60.0241648256,
stim/negf.jpg,stim/posf.jpg,stim/3.jpg,stim/2.jpg,stim/latef.jpg,EF,2,4,,,,,,,,,0,35,35,56,,,,,,,,,,4,1,0.8663709565,,,,,,2016_Sep_01_1310,P9,PLC_L_D1S1,NHGX,60.0241648256,
stim/posf.jpg,stim/negf.jpg,stim/2.jpg,stim/3.jpg,stim/latef.jpg,EF,1,2,,,,,,,,,0,36,36,42,,,,,,,,,,4,0,0.749705551483,,,,,,2016_Sep_01_1310,P9,PLC_L_D1S1,NHGX,60.0241648256,
stim/posf.jpg,stim/negf.jpg,stim/1.jpg,stim/5.jpg,stim/latef.jpg,CD,2,4,,,,,,,,,0,37,37,33,,,,,,,,,,4,1,0.799730391991,,,,,,2016_Sep_01_1310,P9,PLC_L_D1S1,NHGX,60.0241648256,
stim/negf.jpg,stim/posf.jpg,stim/2.jpg,stim/3.jpg,stim/latef.jpg,EF,1,2,,,,,,,,,0,38,38,47,,,,,,,,,,4,0,1.14963846602,,,,,,2016_Sep_01_1310,P9,PLC_L_D1S1,NHGX,60.0241648256,
stim/posf.jpg,stim/negf.jpg,stim/6.jpg,stim/4.jpg,stim/latef.jpg,AB,1,2,,,,,,,,,0,39,39,5,,,,,,,,,,2,1,1.01638609178,,,,,,2016_Sep_01_1310,P9,PLC_L_D1S1,NHGX,60.0241648256,
stim/posf.jpg,stim/negf.jpg,stim/6.jpg,stim/4.jpg,stim/latef.jpg,AB,1,2,,,,,,,,,0,40,40,3,,,,,,,,,,2,1,0.649840369021,,,,,,2016_Sep_01_1310,P9,PLC_L_D1S1,NHGX,60.0241648256,
stim/posf.jpg,stim/negf.jpg,stim/3.jpg,stim/2.jpg,stim/latef.jpg,EF,2,4,,,,,,,,,0,41,41,50,,,,,,,,,,2,0,0.949750020489,,,,,,2016_Sep_01_1310,P9,PLC_L_D1S1,NHGX,60.0241648256,
stim/posf.jpg,stim/negf.jpg,stim/2.jpg,stim/3.jpg,stim/latef.jpg,EF,1,2,,,,,,,,,0,42,42,43,,,,,,,,,,4,0,0.982996145127,,,,,,2016_Sep_01_1310,P9,PLC_L_D1S1,NHGX,60.0241648256,
stim/posf.jpg,stim/negf.jpg,stim/1.jpg,stim/5.jpg,stim/latef.jpg,CD,2,4,,,,,,,,,0,43,43,32,,,,,,,,,,4,1,0.899710229661,,,,,,2016_Sep_01_1310,P9,PLC_L_D1S1,NHGX,60.0241648256,
stim/posf.jpg,stim/negf.jpg,stim/4.jpg,stim/6.jpg,stim/latef.jpg,AB,2,4,,,,,,,,,0,44,44,10,,,,,,,,,,4,1,0.599812572133,,,,,,2016_Sep_01_1310,P9,PLC_L_D1S1,NHGX,60.0241648256,
stim/negf.jpg,stim/posf.jpg,stim/3.jpg,stim/2.jpg,stim/latef.jpg,EF,2,4,,,,,,,,,0,45,45,59,,,,,,,,,,2,0,0.649796297006,,,,,,2016_Sep_01_1310,P9,PLC_L_D1S1,NHGX,60.0241648256,
stim/negf.jpg,stim/posf.jpg,stim/2.jpg,stim/3.jpg,stim/latef.jpg,EF,1,2,,,,,,,,,0,46,46,48,,,,,,,,,,4,0,0.633140506991,,,,,,2016_Sep_01_1310,P9,PLC_L_D1S1,NHGX,60.0241648256,
stim/posf.jpg,stim/negf.jpg,stim/4.jpg,stim/6.jpg,stim/latef.jpg,AB,2,4,,,,,,,,,0,47,47,16,,,,,,,,,,4,1,0.633133737091,,,,,,2016_Sep_01_1310,P9,PLC_L_D1S1,NHGX,60.0241648256,
stim/negf.jpg,stim/posf.jpg,stim/6.jpg,stim/4.jpg,stim/latef.jpg,AB,1,2,,,,,,,,,0,48,48,9,,,,,,,,,,2,1,0.716442049466,,,,,,2016_Sep_01_1310,P9,PLC_L_D1S1,NHGX,60.0241648256,
stim/posf.jpg,stim/negf.jpg,stim/1.jpg,stim/5.jpg,stim/latef.jpg,CD,2,4,,,,,,,,,0,49,49,31,,,,,,,,,,4,1,0.849710859734,,,,,,2016_Sep_01_1310,P9,PLC_L_D1S1,NHGX,60.0241648256,
stim/posf.jpg,stim/negf.jpg,stim/6.jpg,stim/4.jpg,stim/latef.jpg,AB,1,2,,,,,,,,,0,50,50,0,,,,,,,,,,2,1,0.6997610415,,,,,,2016_Sep_01_1310,P9,PLC_L_D1S1,NHGX,60.0241648256,
stim/negf.jpg,stim/posf.jpg,stim/5.jpg,stim/1.jpg,stim/latef.jpg,CD,1,2,,,,,,,,,0,51,51,28,,,,,,,,,,4,0,0.966455939639,,,,,,2016_Sep_01_1310,P9,PLC_L_D1S1,NHGX,60.0241648256,
stim/posf.jpg,stim/negf.jpg,stim/6.jpg,stim/4.jpg,stim/latef.jpg,AB,1,2,,,,,,,,,0,52,52,7,,,,,,,,,,2,1,1.4161990188,,,,,,2016_Sep_01_1310,P9,PLC_L_D1S1,NHGX,60.0241648256,
stim/posf.jpg,stim/negf.jpg,stim/5.jpg,stim/1.jpg,stim/latef.jpg,CD,1,2,,,,,,,,,0,53,53,25,,,,,,,,,,2,1,0.799776301593,,,,,,2016_Sep_01_1310,P9,PLC_L_D1S1,NHGX,60.0241648256,
stim/posf.jpg,stim/negf.jpg,stim/5.jpg,stim/1.jpg,stim/latef.jpg,CD,1,2,,,,,,,,,0,54,54,24,,,,,,,,,,2,1,0.71641957737,,,,,,2016_Sep_01_1310,P9,PLC_L_D1S1,NHGX,60.0241648256,
stim/posf.jpg,stim/negf.jpg,stim/5.jpg,stim/1.jpg,stim/latef.jpg,CD,1,2,,,,,,,,,0,55,55,26,,,,,,,,,,2,1,0.633120898042,,,,,,2016_Sep_01_1310,P9,PLC_L_D1S1,NHGX,60.0241648256,
stim/posf.jpg,stim/negf.jpg,stim/4.jpg,stim/6.jpg,stim/latef.jpg,AB,2,4,,,,,,,,,0,56,56,17,,,,,,,,,,4,1,0.46651555746,,,,,,2016_Sep_01_1310,P9,PLC_L_D1S1,NHGX,60.0241648256,
stim/negf.jpg,stim/posf.jpg,stim/3.jpg,stim/2.jpg,stim/latef.jpg,EF,2,4,,,,,,,,,0,57,57,58,,,,,,,,,,2,0,0.883084006451,,,,,,2016_Sep_01_1310,P9,PLC_L_D1S1,NHGX,60.0241648256,
stim/posf.jpg,stim/negf.jpg,stim/6.jpg,stim/4.jpg,stim/latef.jpg,AB,1,2,,,,,,,,,0,58,58,6,,,,,,,,,,2,1,0.816382585028,,,,,,2016_Sep_01_1310,P9,PLC_L_D1S1,NHGX,60.0241648256,
stim/posf.jpg,stim/negf.jpg,stim/5.jpg,stim/1.jpg,stim/latef.jpg,CD,1,2,,,,,,,,,0,59,59,22,,,,,,,,,,2,1,0.833066624562,,,,,,2016_Sep_01_1310,P9,PLC_L_D1S1,NHGX,60.0241648256,
,,,,,,,,,,,,,,,,,,,,,,,,,,,,,,,,0.9984375,1.0,1,0,0,2016_Sep_01_1310,P9,PLC_L_D1S1,NHGX,60.0241648256,
stim/posf.jpg,stim/negf.jpg,stim/5.jpg,stim/1.jpg,stim/latef.jpg,CD,1,2,,,,,,,,,,,,,0,0,0,24,,,,,,2,1,1.14961864955,,,,,,2016_Sep_01_1310,P9,PLC_L_D1S1,NHGX,60.0241648256,
stim/posf.jpg,stim/negf.jpg,stim/2.jpg,stim/3.jpg,stim/latef.jpg,EF,1,2,,,,,,,,,,,,,0,1,1,45,,,,,,2,1,0.999666025316,,,,,,2016_Sep_01_1310,P9,PLC_L_D1S1,NHGX,60.0241648256,
stim/negf.jpg,stim/posf.jpg,stim/4.jpg,stim/6.jpg,stim/latef.jpg,AB,2,4,,,,,,,,,,,,,0,2,2,18,,,,,,4,1,0.549829596129,,,,,,2016_Sep_01_1310,P9,PLC_L_D1S1,NHGX,60.0241648256,
stim/negf.jpg,stim/posf.jpg,stim/2.jpg,stim/3.jpg,stim/latef.jpg,EF,1,2,,,,,,,,,,,,,0,3,3,46,,,,,,2,1,0.799743330288,,,,,,2016_Sep_01_1310,P9,PLC_L_D1S1,NHGX,60.0241648256,
stim/negf.jpg,stim/posf.jpg,stim/5.jpg,stim/1.jpg,stim/latef.jpg,CD,1,2,,,,,,,,,,,,,0,4,4,29,,,,,,4,0,0.616463089988,,,,,,2016_Sep_01_1310,P9,PLC_L_D1S1,NHGX,60.0241648256,
stim/posf.jpg,stim/negf.jpg,stim/3.jpg,stim/2.jpg,stim/latef.jpg,EF,2,4,,,,,,,,,,,,,0,5,5,50,,,,,,2,0,0.983035618663,,,,,,2016_Sep_01_1310,P9,PLC_L_D1S1,NHGX,60.0241648256,
stim/negf.jpg,stim/posf.jpg,stim/6.jpg,stim/4.jpg,stim/latef.jpg,AB,1,2,,,,,,,,,,,,,0,6,6,8,,,,,,2,1,0.81639865414,,,,,,2016_Sep_01_1310,P9,PLC_L_D1S1,NHGX,60.0241648256,
stim/posf.jpg,stim/negf.jpg,stim/2.jpg,stim/3.jpg,stim/latef.jpg,EF,1,2,,,,,,,,,,,,,0,7,7,44,,,,,,2,1,0.916406624035,,,,,,2016_Sep_01_1310,P9,PLC_L_D1S1,NHGX,60.0241648256,
stim/posf.jpg,stim/negf.jpg,stim/2.jpg,stim/3.jpg,stim/latef.jpg,EF,1,2,,,,,,,,,,,,,0,8,8,41,,,,,,2,1,0.599849811091,,,,,,2016_Sep_01_1310,P9,PLC_L_D1S1,NHGX,60.0241648256,
stim/posf.jpg,stim/negf.jpg,stim/1.jpg,stim/5.jpg,stim/latef.jpg,CD,2,4,,,,,,,,,,,,,0,9,9,31,,,,,,4,1,0.883047943429,,,,,,2016_Sep_01_1310,P9,PLC_L_D1S1,NHGX,60.0241648256,
stim/posf.jpg,stim/negf.jpg,stim/6.jpg,stim/4.jpg,stim/latef.jpg,AB,1,2,,,,,,,,,,,,,0,10,10,4,,,,,,2,1,0.816399312785,,,,,,2016_Sep_01_1310,P9,PLC_L_D1S1,NHGX,60.0241648256,
stim/posf.jpg,stim/negf.jpg,stim/4.jpg,stim/6.jpg,stim/latef.jpg,AB,2,4,,,,,,,,,,,,,0,11,11,10,,,,,,4,1,1.01632937921,,,,,,2016_Sep_01_1310,P9,PLC_L_D1S1,NHGX,60.0241648256,
stim/posf.jpg,stim/negf.jpg,stim/6.jpg,stim/4.jpg,stim/latef.jpg,AB,1,2,,,,,,,,,,,,,0,12,12,5,,,,,,2,1,0.649709819136,,,,,,2016_Sep_01_1310,P9,PLC_L_D1S1,NHGX,60.0241648256,
stim/negf.jpg,stim/posf.jpg,stim/5.jpg,stim/1.jpg,stim/latef.jpg,CD,1,2,,,,,,,,,,,,,0,13,13,27,,,,,,2,1,0.766424670584,,,,,,2016_Sep_01_1310,P9,PLC_L_D1S1,NHGX,60.0241648256,
stim/negf.jpg,stim/posf.jpg,stim/3.jpg,stim/2.jpg,stim/latef.jpg,EF,2,4,,,,,,,,,,,,,0,14,14,56,,,,,,2,0,0.616506563509,,,,,,2016_Sep_01_1310,P9,PLC_L_D1S1,NHGX,60.0241648256,
stim/negf.jpg,stim/posf.jpg,stim/1.jpg,stim/5.jpg,stim/latef.jpg,CD,2,4,,,,,,,,,,,,,0,15,15,39,,,,,,4,1,1.04964534118,,,,,,2016_Sep_01_1310,P9,PLC_L_D1S1,NHGX,60.0241648256,
stim/posf.jpg,stim/negf.jpg,stim/5.jpg,stim/1.jpg,stim/latef.jpg,CD,1,2,,,,,,,,,,,,,0,16,16,21,,,,,,2,1,0.833071343341,,,,,,2016_Sep_01_1310,P9,PLC_L_D1S1,NHGX,60.0241648256,
stim/posf.jpg,stim/negf.jpg,stim/1.jpg,stim/5.jpg,stim/latef.jpg,CD,2,4,,,,,,,,,,,,,0,17,17,32,,,,,,4,1,0.649774928666,,,,,,2016_Sep_01_1310,P9,PLC_L_D1S1,NHGX,60.0241648256,
stim/posf.jpg,stim/negf.jpg,stim/6.jpg,stim/4.jpg,stim/latef.jpg,AB,1,2,,,,,,,,,,,,,0,18,18,1,,,,,,2,1,0.616466241856,,,,,,2016_Sep_01_1310,P9,PLC_L_D1S1,NHGX,60.0241648256,
stim/posf.jpg,stim/negf.jpg,stim/2.jpg,stim/3.jpg,stim/latef.jpg,EF,1,2,,,,,,,,,,,,,0,19,19,42,,,,,,2,1,0.849661536611,,,,,,2016_Sep_01_1310,P9,PLC_L_D1S1,NHGX,60.0241648256,
stim/negf.jpg,stim/posf.jpg,stim/1.jpg,stim/5.jpg,stim/latef.jpg,CD,2,4,,,,,,,,,,,,,0,20,20,38,,,,,,4,1,0.749684291412,,,,,,2016_Sep_01_1310,P9,PLC_L_D1S1,NHGX,60.0241648256,
stim/posf.jpg,stim/negf.jpg,stim/4.jpg,stim/6.jpg,stim/latef.jpg,AB,2,4,,,,,,,,,,,,,0,21,21,17,,,,,,4,1,0.699768448991,,,,,,2016_Sep_01_1310,P9,PLC_L_D1S1,NHGX,60.0241648256,
stim/posf.jpg,stim/negf.jpg,stim/4.jpg,stim/6.jpg,stim/latef.jpg,AB,2,4,,,,,,,,,,,,,0,22,22,14,,,,,,4,1,0.599800205262,,,,,,2016_Sep_01_1310,P9,PLC_L_D1S1,NHGX,60.0241648256,
stim/posf.jpg,stim/negf.jpg,stim/1.jpg,stim/5.jpg,stim/latef.jpg,CD,2,4,,,,,,,,,,,,,0,23,23,30,,,,,,4,1,0.78308551622,,,,,,2016_Sep_01_1310,P9,PLC_L_D1S1,NHGX,60.0241648256,
stim/posf.jpg,stim/negf.jpg,stim/3.jpg,stim/2.jpg,stim/latef.jpg,EF,2,4,,,,,,,,,,,,,0,24,24,55,,,,,,2,0,0.633123505551,,,,,,2016_Sep_01_1310,P9,PLC_L_D1S1,NHGX,60.0241648256,
stim/posf.jpg,stim/negf.jpg,stim/6.jpg,stim/4.jpg,stim/latef.jpg,AB,1,2,,,,,,,,,,,,,0,25,25,7,,,,,,2,1,0.816375779038,,,,,,2016_Sep_01_1310,P9,PLC_L_D1S1,NHGX,60.0241648256,
stim/posf.jpg,stim/negf.jpg,stim/1.jpg,stim/5.jpg,stim/latef.jpg,CD,2,4,,,,,,,,,,,,,0,26,26,34,,,,,,4,1,0.499805450356,,,,,,2016_Sep_01_1310,P9,PLC_L_D1S1,NHGX,60.0241648256,
stim/posf.jpg,stim/negf.jpg,stim/1.jpg,stim/5.jpg,stim/latef.jpg,CD,2,4,,,,,,,,,,,,,0,27,27,36,,,,,,4,1,0.666418805944,,,,,,2016_Sep_01_1310,P9,PLC_L_D1S1,NHGX,60.0241648256,
stim/negf.jpg,stim/posf.jpg,stim/6.jpg,stim/4.jpg,stim/latef.jpg,AB,1,2,,,,,,,,,,,,,0,28,28,9,,,,,,2,1,0.633105619904,,,,,,2016_Sep_01_1310,P9,PLC_L_D1S1,NHGX,60.0241648256,
stim/posf.jpg,stim/negf.jpg,stim/1.jpg,stim/5.jpg,stim/latef.jpg,CD,2,4,,,,,,,,,,,,,0,29,29,33,,,,,,4,1,0.7497356837,,,,,,2016_Sep_01_1310,P9,PLC_L_D1S1,NHGX,60.0241648256,
stim/posf.jpg,stim/negf.jpg,stim/6.jpg,stim/4.jpg,stim/latef.jpg,AB,1,2,,,,,,,,,,,,,0,30,30,0,,,,,,2,1,0.666437097605,,,,,,2016_Sep_01_1310,P9,PLC_L_D1S1,NHGX,60.0241648256,
stim/posf.jpg,stim/negf.jpg,stim/2.jpg,stim/3.jpg,stim/latef.jpg,EF,1,2,,,,,,,,,,,,,0,31,31,43,,,,,,2,1,1.19959668122,,,,,,2016_Sep_01_1310,P9,PLC_L_D1S1,NHGX,60.0241648256,
stim/posf.jpg,stim/negf.jpg,stim/4.jpg,stim/6.jpg,stim/latef.jpg,AB,2,4,,,,,,,,,,,,,0,32,32,15,,,,,,4,1,0.766406851102,,,,,,2016_Sep_01_1310,P9,PLC_L_D1S1,NHGX,60.0241648256,
stim/negf.jpg,stim/posf.jpg,stim/3.jpg,stim/2.jpg,stim/latef.jpg,EF,2,4,,,,,,,,,,,,,0,33,33,59,,,,,,4,1,0.933026128473,,,,,,2016_Sep_01_1310,P9,PLC_L_D1S1,NHGX,60.0241648256,
stim/posf.jpg,stim/negf.jpg,stim/5.jpg,stim/1.jpg,stim/latef.jpg,CD,1,2,,,,,,,,,,,,,0,34,34,20,,,,,,2,1,0.766401621046,,,,,,2016_Sep_01_1310,P9,PLC_L_D1S1,NHGX,60.0241648256,
stim/posf.jpg,stim/negf.jpg,stim/5.jpg,stim/1.jpg,stim/latef.jpg,CD,1,2,,,,,,,,,,,,,0,35,35,26,,,,,,2,1,0.599812839801,,,,,,2016_Sep_01_1310,P9,PLC_L_D1S1,NHGX,60.0241648256,
stim/posf.jpg,stim/negf.jpg,stim/5.jpg,stim/1.jpg,stim/latef.jpg,CD,1,2,,,,,,,,,,,,,0,36,36,25,,,,,,2,1,0.599794091,,,,,,2016_Sep_01_1310,P9,PLC_L_D1S1,NHGX,60.0241648256,
stim/negf.jpg,stim/posf.jpg,stim/3.jpg,stim/2.jpg,stim/latef.jpg,EF,2,4,,,,,,,,,,,,,0,37,37,58,,,,,,4,1,0.849717310837,,,,,,2016_Sep_01_1310,P9,PLC_L_D1S1,NHGX,60.0241648256,
stim/posf.jpg,stim/negf.jpg,stim/3.jpg,stim/2.jpg,stim/latef.jpg,EF,2,4,,,,,,,,,,,,,0,38,38,52,,,,,,4,1,0.549868510269,,,,,,2016_Sep_01_1310,P9,PLC_L_D1S1,NHGX,60.0241648256,
stim/negf.jpg,stim/posf.jpg,stim/3.jpg,stim/2.jpg,stim/latef.jpg,EF,2,4,,,,,,,,,,,,,0,39,39,57,,,,,,4,1,0.399884689155,,,,,,2016_Sep_01_1310,P9,PLC_L_D1S1,NHGX,60.0241648256,
stim/negf.jpg,stim/posf.jpg,stim/2.jpg,stim/3.jpg,stim/latef.jpg,EF,1,2,,,,,,,,,,,,,0,40,40,47,,,,,,2,1,0.799701802625,,,,,,2016_Sep_01_1310,P9,PLC_L_D1S1,NHGX,60.0241648256,
stim/posf.jpg,stim/negf.jpg,stim/6.jpg,stim/4.jpg,stim/latef.jpg,AB,1,2,,,,,,,,,,,,,0,41,41,2,,,,,,2,1,0.566466886967,,,,,,2016_Sep_01_1310,P9,PLC_L_D1S1,NHGX,60.0241648256,
stim/negf.jpg,stim/posf.jpg,stim/4.jpg,stim/6.jpg,stim/latef.jpg,AB,2,4,,,,,,,,,,,,,0,42,42,19,,,,,,4,1,0.63313715362,,,,,,2016_Sep_01_1310,P9,PLC_L_D1S1,NHGX,60.0241648256,
stim/negf.jpg,stim/posf.jpg,stim/1.jpg,stim/5.jpg,stim/latef.jpg,CD,2,4,,,,,,,,,,,,,0,43,43,37,,,,,,2,0,0.583139209251,,,,,,2016_Sep_01_1310,P9,PLC_L_D1S1,NHGX,60.0241648256,
stim/posf.jpg,stim/negf.jpg,stim/4.jpg,stim/6.jpg,stim/latef.jpg,AB,2,4,,,,,,,,,,,,,0,44,44,11,,,,,,4,1,0.666462096007,,,,,,2016_Sep_01_1310,P9,PLC_L_D1S1,NHGX,60.0241648256,
stim/negf.jpg,stim/posf.jpg,stim/2.jpg,stim/3.jpg,stim/latef.jpg,EF,1,2,,,,,,,,,,,,,0,45,45,48,,,,,,4,0,0.949708739441,,,,,,2016_Sep_01_1310,P9,PLC_L_D1S1,NHGX,60.0241648256,
stim/posf.jpg,stim/negf.jpg,stim/4.jpg,stim/6.jpg,stim/latef.jpg,AB,2,4,,,,,,,,,,,,,0,46,46,13,,,,,,4,1,0.616467438844,,,,,,2016_Sep_01_1310,P9,PLC_L_D1S1,NHGX,60.0241648256,
stim/posf.jpg,stim/negf.jpg,stim/6.jpg,stim/4.jpg,stim/latef.jpg,AB,1,2,,,,,,,,,,,,,0,47,47,6,,,,,,2,1,0.616468034331,,,,,,2016_Sep_01_1310,P9,PLC_L_D1S1,NHGX,60.0241648256,
stim/negf.jpg,stim/posf.jpg,stim/2.jpg,stim/3.jpg,stim/latef.jpg,EF,1,2,,,,,,,,,,,,,0,48,48,49,,,,,,4,0,0.983004045849,,,,,,2016_Sep_01_1310,P9,PLC_L_D1S1,NHGX,60.0241648256,
stim/posf.jpg,stim/negf.jpg,stim/3.jpg,stim/2.jpg,stim/latef.jpg,EF,2,4,,,,,,,,,,,,,0,49,49,51,,,,,,2,0,1.16632718824,,,,,,2016_Sep_01_1310,P9,PLC_L_D1S1,NHGX,60.0241648256,
stim/posf.jpg,stim/negf.jpg,stim/6.jpg,stim/4.jpg,stim/latef.jpg,AB,1,2,,,,,,,,,,,,,0,50,50,3,,,,,,2,1,1.24959299852,,,,,,2016_Sep_01_1310,P9,PLC_L_D1S1,NHGX,60.0241648256,
stim/posf.jpg,stim/negf.jpg,stim/2.jpg,stim/3.jpg,stim/latef.jpg,EF,1,2,,,,,,,,,,,,,0,51,51,40,,,,,,4,0,0.816371604618,,,,,,2016_Sep_01_1310,P9,PLC_L_D1S1,NHGX,60.0241648256,
stim/posf.jpg,stim/negf.jpg,stim/5.jpg,stim/1.jpg,stim/latef.jpg,CD,1,2,,,,,,,,,,,,,0,52,52,22,,,,,,2,1,0.999725453664,,,,,,2016_Sep_01_1310,P9,PLC_L_D1S1,NHGX,60.0241648256,
stim/posf.jpg,stim/negf.jpg,stim/1.jpg,stim/5.jpg,stim/latef.jpg,CD,2,4,,,,,,,,,,,,,0,53,53,35,,,,,,4,1,1.01632487096,,,,,,2016_Sep_01_1310,P9,PLC_L_D1S1,NHGX,60.0241648256,
stim/posf.jpg,stim/negf.jpg,stim/4.jpg,stim/6.jpg,stim/latef.jpg,AB,2,4,,,,,,,,,,,,,0,54,54,12,,,,,,4,1,0.733079235041,,,,,,2016_Sep_01_1310,P9,PLC_L_D1S1,NHGX,60.0241648256,
stim/posf.jpg,stim/negf.jpg,stim/4.jpg,stim/6.jpg,stim/latef.jpg,AB,2,4,,,,,,,,,,,,,0,55,55,16,,,,,,4,1,0.533189415077,,,,,,2016_Sep_01_1310,P9,PLC_L_D1S1,NHGX,60.0241648256,
stim/negf.jpg,stim/posf.jpg,stim/5.jpg,stim/1.jpg,stim/latef.jpg,CD,1,2,,,,,,,,,,,,,0,56,56,28,,,,,,2,1,0.76636588885,,,,,,2016_Sep_01_1310,P9,PLC_L_D1S1,NHGX,60.0241648256,
stim/posf.jpg,stim/negf.jpg,stim/5.jpg,stim/1.jpg,stim/latef.jpg,CD,1,2,,,,,,,,,,,,,0,57,57,23,,,,,,2,1,0.799733730324,,,,,,2016_Sep_01_1310,P9,PLC_L_D1S1,NHGX,60.0241648256,
stim/posf.jpg,stim/negf.jpg,stim/3.jpg,stim/2.jpg,stim/latef.jpg,EF,2,4,,,,,,,,,,,,,0,58,58,53,,,,,,2,0,0.883041188567,,,,,,2016_Sep_01_1310,P9,PLC_L_D1S1,NHGX,60.0241648256,
stim/posf.jpg,stim/negf.jpg,stim/3.jpg,stim/2.jpg,stim/latef.jpg,EF,2,4,,,,,,,,,,,,,0,59,59,54,,,,,,2,0,0.799746304713,,,,,,2016_Sep_01_1310,P9,PLC_L_D1S1,NHGX,60.0241648256,
