symbol2,symbol1,decisionID,correct,block_01.thisRepN,block_01.thisTrialN,block_01.thisN,block_01.thisIndex,mouse.x,mouse.y,mouse.leftButton,mouse.midButton,mouse.rightButton,buttonBox_2.keys,buttonBox_2.corr,buttonBox_2.rt,date,Participant,expName,Group,frameRate,
,,,,,,,,0.99875,1.0,1,0,0,,,,2017_Jan_20_0832,P2,PLC_T_D2S1,NHGY,60.0083851976,
stim/3.jpg,stim/1.jpg,13,4,0,0,0,18,,,,,,4,1,1.16671704906,2017_Jan_20_0832,P2,PLC_T_D2S1,NHGY,60.0083851976,
stim/6.jpg,stim/4.jpg,5,2,0,1,1,4,,,,,,2,1,1.28332239862,2017_Jan_20_0832,P2,PLC_T_D2S1,NHGY,60.0083851976,
stim/2.jpg,stim/5.jpg,6,2,0,2,2,11,,,,,,2,1,0.949990882809,2017_Jan_20_0832,P2,PLC_T_D2S1,NHGY,60.0083851976,
stim/2.jpg,stim/3.jpg,8,2,0,3,3,21,,,,,,2,1,0.866669470645,2017_Jan_20_0832,P2,PLC_T_D2S1,NHGY,60.0083851976,
stim/2.jpg,stim/1.jpg,7,2,0,4,4,16,,,,,,2,1,1.13333029176,2017_Jan_20_0832,P2,PLC_T_D2S1,NHGY,60.0083851976,
stim/3.jpg,stim/2.jpg,8,4,0,5,5,8,,,,,,4,1,1.23332935042,2017_Jan_20_0832,P2,PLC_T_D2S1,NHGY,60.0083851976,
stim/4.jpg,stim/5.jpg,2,4,0,6,6,10,,,,,,4,1,1.11665986023,2017_Jan_20_0832,P2,PLC_T_D2S1,NHGY,60.0083851976,
stim/1.jpg,stim/4.jpg,3,2,0,7,7,2,,,,,,2,1,0.96657453337,2017_Jan_20_0832,P2,PLC_T_D2S1,NHGY,60.0083851976,
stim/5.jpg,stim/4.jpg,2,2,0,8,8,1,,,,,,2,1,0.749997784987,2017_Jan_20_0832,P2,PLC_T_D2S1,NHGY,60.0083851976,
stim/3.jpg,stim/5.jpg,11,2,0,9,9,13,,,,,,2,1,1.13333116093,2017_Jan_20_0832,P2,PLC_T_D2S1,NHGY,60.0083851976,
stim/2.jpg,stim/6.jpg,9,2,0,10,10,26,,,,,,4,0,1.00004131683,2017_Jan_20_0832,P2,PLC_T_D2S1,NHGY,60.0083851976,
stim/5.jpg,stim/2.jpg,6,4,0,11,11,6,,,,,,4,1,1.21666417898,2017_Jan_20_0832,P2,PLC_T_D2S1,NHGY,60.0083851976,
stim/1.jpg,stim/6.jpg,14,2,0,12,12,28,,,,,,4,0,1.03334412619,2017_Jan_20_0832,P2,PLC_T_D2S1,NHGY,60.0083851976,
stim/6.jpg,stim/3.jpg,15,2,0,13,13,24,,,,,,2,1,0.799985933993,2017_Jan_20_0832,P2,PLC_T_D2S1,NHGY,60.0083851976,
stim/3.jpg,stim/4.jpg,4,2,0,14,14,3,,,,,,2,1,0.799994424123,2017_Jan_20_0832,P2,PLC_T_D2S1,NHGY,60.0083851976,
stim/1.jpg,stim/5.jpg,10,2,0,15,15,12,,,,,,2,1,0.733346859998,2017_Jan_20_0832,P2,PLC_T_D2S1,NHGY,60.0083851976,
stim/2.jpg,stim/4.jpg,1,2,0,16,16,0,,,,,,2,1,0.749986939997,2017_Jan_20_0832,P2,PLC_T_D2S1,NHGY,60.0083851976,
stim/6.jpg,stim/5.jpg,12,2,0,17,17,14,,,,,,2,1,0.849981508479,2017_Jan_20_0832,P2,PLC_T_D2S1,NHGY,60.0083851976,
stim/1.jpg,stim/3.jpg,13,2,0,18,18,23,,,,,,2,1,0.633374297282,2017_Jan_20_0832,P2,PLC_T_D2S1,NHGY,60.0083851976,
stim/4.jpg,stim/3.jpg,4,4,0,19,19,20,,,,,,2,0,0.666660772999,2017_Jan_20_0832,P2,PLC_T_D2S1,NHGY,60.0083851976,
stim/4.jpg,stim/2.jpg,1,4,0,20,20,5,,,,,,4,1,0.816662575986,2017_Jan_20_0832,P2,PLC_T_D2S1,NHGY,60.0083851976,
stim/4.jpg,stim/1.jpg,3,4,0,21,21,15,,,,,,4,1,1.0166568377,2017_Jan_20_0832,P2,PLC_T_D2S1,NHGY,60.0083851976,
stim/6.jpg,stim/1.jpg,14,4,0,22,22,19,,,,,,4,1,0.849984422732,2017_Jan_20_0832,P2,PLC_T_D2S1,NHGY,60.0083851976,
stim/6.jpg,stim/2.jpg,9,4,0,23,23,9,,,,,,4,1,0.849982305463,2017_Jan_20_0832,P2,PLC_T_D2S1,NHGY,60.0083851976,
stim/3.jpg,stim/6.jpg,15,4,0,24,24,29,,,,,,2,0,0.816615190054,2017_Jan_20_0832,P2,PLC_T_D2S1,NHGY,60.0083851976,
stim/5.jpg,stim/1.jpg,10,4,0,25,25,17,,,,,,4,1,0.916650615219,2017_Jan_20_0832,P2,PLC_T_D2S1,NHGY,60.0083851976,
stim/4.jpg,stim/6.jpg,5,4,0,26,26,25,,,,,,4,1,0.883299063544,2017_Jan_20_0832,P2,PLC_T_D2S1,NHGY,60.0083851976,
stim/1.jpg,stim/2.jpg,7,4,0,27,27,7,,,,,,4,1,0.850003261618,2017_Jan_20_0832,P2,PLC_T_D2S1,NHGY,60.0083851976,
stim/5.jpg,stim/6.jpg,12,4,0,28,28,27,,,,,,2,0,0.749994774495,2017_Jan_20_0832,P2,PLC_T_D2S1,NHGY,60.0083851976,
stim/5.jpg,stim/3.jpg,11,4,0,29,29,22,,,,,,2,0,0.933276364552,2017_Jan_20_0832,P2,PLC_T_D2S1,NHGY,60.0083851976,
stim/3.jpg,stim/5.jpg,11,2,1,0,30,13,,,,,,2,1,0.899991702349,2017_Jan_20_0832,P2,PLC_T_D2S1,NHGY,60.0083851976,
stim/6.jpg,stim/3.jpg,15,2,1,1,31,24,,,,,,2,1,0.799979603238,2017_Jan_20_0832,P2,PLC_T_D2S1,NHGY,60.0083851976,
stim/3.jpg,stim/6.jpg,15,4,1,2,32,29,,,,,,4,1,0.93334234877,2017_Jan_20_0832,P2,PLC_T_D2S1,NHGY,60.0083851976,
stim/1.jpg,stim/4.jpg,3,2,1,3,33,2,,,,,,2,1,0.816656182073,2017_Jan_20_0832,P2,PLC_T_D2S1,NHGY,60.0083851976,
stim/6.jpg,stim/4.jpg,5,2,1,4,34,4,,,,,,2,1,1.0833190573,2017_Jan_20_0832,P2,PLC_T_D2S1,NHGY,60.0083851976,
stim/2.jpg,stim/1.jpg,7,2,1,5,35,16,,,,,,2,1,1.16670791532,2017_Jan_20_0832,P2,PLC_T_D2S1,NHGY,60.0083851976,
stim/1.jpg,stim/3.jpg,13,2,1,6,36,23,,,,,,2,1,0.966664093262,2017_Jan_20_0832,P2,PLC_T_D2S1,NHGY,60.0083851976,
stim/4.jpg,stim/5.jpg,2,4,1,7,37,10,,,,,,4,1,1.03333297143,2017_Jan_20_0832,P2,PLC_T_D2S1,NHGY,60.0083851976,
stim/5.jpg,stim/6.jpg,12,4,1,8,38,27,,,,,,2,0,0.966594211344,2017_Jan_20_0832,P2,PLC_T_D2S1,NHGY,60.0083851976,
stim/3.jpg,stim/1.jpg,13,4,1,9,39,18,,,,,,4,1,0.833384134765,2017_Jan_20_0832,P2,PLC_T_D2S1,NHGY,60.0083851976,
stim/2.jpg,stim/3.jpg,8,2,1,10,40,21,,,,,,2,1,0.83332957899,2017_Jan_20_0832,P2,PLC_T_D2S1,NHGY,60.0083851976,
stim/6.jpg,stim/2.jpg,9,4,1,11,41,9,,,,,,4,1,0.983346512633,2017_Jan_20_0832,P2,PLC_T_D2S1,NHGY,60.0083851976,
stim/2.jpg,stim/4.jpg,1,2,1,12,42,0,,,,,,2,1,0.749986687368,2017_Jan_20_0832,P2,PLC_T_D2S1,NHGY,60.0083851976,
stim/6.jpg,stim/5.jpg,12,2,1,13,43,14,,,,,,2,1,0.883379727296,2017_Jan_20_0832,P2,PLC_T_D2S1,NHGY,60.0083851976,
stim/5.jpg,stim/3.jpg,11,4,1,14,44,22,,,,,,2,0,0.716686317071,2017_Jan_20_0832,P2,PLC_T_D2S1,NHGY,60.0083851976,
stim/4.jpg,stim/2.jpg,1,4,1,15,45,5,,,,,,4,1,0.833292403469,2017_Jan_20_0832,P2,PLC_T_D2S1,NHGY,60.0083851976,
stim/3.jpg,stim/2.jpg,8,4,1,16,46,8,,,,,,4,1,0.883326314365,2017_Jan_20_0832,P2,PLC_T_D2S1,NHGY,60.0083851976,
stim/5.jpg,stim/2.jpg,6,4,1,17,47,6,,,,,,4,1,0.883327806077,2017_Jan_20_0832,P2,PLC_T_D2S1,NHGY,60.0083851976,
stim/4.jpg,stim/3.jpg,4,4,1,18,48,20,,,,,,2,0,0.76666150081,2017_Jan_20_0832,P2,PLC_T_D2S1,NHGY,60.0083851976,
stim/4.jpg,stim/6.jpg,5,4,1,19,49,25,,,,,,4,1,0.699979753612,2017_Jan_20_0832,P2,PLC_T_D2S1,NHGY,60.0083851976,
stim/6.jpg,stim/1.jpg,14,4,1,20,50,19,,,,,,4,1,0.916637234919,2017_Jan_20_0832,P2,PLC_T_D2S1,NHGY,60.0083851976,
stim/2.jpg,stim/5.jpg,6,2,1,21,51,11,,,,,,2,1,0.933332806021,2017_Jan_20_0832,P2,PLC_T_D2S1,NHGY,60.0083851976,
stim/5.jpg,stim/1.jpg,10,4,1,22,52,17,,,,,,4,1,1.13331707988,2017_Jan_20_0832,P2,PLC_T_D2S1,NHGY,60.0083851976,
stim/5.jpg,stim/4.jpg,2,2,1,23,53,1,,,,,,2,1,0.866660418115,2017_Jan_20_0832,P2,PLC_T_D2S1,NHGY,60.0083851976,
stim/1.jpg,stim/5.jpg,10,2,1,24,54,12,,,,,,2,1,0.88333018199,2017_Jan_20_0832,P2,PLC_T_D2S1,NHGY,60.0083851976,
stim/4.jpg,stim/1.jpg,3,4,1,25,55,15,,,,,,4,1,0.716592456476,2017_Jan_20_0832,P2,PLC_T_D2S1,NHGY,60.0083851976,
stim/3.jpg,stim/4.jpg,4,2,1,26,56,3,,,,,,2,1,0.716665048139,2017_Jan_20_0832,P2,PLC_T_D2S1,NHGY,60.0083851976,
stim/1.jpg,stim/2.jpg,7,4,1,27,57,7,,,,,,4,1,0.816591954226,2017_Jan_20_0832,P2,PLC_T_D2S1,NHGY,60.0083851976,
stim/2.jpg,stim/6.jpg,9,2,1,28,58,26,,,,,,2,1,1.03332380462,2017_Jan_20_0832,P2,PLC_T_D2S1,NHGY,60.0083851976,
stim/1.jpg,stim/6.jpg,14,2,1,29,59,28,,,,,,2,1,0.766649813724,2017_Jan_20_0832,P2,PLC_T_D2S1,NHGY,60.0083851976,
stim/3.jpg,stim/2.jpg,8,4,2,0,60,8,,,,,,4,1,0.783380148344,2017_Jan_20_0832,P2,PLC_T_D2S1,NHGY,60.0083851976,
stim/1.jpg,stim/5.jpg,10,2,2,1,61,12,,,,,,2,1,0.699941447277,2017_Jan_20_0832,P2,PLC_T_D2S1,NHGY,60.0083851976,
stim/6.jpg,stim/2.jpg,9,4,2,2,62,9,,,,,,4,1,0.86664110104,2017_Jan_20_0832,P2,PLC_T_D2S1,NHGY,60.0083851976,
stim/4.jpg,stim/6.jpg,5,4,2,3,63,25,,,,,,4,1,0.866677127701,2017_Jan_20_0832,P2,PLC_T_D2S1,NHGY,60.0083851976,
stim/2.jpg,stim/3.jpg,8,2,2,4,64,21,,,,,,2,1,0.833354471942,2017_Jan_20_0832,P2,PLC_T_D2S1,NHGY,60.0083851976,
stim/4.jpg,stim/3.jpg,4,4,2,5,65,20,,,,,,4,1,0.816669066138,2017_Jan_20_0832,P2,PLC_T_D2S1,NHGY,60.0083851976,
stim/3.jpg,stim/4.jpg,4,2,2,6,66,3,,,,,,4,0,0.899984791149,2017_Jan_20_0832,P2,PLC_T_D2S1,NHGY,60.0083851976,
stim/2.jpg,stim/6.jpg,9,2,2,7,67,26,,,,,,2,1,0.816639541659,2017_Jan_20_0832,P2,PLC_T_D2S1,NHGY,60.0083851976,
stim/1.jpg,stim/6.jpg,14,2,2,8,68,28,,,,,,4,0,1.00001399683,2017_Jan_20_0832,P2,PLC_T_D2S1,NHGY,60.0083851976,
stim/6.jpg,stim/1.jpg,14,4,2,9,69,19,,,,,,4,1,0.733330730856,2017_Jan_20_0832,P2,PLC_T_D2S1,NHGY,60.0083851976,
stim/5.jpg,stim/2.jpg,6,4,2,10,70,6,,,,,,4,1,0.949985168589,2017_Jan_20_0832,P2,PLC_T_D2S1,NHGY,60.0083851976,
stim/2.jpg,stim/5.jpg,6,2,2,11,71,11,,,,,,2,1,0.866655666289,2017_Jan_20_0832,P2,PLC_T_D2S1,NHGY,60.0083851976,
stim/5.jpg,stim/1.jpg,10,4,2,12,72,17,,,,,,4,1,0.733321609155,2017_Jan_20_0832,P2,PLC_T_D2S1,NHGY,60.0083851976,
stim/1.jpg,stim/4.jpg,3,2,2,13,73,2,,,,,,2,1,0.633335064642,2017_Jan_20_0832,P2,PLC_T_D2S1,NHGY,60.0083851976,
stim/6.jpg,stim/3.jpg,15,2,2,14,74,24,,,,,,2,1,0.849985779108,2017_Jan_20_0832,P2,PLC_T_D2S1,NHGY,60.0083851976,
stim/4.jpg,stim/5.jpg,2,4,2,15,75,10,,,,,,2,0,1.08332749931,2017_Jan_20_0832,P2,PLC_T_D2S1,NHGY,60.0083851976,
stim/2.jpg,stim/1.jpg,7,2,2,16,76,16,,,,,,4,0,0.916654028714,2017_Jan_20_0832,P2,PLC_T_D2S1,NHGY,60.0083851976,
stim/5.jpg,stim/3.jpg,11,4,2,17,77,22,,,,,,4,1,0.849978774675,2017_Jan_20_0832,P2,PLC_T_D2S1,NHGY,60.0083851976,
stim/1.jpg,stim/2.jpg,7,4,2,18,78,7,,,,,,4,1,0.866650526498,2017_Jan_20_0832,P2,PLC_T_D2S1,NHGY,60.0083851976,
stim/4.jpg,stim/2.jpg,1,4,2,19,79,5,,,,,,4,1,0.783363219211,2017_Jan_20_0832,P2,PLC_T_D2S1,NHGY,60.0083851976,
stim/5.jpg,stim/4.jpg,2,2,2,20,80,1,,,,,,2,1,0.699995031635,2017_Jan_20_0832,P2,PLC_T_D2S1,NHGY,60.0083851976,
stim/2.jpg,stim/4.jpg,1,2,2,21,81,0,,,,,,2,1,0.616656642218,2017_Jan_20_0832,P2,PLC_T_D2S1,NHGY,60.0083851976,
stim/6.jpg,stim/5.jpg,12,2,2,22,82,14,,,,,,2,1,0.683318070849,2017_Jan_20_0832,P2,PLC_T_D2S1,NHGY,60.0083851976,
stim/3.jpg,stim/5.jpg,11,2,2,23,83,13,,,,,,2,1,0.616681090063,2017_Jan_20_0832,P2,PLC_T_D2S1,NHGY,60.0083851976,
stim/3.jpg,stim/6.jpg,15,4,2,24,84,29,,,,,,4,1,0.766641609305,2017_Jan_20_0832,P2,PLC_T_D2S1,NHGY,60.0083851976,
stim/1.jpg,stim/3.jpg,13,2,2,25,85,23,,,,,,2,1,0.683312714519,2017_Jan_20_0832,P2,PLC_T_D2S1,NHGY,60.0083851976,
stim/5.jpg,stim/6.jpg,12,4,2,26,86,27,,,,,,2,0,0.7666585234,2017_Jan_20_0832,P2,PLC_T_D2S1,NHGY,60.0083851976,
stim/6.jpg,stim/4.jpg,5,2,2,27,87,4,,,,,,2,1,0.650008681105,2017_Jan_20_0832,P2,PLC_T_D2S1,NHGY,60.0083851976,
stim/4.jpg,stim/1.jpg,3,4,2,28,88,15,,,,,,4,1,0.799980276914,2017_Jan_20_0832,P2,PLC_T_D2S1,NHGY,60.0083851976,
stim/3.jpg,stim/1.jpg,13,4,2,29,89,18,,,,,,4,1,0.883277758521,2017_Jan_20_0832,P2,PLC_T_D2S1,NHGY,60.0083851976,
stim/6.jpg,stim/4.jpg,5,2,3,0,90,4,,,,,,2,1,0.71665488284,2017_Jan_20_0832,P2,PLC_T_D2S1,NHGY,60.0083851976,
stim/4.jpg,stim/1.jpg,3,4,3,1,91,15,,,,,,4,1,0.766662255689,2017_Jan_20_0832,P2,PLC_T_D2S1,NHGY,60.0083851976,
stim/2.jpg,stim/4.jpg,1,2,3,2,92,0,,,,,,2,1,0.683317198678,2017_Jan_20_0832,P2,PLC_T_D2S1,NHGY,60.0083851976,
stim/2.jpg,stim/5.jpg,6,2,3,3,93,11,,,,,,2,1,0.749935960121,2017_Jan_20_0832,P2,PLC_T_D2S1,NHGY,60.0083851976,
stim/3.jpg,stim/2.jpg,8,4,3,4,94,8,,,,,,4,1,0.883320961042,2017_Jan_20_0832,P2,PLC_T_D2S1,NHGY,60.0083851976,
stim/2.jpg,stim/3.jpg,8,2,3,5,95,21,,,,,,2,1,0.733313224287,2017_Jan_20_0832,P2,PLC_T_D2S1,NHGY,60.0083851976,
stim/3.jpg,stim/4.jpg,4,2,3,6,96,3,,,,,,4,0,0.833326054217,2017_Jan_20_0832,P2,PLC_T_D2S1,NHGY,60.0083851976,
stim/2.jpg,stim/6.jpg,9,2,3,7,97,26,,,,,,4,0,0.816673881122,2017_Jan_20_0832,P2,PLC_T_D2S1,NHGY,60.0083851976,
stim/4.jpg,stim/3.jpg,4,4,3,8,98,20,,,,,,4,1,0.83333109777,2017_Jan_20_0832,P2,PLC_T_D2S1,NHGY,60.0083851976,
stim/4.jpg,stim/5.jpg,2,4,3,9,99,10,,,,,,4,1,1.23333238497,2017_Jan_20_0832,P2,PLC_T_D2S1,NHGY,60.0083851976,
stim/6.jpg,stim/2.jpg,9,4,3,10,100,9,,,,,,4,1,0.883270044323,2017_Jan_20_0832,P2,PLC_T_D2S1,NHGY,60.0083851976,
stim/2.jpg,stim/1.jpg,7,2,3,11,101,16,,,,,,2,1,1.01666400755,2017_Jan_20_0832,P2,PLC_T_D2S1,NHGY,60.0083851976,
stim/4.jpg,stim/6.jpg,5,4,3,12,102,25,,,,,,4,1,0.64999127679,2017_Jan_20_0832,P2,PLC_T_D2S1,NHGY,60.0083851976,
stim/4.jpg,stim/2.jpg,1,4,3,13,103,5,,,,,,4,1,0.716649604704,2017_Jan_20_0832,P2,PLC_T_D2S1,NHGY,60.0083851976,
stim/5.jpg,stim/2.jpg,6,4,3,14,104,6,,,,,,4,1,0.866679452487,2017_Jan_20_0832,P2,PLC_T_D2S1,NHGY,60.0083851976,
stim/5.jpg,stim/3.jpg,11,4,3,15,105,22,,,,,,2,0,0.799985759559,2017_Jan_20_0832,P2,PLC_T_D2S1,NHGY,60.0083851976,
stim/5.jpg,stim/4.jpg,2,2,3,16,106,1,,,,,,2,1,0.949994621113,2017_Jan_20_0832,P2,PLC_T_D2S1,NHGY,60.0083851976,
stim/1.jpg,stim/2.jpg,7,4,3,17,107,7,,,,,,4,1,0.816660248192,2017_Jan_20_0832,P2,PLC_T_D2S1,NHGY,60.0083851976,
stim/6.jpg,stim/5.jpg,12,2,3,18,108,14,,,,,,2,1,0.933313922023,2017_Jan_20_0832,P2,PLC_T_D2S1,NHGY,60.0083851976,
stim/5.jpg,stim/6.jpg,12,4,3,19,109,27,,,,,,4,1,1.04999591433,2017_Jan_20_0832,P2,PLC_T_D2S1,NHGY,60.0083851976,
stim/6.jpg,stim/1.jpg,14,4,3,20,110,19,,,,,,4,1,0.816649941542,2017_Jan_20_0832,P2,PLC_T_D2S1,NHGY,60.0083851976,
stim/3.jpg,stim/5.jpg,11,2,3,21,111,13,,,,,,2,1,0.716671499194,2017_Jan_20_0832,P2,PLC_T_D2S1,NHGY,60.0083851976,
stim/1.jpg,stim/6.jpg,14,2,3,22,112,28,,,,,,2,1,0.950002975906,2017_Jan_20_0832,P2,PLC_T_D2S1,NHGY,60.0083851976,
stim/5.jpg,stim/1.jpg,10,4,3,23,113,17,,,,,,4,1,0.933343338233,2017_Jan_20_0832,P2,PLC_T_D2S1,NHGY,60.0083851976,
stim/1.jpg,stim/4.jpg,3,2,3,24,114,2,,,,,,2,1,0.816645797228,2017_Jan_20_0832,P2,PLC_T_D2S1,NHGY,60.0083851976,
stim/3.jpg,stim/6.jpg,15,4,3,25,115,29,,,,,,2,0,0.93321473818,2017_Jan_20_0832,P2,PLC_T_D2S1,NHGY,60.0083851976,
stim/1.jpg,stim/5.jpg,10,2,3,26,116,12,,,,,,2,1,1.16668975613,2017_Jan_20_0832,P2,PLC_T_D2S1,NHGY,60.0083851976,
stim/3.jpg,stim/1.jpg,13,4,3,27,117,18,,,,,,4,1,0.916665670688,2017_Jan_20_0832,P2,PLC_T_D2S1,NHGY,60.0083851976,
stim/1.jpg,stim/3.jpg,13,2,3,28,118,23,,,,,,2,1,0.816693249325,2017_Jan_20_0832,P2,PLC_T_D2S1,NHGY,60.0083851976,
stim/6.jpg,stim/3.jpg,15,2,3,29,119,24,,,,,,2,1,0.650008362312,2017_Jan_20_0832,P2,PLC_T_D2S1,NHGY,60.0083851976,
stim/2.jpg,stim/1.jpg,7,2,4,0,120,16,,,,,,2,1,1.25000247967,2017_Jan_20_0832,P2,PLC_T_D2S1,NHGY,60.0083851976,
stim/4.jpg,stim/6.jpg,5,4,4,1,121,25,,,,,,2,0,0.966709936354,2017_Jan_20_0832,P2,PLC_T_D2S1,NHGY,60.0083851976,
stim/2.jpg,stim/5.jpg,6,2,4,2,122,11,,,,,,2,1,0.949998359417,2017_Jan_20_0832,P2,PLC_T_D2S1,NHGY,60.0083851976,
stim/6.jpg,stim/5.jpg,12,2,4,3,123,14,,,,,,2,1,0.799990953486,2017_Jan_20_0832,P2,PLC_T_D2S1,NHGY,60.0083851976,
stim/4.jpg,stim/3.jpg,4,4,4,4,124,20,,,,,,4,1,0.983361965091,2017_Jan_20_0832,P2,PLC_T_D2S1,NHGY,60.0083851976,
stim/1.jpg,stim/3.jpg,13,2,4,5,125,23,,,,,,2,1,0.666664670699,2017_Jan_20_0832,P2,PLC_T_D2S1,NHGY,60.0083851976,
stim/2.jpg,stim/4.jpg,1,2,4,6,126,0,,,,,,2,1,0.733329151927,2017_Jan_20_0832,P2,PLC_T_D2S1,NHGY,60.0083851976,
stim/1.jpg,stim/6.jpg,14,2,4,7,127,28,,,,,,2,1,0.783355192234,2017_Jan_20_0832,P2,PLC_T_D2S1,NHGY,60.0083851976,
stim/5.jpg,stim/2.jpg,6,4,4,8,128,6,,,,,,4,1,0.766670126276,2017_Jan_20_0832,P2,PLC_T_D2S1,NHGY,60.0083851976,
stim/3.jpg,stim/6.jpg,15,4,4,9,129,29,,,,,,2,0,0.700058718135,2017_Jan_20_0832,P2,PLC_T_D2S1,NHGY,60.0083851976,
stim/4.jpg,stim/5.jpg,2,4,4,10,130,10,,,,,,4,1,0.600058050473,2017_Jan_20_0832,P2,PLC_T_D2S1,NHGY,60.0083851976,
stim/2.jpg,stim/3.jpg,8,2,4,11,131,21,,,,,,2,1,1.03322668692,2017_Jan_20_0832,P2,PLC_T_D2S1,NHGY,60.0083851976,
stim/3.jpg,stim/5.jpg,11,2,4,12,132,13,,,,,,4,0,1.13336651391,2017_Jan_20_0832,P2,PLC_T_D2S1,NHGY,60.0083851976,
stim/1.jpg,stim/4.jpg,3,2,4,13,133,2,,,,,,2,1,0.833303967248,2017_Jan_20_0832,P2,PLC_T_D2S1,NHGY,60.0083851976,
stim/3.jpg,stim/1.jpg,13,4,4,14,134,18,,,,,,4,1,0.76667148566,2017_Jan_20_0832,P2,PLC_T_D2S1,NHGY,60.0083851976,
stim/4.jpg,stim/2.jpg,1,4,4,15,135,5,,,,,,4,1,0.799987494878,2017_Jan_20_0832,P2,PLC_T_D2S1,NHGY,60.0083851976,
stim/5.jpg,stim/4.jpg,2,2,4,16,136,1,,,,,,2,1,0.78334319237,2017_Jan_20_0832,P2,PLC_T_D2S1,NHGY,60.0083851976,
stim/1.jpg,stim/2.jpg,7,4,4,17,137,7,,,,,,2,0,1.16666241809,2017_Jan_20_0832,P2,PLC_T_D2S1,NHGY,60.0083851976,
stim/6.jpg,stim/3.jpg,15,2,4,18,138,24,,,,,,2,1,0.966682384785,2017_Jan_20_0832,P2,PLC_T_D2S1,NHGY,60.0083851976,
stim/5.jpg,stim/1.jpg,10,4,4,19,139,17,,,,,,4,1,1.01666218201,2017_Jan_20_0832,P2,PLC_T_D2S1,NHGY,60.0083851976,
stim/4.jpg,stim/1.jpg,3,4,4,20,140,15,,,,,,4,1,1.01665644974,2017_Jan_20_0832,P2,PLC_T_D2S1,NHGY,60.0083851976,
stim/6.jpg,stim/2.jpg,9,4,4,21,141,9,,,,,,4,1,1.05003249738,2017_Jan_20_0832,P2,PLC_T_D2S1,NHGY,60.0083851976,
stim/3.jpg,stim/4.jpg,4,2,4,22,142,3,,,,,,2,1,0.833346850975,2017_Jan_20_0832,P2,PLC_T_D2S1,NHGY,60.0083851976,
stim/6.jpg,stim/1.jpg,14,4,4,23,143,19,,,,,,4,1,1.38328268779,2017_Jan_20_0832,P2,PLC_T_D2S1,NHGY,60.0083851976,
stim/2.jpg,stim/6.jpg,9,2,4,24,144,26,,,,,,2,1,0.983274769082,2017_Jan_20_0832,P2,PLC_T_D2S1,NHGY,60.0083851976,
stim/1.jpg,stim/5.jpg,10,2,4,25,145,12,,,,,,2,1,1.08330915065,2017_Jan_20_0832,P2,PLC_T_D2S1,NHGY,60.0083851976,
stim/5.jpg,stim/6.jpg,12,4,4,26,146,27,,,,,,2,0,1.10000707661,2017_Jan_20_0832,P2,PLC_T_D2S1,NHGY,60.0083851976,
stim/5.jpg,stim/3.jpg,11,4,4,27,147,22,,,,,,2,0,0.95004552881,2017_Jan_20_0832,P2,PLC_T_D2S1,NHGY,60.0083851976,
stim/6.jpg,stim/4.jpg,5,2,4,28,148,4,,,,,,2,1,0.866636878532,2017_Jan_20_0832,P2,PLC_T_D2S1,NHGY,60.0083851976,
stim/3.jpg,stim/2.jpg,8,4,4,29,149,8,,,,,,4,1,0.933357076424,2017_Jan_20_0832,P2,PLC_T_D2S1,NHGY,60.0083851976,
stim/3.jpg,stim/6.jpg,15,4,5,0,150,29,,,,,,4,1,0.99999442713,2017_Jan_20_0832,P2,PLC_T_D2S1,NHGY,60.0083851976,
stim/3.jpg,stim/2.jpg,8,4,5,1,151,8,,,,,,4,1,0.883304973253,2017_Jan_20_0832,P2,PLC_T_D2S1,NHGY,60.0083851976,
stim/5.jpg,stim/6.jpg,12,4,5,2,152,27,,,,,,4,1,1.01667700891,2017_Jan_20_0832,P2,PLC_T_D2S1,NHGY,60.0083851976,
stim/4.jpg,stim/1.jpg,3,4,5,3,153,15,,,,,,4,1,0.900059343692,2017_Jan_20_0832,P2,PLC_T_D2S1,NHGY,60.0083851976,
stim/2.jpg,stim/1.jpg,7,2,5,4,154,16,,,,,,4,0,0.950000999989,2017_Jan_20_0832,P2,PLC_T_D2S1,NHGY,60.0083851976,
stim/1.jpg,stim/3.jpg,13,2,5,5,155,23,,,,,,2,1,0.900015825386,2017_Jan_20_0832,P2,PLC_T_D2S1,NHGY,60.0083851976,
stim/2.jpg,stim/6.jpg,9,2,5,6,156,26,,,,,,2,1,0.800012261516,2017_Jan_20_0832,P2,PLC_T_D2S1,NHGY,60.0083851976,
stim/6.jpg,stim/3.jpg,15,2,5,7,157,24,,,,,,2,1,0.616660684278,2017_Jan_20_0832,P2,PLC_T_D2S1,NHGY,60.0083851976,
stim/3.jpg,stim/1.jpg,13,4,5,8,158,18,,,,,,4,1,0.816656359515,2017_Jan_20_0832,P2,PLC_T_D2S1,NHGY,60.0083851976,
stim/1.jpg,stim/5.jpg,10,2,5,9,159,12,,,,,,2,1,0.833383963339,2017_Jan_20_0832,P2,PLC_T_D2S1,NHGY,60.0083851976,
stim/3.jpg,stim/5.jpg,11,2,5,10,160,13,,,,,,2,1,0.749991267768,2017_Jan_20_0832,P2,PLC_T_D2S1,NHGY,60.0083851976,
stim/6.jpg,stim/4.jpg,5,2,5,11,161,4,,,,,,2,1,0.76666309177,2017_Jan_20_0832,P2,PLC_T_D2S1,NHGY,60.0083851976,
stim/1.jpg,stim/4.jpg,3,2,5,12,162,2,,,,,,2,1,0.816666612031,2017_Jan_20_0832,P2,PLC_T_D2S1,NHGY,60.0083851976,
stim/1.jpg,stim/2.jpg,7,4,5,13,163,7,,,,,,4,1,0.849946242712,2017_Jan_20_0832,P2,PLC_T_D2S1,NHGY,60.0083851976,
stim/5.jpg,stim/1.jpg,10,4,5,14,164,17,,,,,,4,1,0.799989323429,2017_Jan_20_0832,P2,PLC_T_D2S1,NHGY,60.0083851976,
stim/1.jpg,stim/6.jpg,14,2,5,15,165,28,,,,,,2,1,0.766669521772,2017_Jan_20_0832,P2,PLC_T_D2S1,NHGY,60.0083851976,
stim/4.jpg,stim/6.jpg,5,4,5,16,166,25,,,,,,4,1,0.749987177588,2017_Jan_20_0832,P2,PLC_T_D2S1,NHGY,60.0083851976,
stim/2.jpg,stim/5.jpg,6,2,5,17,167,11,,,,,,2,1,0.649986488874,2017_Jan_20_0832,P2,PLC_T_D2S1,NHGY,60.0083851976,
stim/5.jpg,stim/3.jpg,11,4,5,18,168,22,,,,,,2,0,0.683340726232,2017_Jan_20_0832,P2,PLC_T_D2S1,NHGY,60.0083851976,
stim/3.jpg,stim/4.jpg,4,2,5,19,169,3,,,,,,2,1,0.699983633267,2017_Jan_20_0832,P2,PLC_T_D2S1,NHGY,60.0083851976,
stim/6.jpg,stim/5.jpg,12,2,5,20,170,14,,,,,,2,1,0.766669497712,2017_Jan_20_0832,P2,PLC_T_D2S1,NHGY,60.0083851976,
stim/5.jpg,stim/2.jpg,6,4,5,21,171,6,,,,,,4,1,0.933341768326,2017_Jan_20_0832,P2,PLC_T_D2S1,NHGY,60.0083851976,
stim/6.jpg,stim/1.jpg,14,4,5,22,172,19,,,,,,4,1,0.866659160987,2017_Jan_20_0832,P2,PLC_T_D2S1,NHGY,60.0083851976,
stim/4.jpg,stim/5.jpg,2,4,5,23,173,10,,,,,,4,1,1.03343728304,2017_Jan_20_0832,P2,PLC_T_D2S1,NHGY,60.0083851976,
stim/4.jpg,stim/2.jpg,1,4,5,24,174,5,,,,,,4,1,0.699996015082,2017_Jan_20_0832,P2,PLC_T_D2S1,NHGY,60.0083851976,
stim/5.jpg,stim/4.jpg,2,2,5,25,175,1,,,,,,2,1,0.716588790352,2017_Jan_20_0832,P2,PLC_T_D2S1,NHGY,60.0083851976,
stim/6.jpg,stim/2.jpg,9,4,5,26,176,9,,,,,,4,1,0.750037673259,2017_Jan_20_0832,P2,PLC_T_D2S1,NHGY,60.0083851976,
stim/4.jpg,stim/3.jpg,4,4,5,27,177,20,,,,,,4,1,0.833324887313,2017_Jan_20_0832,P2,PLC_T_D2S1,NHGY,60.0083851976,
stim/2.jpg,stim/3.jpg,8,2,5,28,178,21,,,,,,2,1,1.01667346007,2017_Jan_20_0832,P2,PLC_T_D2S1,NHGY,60.0083851976,
stim/2.jpg,stim/4.jpg,1,2,5,29,179,0,,,,,,2,1,0.749912170915,2017_Jan_20_0832,P2,PLC_T_D2S1,NHGY,60.0083851976,
