fb_corr,fb_incorr,symbol2,symbol1,fb_late,pair,position,correct,block_01.thisRepN,block_01.thisTrialN,block_01.thisN,block_01.thisIndex,block_02.thisRepN,block_02.thisTrialN,block_02.thisN,block_02.thisIndex,block_03.thisRepN,block_03.thisTrialN,block_03.thisN,block_03.thisIndex,block_04.thisRepN,block_04.thisTrialN,block_04.thisN,block_04.thisIndex,mouse.x,mouse.y,mouse.leftButton,mouse.midButton,mouse.rightButton,buttonBox_2.keys,buttonBox_2.corr,buttonBox_2.rt,mouse_2.x,mouse_2.y,mouse_2.leftButton,mouse_2.midButton,mouse_2.rightButton,date,Participant,expName,Group,frameRate,
,,,,,,,,,,,,,,,,,,,,,,,,0.9984375,1.0,1,0,0,,,,,,,,,2015_Nov_25_1353,P10,PLC_L_D1S1,NHG,60.0135728925,
stim/posf.jpg,stim/negf.jpg,stim/3.jpg,stim/2.jpg,stim/latef.jpg,CD,1,2,0,0,0,20,,,,,,,,,,,,,,,,,,2,1,0.499866530327,,,,,,2015_Nov_25_1353,P10,PLC_L_D1S1,NHG,60.0135728925,
stim/posf.jpg,stim/negf.jpg,stim/2.jpg,stim/3.jpg,stim/latef.jpg,CD,2,4,0,1,1,31,,,,,,,,,,,,,,,,,,4,1,1.0829900497,,,,,,2015_Nov_25_1353,P10,PLC_L_D1S1,NHG,60.0135728925,
stim/posf.jpg,stim/negf.jpg,stim/5.jpg,stim/4.jpg,stim/latef.jpg,EF,2,4,0,2,2,50,,,,,,,,,,,,,,,,,,4,1,1.23294801693,,,,,,2015_Nov_25_1353,P10,PLC_L_D1S1,NHG,60.0135728925,
stim/posf.jpg,stim/negf.jpg,stim/2.jpg,stim/3.jpg,stim/latef.jpg,CD,2,4,0,3,3,34,,,,,,,,,,,,,,,,,,4,1,0.749746209427,,,,,,2015_Nov_25_1353,P10,PLC_L_D1S1,NHG,60.0135728925,
stim/negf.jpg,stim/posf.jpg,stim/5.jpg,stim/4.jpg,stim/latef.jpg,EF,2,4,0,4,4,58,,,,,,,,,,,,,,,,,,4,1,0.699766464913,,,,,,2015_Nov_25_1353,P10,PLC_L_D1S1,NHG,60.0135728925,
stim/negf.jpg,stim/posf.jpg,stim/4.jpg,stim/5.jpg,stim/latef.jpg,EF,1,2,0,5,5,47,,,,,,,,,,,,,,,,,,2,1,1.31623232006,,,,,,2015_Nov_25_1353,P10,PLC_L_D1S1,NHG,60.0135728925,
stim/posf.jpg,stim/negf.jpg,stim/4.jpg,stim/5.jpg,stim/latef.jpg,EF,1,2,0,6,6,44,,,,,,,,,,,,,,,,,,None,0,,,,,,,2015_Nov_25_1353,P10,PLC_L_D1S1,NHG,60.0135728925,
stim/posf.jpg,stim/negf.jpg,stim/6.jpg,stim/1.jpg,stim/latef.jpg,AB,1,2,0,7,7,4,,,,,,,,,,,,,,,,,,2,1,0.849714528462,,,,,,2015_Nov_25_1353,P10,PLC_L_D1S1,NHG,60.0135728925,
stim/posf.jpg,stim/negf.jpg,stim/2.jpg,stim/3.jpg,stim/latef.jpg,CD,2,4,0,8,8,36,,,,,,,,,,,,,,,,,,4,1,0.783087396336,,,,,,2015_Nov_25_1353,P10,PLC_L_D1S1,NHG,60.0135728925,
stim/posf.jpg,stim/negf.jpg,stim/1.jpg,stim/6.jpg,stim/latef.jpg,AB,2,4,0,9,9,11,,,,,,,,,,,,,,,,,,4,1,0.966340607965,,,,,,2015_Nov_25_1353,P10,PLC_L_D1S1,NHG,60.0135728925,
stim/posf.jpg,stim/negf.jpg,stim/4.jpg,stim/5.jpg,stim/latef.jpg,EF,1,2,0,10,10,40,,,,,,,,,,,,,,,,,,4,0,1.04966940098,,,,,,2015_Nov_25_1353,P10,PLC_L_D1S1,NHG,60.0135728925,
stim/posf.jpg,stim/negf.jpg,stim/6.jpg,stim/1.jpg,stim/latef.jpg,AB,1,2,0,11,11,7,,,,,,,,,,,,,,,,,,2,1,0.966344544778,,,,,,2015_Nov_25_1353,P10,PLC_L_D1S1,NHG,60.0135728925,
stim/posf.jpg,stim/negf.jpg,stim/6.jpg,stim/1.jpg,stim/latef.jpg,AB,1,2,0,12,12,1,,,,,,,,,,,,,,,,,,2,1,1.08298606477,,,,,,2015_Nov_25_1353,P10,PLC_L_D1S1,NHG,60.0135728925,
stim/posf.jpg,stim/negf.jpg,stim/3.jpg,stim/2.jpg,stim/latef.jpg,CD,1,2,0,13,13,24,,,,,,,,,,,,,,,,,,2,1,1.29957831595,,,,,,2015_Nov_25_1353,P10,PLC_L_D1S1,NHG,60.0135728925,
stim/posf.jpg,stim/negf.jpg,stim/6.jpg,stim/1.jpg,stim/latef.jpg,AB,1,2,0,14,14,2,,,,,,,,,,,,,,,,,,2,1,1.51616215216,,,,,,2015_Nov_25_1353,P10,PLC_L_D1S1,NHG,60.0135728925,
stim/posf.jpg,stim/negf.jpg,stim/2.jpg,stim/3.jpg,stim/latef.jpg,CD,2,4,0,15,15,33,,,,,,,,,,,,,,,,,,2,0,1.19957892347,,,,,,2015_Nov_25_1353,P10,PLC_L_D1S1,NHG,60.0135728925,
stim/negf.jpg,stim/posf.jpg,stim/6.jpg,stim/1.jpg,stim/latef.jpg,AB,1,2,0,16,16,9,,,,,,,,,,,,,,,,,,2,1,1.13296258224,,,,,,2015_Nov_25_1353,P10,PLC_L_D1S1,NHG,60.0135728925,
stim/posf.jpg,stim/negf.jpg,stim/3.jpg,stim/2.jpg,stim/latef.jpg,CD,1,2,0,17,17,23,,,,,,,,,,,,,,,,,,2,1,0.983015640484,,,,,,2015_Nov_25_1353,P10,PLC_L_D1S1,NHG,60.0135728925,
stim/posf.jpg,stim/negf.jpg,stim/1.jpg,stim/6.jpg,stim/latef.jpg,AB,2,4,0,18,18,14,,,,,,,,,,,,,,,,,,4,1,0.816394484252,,,,,,2015_Nov_25_1353,P10,PLC_L_D1S1,NHG,60.0135728925,
stim/posf.jpg,stim/negf.jpg,stim/6.jpg,stim/1.jpg,stim/latef.jpg,AB,1,2,0,19,19,0,,,,,,,,,,,,,,,,,,2,1,0.96634490267,,,,,,2015_Nov_25_1353,P10,PLC_L_D1S1,NHG,60.0135728925,
stim/negf.jpg,stim/posf.jpg,stim/5.jpg,stim/4.jpg,stim/latef.jpg,EF,2,4,0,20,20,59,,,,,,,,,,,,,,,,,,4,1,1.2495910918,,,,,,2015_Nov_25_1353,P10,PLC_L_D1S1,NHG,60.0135728925,
stim/negf.jpg,stim/posf.jpg,stim/4.jpg,stim/5.jpg,stim/latef.jpg,EF,1,2,0,21,21,48,,,,,,,,,,,,,,,,,,2,1,1.21627102052,,,,,,2015_Nov_25_1353,P10,PLC_L_D1S1,NHG,60.0135728925,
stim/negf.jpg,stim/posf.jpg,stim/3.jpg,stim/2.jpg,stim/latef.jpg,CD,1,2,0,22,22,29,,,,,,,,,,,,,,,,,,2,1,1.08296534312,,,,,,2015_Nov_25_1353,P10,PLC_L_D1S1,NHG,60.0135728925,
stim/posf.jpg,stim/negf.jpg,stim/3.jpg,stim/2.jpg,stim/latef.jpg,CD,1,2,0,23,23,22,,,,,,,,,,,,,,,,,,2,1,1.04971068488,,,,,,2015_Nov_25_1353,P10,PLC_L_D1S1,NHG,60.0135728925,
stim/negf.jpg,stim/posf.jpg,stim/1.jpg,stim/6.jpg,stim/latef.jpg,AB,2,4,0,24,24,18,,,,,,,,,,,,,,,,,,4,1,0.766415208908,,,,,,2015_Nov_25_1353,P10,PLC_L_D1S1,NHG,60.0135728925,
stim/posf.jpg,stim/negf.jpg,stim/4.jpg,stim/5.jpg,stim/latef.jpg,EF,1,2,0,25,25,43,,,,,,,,,,,,,,,,,,2,1,1.26624174555,,,,,,2015_Nov_25_1353,P10,PLC_L_D1S1,NHG,60.0135728925,
stim/posf.jpg,stim/negf.jpg,stim/5.jpg,stim/4.jpg,stim/latef.jpg,EF,2,4,0,26,26,51,,,,,,,,,,,,,,,,,,4,1,1.56615986947,,,,,,2015_Nov_25_1353,P10,PLC_L_D1S1,NHG,60.0135728925,
stim/posf.jpg,stim/negf.jpg,stim/3.jpg,stim/2.jpg,stim/latef.jpg,CD,1,2,0,27,27,26,,,,,,,,,,,,,,,,,,2,1,1.01633293885,,,,,,2015_Nov_25_1353,P10,PLC_L_D1S1,NHG,60.0135728925,
stim/negf.jpg,stim/posf.jpg,stim/6.jpg,stim/1.jpg,stim/latef.jpg,AB,1,2,0,28,28,8,,,,,,,,,,,,,,,,,,2,1,1.01626630476,,,,,,2015_Nov_25_1353,P10,PLC_L_D1S1,NHG,60.0135728925,
stim/posf.jpg,stim/negf.jpg,stim/4.jpg,stim/5.jpg,stim/latef.jpg,EF,1,2,0,29,29,41,,,,,,,,,,,,,,,,,,2,1,1.41619727671,,,,,,2015_Nov_25_1353,P10,PLC_L_D1S1,NHG,60.0135728925,
stim/posf.jpg,stim/negf.jpg,stim/5.jpg,stim/4.jpg,stim/latef.jpg,EF,2,4,0,30,30,54,,,,,,,,,,,,,,,,,,4,1,0.783046052285,,,,,,2015_Nov_25_1353,P10,PLC_L_D1S1,NHG,60.0135728925,
stim/negf.jpg,stim/posf.jpg,stim/4.jpg,stim/5.jpg,stim/latef.jpg,EF,1,2,0,31,31,46,,,,,,,,,,,,,,,,,,2,1,1.01635742288,,,,,,2015_Nov_25_1353,P10,PLC_L_D1S1,NHG,60.0135728925,
stim/negf.jpg,stim/posf.jpg,stim/2.jpg,stim/3.jpg,stim/latef.jpg,CD,2,4,0,32,32,37,,,,,,,,,,,,,,,,,,4,1,1.16628531214,,,,,,2015_Nov_25_1353,P10,PLC_L_D1S1,NHG,60.0135728925,
stim/posf.jpg,stim/negf.jpg,stim/5.jpg,stim/4.jpg,stim/latef.jpg,EF,2,4,0,33,33,53,,,,,,,,,,,,,,,,,,4,1,1.21525562364,,,,,,2015_Nov_25_1353,P10,PLC_L_D1S1,NHG,60.0135728925,
stim/negf.jpg,stim/posf.jpg,stim/2.jpg,stim/3.jpg,stim/latef.jpg,CD,2,4,0,34,34,38,,,,,,,,,,,,,,,,,,4,1,0.916365149134,,,,,,2015_Nov_25_1353,P10,PLC_L_D1S1,NHG,60.0135728925,
stim/posf.jpg,stim/negf.jpg,stim/6.jpg,stim/1.jpg,stim/latef.jpg,AB,1,2,0,35,35,6,,,,,,,,,,,,,,,,,,2,1,1.0829689461,,,,,,2015_Nov_25_1353,P10,PLC_L_D1S1,NHG,60.0135728925,
stim/negf.jpg,stim/posf.jpg,stim/1.jpg,stim/6.jpg,stim/latef.jpg,AB,2,4,0,36,36,19,,,,,,,,,,,,,,,,,,4,1,0.733076473109,,,,,,2015_Nov_25_1353,P10,PLC_L_D1S1,NHG,60.0135728925,
stim/posf.jpg,stim/negf.jpg,stim/1.jpg,stim/6.jpg,stim/latef.jpg,AB,2,4,0,37,37,12,,,,,,,,,,,,,,,,,,4,1,1.09963519071,,,,,,2015_Nov_25_1353,P10,PLC_L_D1S1,NHG,60.0135728925,
stim/posf.jpg,stim/negf.jpg,stim/4.jpg,stim/5.jpg,stim/latef.jpg,EF,1,2,0,38,38,45,,,,,,,,,,,,,,,,,,2,1,1.23293036594,,,,,,2015_Nov_25_1353,P10,PLC_L_D1S1,NHG,60.0135728925,
stim/posf.jpg,stim/negf.jpg,stim/2.jpg,stim/3.jpg,stim/latef.jpg,CD,2,4,0,39,39,32,,,,,,,,,,,,,,,,,,4,1,0.983015023947,,,,,,2015_Nov_25_1353,P10,PLC_L_D1S1,NHG,60.0135728925,
stim/posf.jpg,stim/negf.jpg,stim/5.jpg,stim/4.jpg,stim/latef.jpg,EF,2,4,0,40,40,52,,,,,,,,,,,,,,,,,,4,1,1.31620255186,,,,,,2015_Nov_25_1353,P10,PLC_L_D1S1,NHG,60.0135728925,
stim/negf.jpg,stim/posf.jpg,stim/3.jpg,stim/2.jpg,stim/latef.jpg,CD,1,2,0,41,41,27,,,,,,,,,,,,,,,,,,2,1,1.61612813437,,,,,,2015_Nov_25_1353,P10,PLC_L_D1S1,NHG,60.0135728925,
stim/negf.jpg,stim/posf.jpg,stim/5.jpg,stim/4.jpg,stim/latef.jpg,EF,2,4,0,42,42,57,,,,,,,,,,,,,,,,,,4,1,1.61612492838,,,,,,2015_Nov_25_1353,P10,PLC_L_D1S1,NHG,60.0135728925,
stim/posf.jpg,stim/negf.jpg,stim/2.jpg,stim/3.jpg,stim/latef.jpg,CD,2,4,0,43,43,35,,,,,,,,,,,,,,,,,,4,1,1.26629696318,,,,,,2015_Nov_25_1353,P10,PLC_L_D1S1,NHG,60.0135728925,
stim/posf.jpg,stim/negf.jpg,stim/6.jpg,stim/1.jpg,stim/latef.jpg,AB,1,2,0,44,44,5,,,,,,,,,,,,,,,,,,2,1,1.19955607251,,,,,,2015_Nov_25_1353,P10,PLC_L_D1S1,NHG,60.0135728925,
stim/posf.jpg,stim/negf.jpg,stim/4.jpg,stim/5.jpg,stim/latef.jpg,EF,1,2,0,45,45,42,,,,,,,,,,,,,,,,,,2,1,1.04970436914,,,,,,2015_Nov_25_1353,P10,PLC_L_D1S1,NHG,60.0135728925,
stim/posf.jpg,stim/negf.jpg,stim/2.jpg,stim/3.jpg,stim/latef.jpg,CD,2,4,0,46,46,30,,,,,,,,,,,,,,,,,,4,1,1.41618038361,,,,,,2015_Nov_25_1353,P10,PLC_L_D1S1,NHG,60.0135728925,
stim/negf.jpg,stim/posf.jpg,stim/5.jpg,stim/4.jpg,stim/latef.jpg,EF,2,4,0,47,47,56,,,,,,,,,,,,,,,,,,4,1,0.849733406515,,,,,,2015_Nov_25_1353,P10,PLC_L_D1S1,NHG,60.0135728925,
stim/posf.jpg,stim/negf.jpg,stim/5.jpg,stim/4.jpg,stim/latef.jpg,EF,2,4,0,48,48,55,,,,,,,,,,,,,,,,,,4,1,1.46615716574,,,,,,2015_Nov_25_1353,P10,PLC_L_D1S1,NHG,60.0135728925,
stim/posf.jpg,stim/negf.jpg,stim/1.jpg,stim/6.jpg,stim/latef.jpg,AB,2,4,0,49,49,17,,,,,,,,,,,,,,,,,,4,1,0.899712263817,,,,,,2015_Nov_25_1353,P10,PLC_L_D1S1,NHG,60.0135728925,
stim/posf.jpg,stim/negf.jpg,stim/1.jpg,stim/6.jpg,stim/latef.jpg,AB,2,4,0,50,50,15,,,,,,,,,,,,,,,,,,4,1,1.38285090187,,,,,,2015_Nov_25_1353,P10,PLC_L_D1S1,NHG,60.0135728925,
stim/posf.jpg,stim/negf.jpg,stim/1.jpg,stim/6.jpg,stim/latef.jpg,AB,2,4,0,51,51,16,,,,,,,,,,,,,,,,,,4,1,0.716438387681,,,,,,2015_Nov_25_1353,P10,PLC_L_D1S1,NHG,60.0135728925,
stim/posf.jpg,stim/negf.jpg,stim/1.jpg,stim/6.jpg,stim/latef.jpg,AB,2,4,0,52,52,10,,,,,,,,,,,,,,,,,,4,1,0.549823023887,,,,,,2015_Nov_25_1353,P10,PLC_L_D1S1,NHG,60.0135728925,
stim/negf.jpg,stim/posf.jpg,stim/2.jpg,stim/3.jpg,stim/latef.jpg,CD,2,4,0,53,53,39,,,,,,,,,,,,,,,,,,4,1,1.34954785002,,,,,,2015_Nov_25_1353,P10,PLC_L_D1S1,NHG,60.0135728925,
stim/posf.jpg,stim/negf.jpg,stim/3.jpg,stim/2.jpg,stim/latef.jpg,CD,1,2,0,54,54,25,,,,,,,,,,,,,,,,,,2,1,1.06631676454,,,,,,2015_Nov_25_1353,P10,PLC_L_D1S1,NHG,60.0135728925,
stim/posf.jpg,stim/negf.jpg,stim/6.jpg,stim/1.jpg,stim/latef.jpg,AB,1,2,0,55,55,3,,,,,,,,,,,,,,,,,,2,1,1.01631216307,,,,,,2015_Nov_25_1353,P10,PLC_L_D1S1,NHG,60.0135728925,
stim/negf.jpg,stim/posf.jpg,stim/4.jpg,stim/5.jpg,stim/latef.jpg,EF,1,2,0,56,56,49,,,,,,,,,,,,,,,,,,2,1,1.08297252201,,,,,,2015_Nov_25_1353,P10,PLC_L_D1S1,NHG,60.0135728925,
stim/posf.jpg,stim/negf.jpg,stim/1.jpg,stim/6.jpg,stim/latef.jpg,AB,2,4,0,57,57,13,,,,,,,,,,,,,,,,,,4,1,0.749766055894,,,,,,2015_Nov_25_1353,P10,PLC_L_D1S1,NHG,60.0135728925,
stim/negf.jpg,stim/posf.jpg,stim/3.jpg,stim/2.jpg,stim/latef.jpg,CD,1,2,0,58,58,28,,,,,,,,,,,,,,,,,,4,0,1.34955544695,,,,,,2015_Nov_25_1353,P10,PLC_L_D1S1,NHG,60.0135728925,
stim/posf.jpg,stim/negf.jpg,stim/3.jpg,stim/2.jpg,stim/latef.jpg,CD,1,2,0,59,59,21,,,,,,,,,,,,,,,,,,4,0,1.44956419275,,,,,,2015_Nov_25_1353,P10,PLC_L_D1S1,NHG,60.0135728925,
,,,,,,,,,,,,,,,,,,,,,,,,,,,,,,,,0.9984375,1.0,1,0,0,2015_Nov_25_1353,P10,PLC_L_D1S1,NHG,60.0135728925,
stim/posf.jpg,stim/negf.jpg,stim/1.jpg,stim/6.jpg,stim/latef.jpg,AB,2,4,,,,,0,0,0,15,,,,,,,,,,,,,,4,1,0.799712889377,,,,,,2015_Nov_25_1353,P10,PLC_L_D1S1,NHG,60.0135728925,
stim/negf.jpg,stim/posf.jpg,stim/4.jpg,stim/5.jpg,stim/latef.jpg,EF,1,2,,,,,0,1,1,49,,,,,,,,,,,,,,2,1,1.38288969857,,,,,,2015_Nov_25_1353,P10,PLC_L_D1S1,NHG,60.0135728925,
stim/posf.jpg,stim/negf.jpg,stim/6.jpg,stim/1.jpg,stim/latef.jpg,AB,1,2,,,,,0,2,2,4,,,,,,,,,,,,,,2,1,0.699732065173,,,,,,2015_Nov_25_1353,P10,PLC_L_D1S1,NHG,60.0135728925,
stim/negf.jpg,stim/posf.jpg,stim/1.jpg,stim/6.jpg,stim/latef.jpg,AB,2,4,,,,,0,3,3,18,,,,,,,,,,,,,,4,1,0.583125826122,,,,,,2015_Nov_25_1353,P10,PLC_L_D1S1,NHG,60.0135728925,
stim/negf.jpg,stim/posf.jpg,stim/5.jpg,stim/4.jpg,stim/latef.jpg,EF,2,4,,,,,0,4,4,56,,,,,,,,,,,,,,4,1,1.23295667551,,,,,,2015_Nov_25_1353,P10,PLC_L_D1S1,NHG,60.0135728925,
stim/negf.jpg,stim/posf.jpg,stim/2.jpg,stim/3.jpg,stim/latef.jpg,CD,2,4,,,,,0,5,5,39,,,,,,,,,,,,,,4,1,0.716423557717,,,,,,2015_Nov_25_1353,P10,PLC_L_D1S1,NHG,60.0135728925,
stim/negf.jpg,stim/posf.jpg,stim/5.jpg,stim/4.jpg,stim/latef.jpg,EF,2,4,,,,,0,6,6,59,,,,,,,,,,,,,,2,0,1.16629446997,,,,,,2015_Nov_25_1353,P10,PLC_L_D1S1,NHG,60.0135728925,
stim/posf.jpg,stim/negf.jpg,stim/2.jpg,stim/3.jpg,stim/latef.jpg,CD,2,4,,,,,0,7,7,36,,,,,,,,,,,,,,2,0,0.949680856535,,,,,,2015_Nov_25_1353,P10,PLC_L_D1S1,NHG,60.0135728925,
stim/negf.jpg,stim/posf.jpg,stim/2.jpg,stim/3.jpg,stim/latef.jpg,CD,2,4,,,,,0,8,8,38,,,,,,,,,,,,,,2,0,1.44952527274,,,,,,2015_Nov_25_1353,P10,PLC_L_D1S1,NHG,60.0135728925,
stim/posf.jpg,stim/negf.jpg,stim/1.jpg,stim/6.jpg,stim/latef.jpg,AB,2,4,,,,,0,9,9,17,,,,,,,,,,,,,,2,0,0.999662613063,,,,,,2015_Nov_25_1353,P10,PLC_L_D1S1,NHG,60.0135728925,
stim/negf.jpg,stim/posf.jpg,stim/5.jpg,stim/4.jpg,stim/latef.jpg,EF,2,4,,,,,0,10,10,58,,,,,,,,,,,,,,4,1,1.53286756641,,,,,,2015_Nov_25_1353,P10,PLC_L_D1S1,NHG,60.0135728925,
stim/posf.jpg,stim/negf.jpg,stim/3.jpg,stim/2.jpg,stim/latef.jpg,CD,1,2,,,,,0,11,11,21,,,,,,,,,,,,,,2,1,1.44957301374,,,,,,2015_Nov_25_1353,P10,PLC_L_D1S1,NHG,60.0135728925,
stim/posf.jpg,stim/negf.jpg,stim/4.jpg,stim/5.jpg,stim/latef.jpg,EF,1,2,,,,,0,12,12,41,,,,,,,,,,,,,,2,1,1.2495908121,,,,,,2015_Nov_25_1353,P10,PLC_L_D1S1,NHG,60.0135728925,
stim/posf.jpg,stim/negf.jpg,stim/1.jpg,stim/6.jpg,stim/latef.jpg,AB,2,4,,,,,0,13,13,13,,,,,,,,,,,,,,4,1,1.09964239667,,,,,,2015_Nov_25_1353,P10,PLC_L_D1S1,NHG,60.0135728925,
stim/negf.jpg,stim/posf.jpg,stim/6.jpg,stim/1.jpg,stim/latef.jpg,AB,1,2,,,,,0,14,14,8,,,,,,,,,,,,,,2,1,1.04965470335,,,,,,2015_Nov_25_1353,P10,PLC_L_D1S1,NHG,60.0135728925,
stim/negf.jpg,stim/posf.jpg,stim/4.jpg,stim/5.jpg,stim/latef.jpg,EF,1,2,,,,,0,15,15,48,,,,,,,,,,,,,,4,0,1.26624247336,,,,,,2015_Nov_25_1353,P10,PLC_L_D1S1,NHG,60.0135728925,
stim/posf.jpg,stim/negf.jpg,stim/5.jpg,stim/4.jpg,stim/latef.jpg,EF,2,4,,,,,0,16,16,52,,,,,,,,,,,,,,2,0,1.5328060962,,,,,,2015_Nov_25_1353,P10,PLC_L_D1S1,NHG,60.0135728925,
stim/posf.jpg,stim/negf.jpg,stim/6.jpg,stim/1.jpg,stim/latef.jpg,AB,1,2,,,,,0,17,17,1,,,,,,,,,,,,,,None,0,,,,,,,2015_Nov_25_1353,P10,PLC_L_D1S1,NHG,60.0135728925,
stim/posf.jpg,stim/negf.jpg,stim/5.jpg,stim/4.jpg,stim/latef.jpg,EF,2,4,,,,,0,18,18,54,,,,,,,,,,,,,,4,1,0.799689142187,,,,,,2015_Nov_25_1353,P10,PLC_L_D1S1,NHG,60.0135728925,
stim/negf.jpg,stim/posf.jpg,stim/1.jpg,stim/6.jpg,stim/latef.jpg,AB,2,4,,,,,0,19,19,19,,,,,,,,,,,,,,4,1,0.816362096526,,,,,,2015_Nov_25_1353,P10,PLC_L_D1S1,NHG,60.0135728925,
stim/posf.jpg,stim/negf.jpg,stim/4.jpg,stim/5.jpg,stim/latef.jpg,EF,1,2,,,,,0,20,20,43,,,,,,,,,,,,,,2,1,1.04964728987,,,,,,2015_Nov_25_1353,P10,PLC_L_D1S1,NHG,60.0135728925,
stim/posf.jpg,stim/negf.jpg,stim/2.jpg,stim/3.jpg,stim/latef.jpg,CD,2,4,,,,,0,21,21,33,,,,,,,,,,,,,,4,1,1.48293293735,,,,,,2015_Nov_25_1353,P10,PLC_L_D1S1,NHG,60.0135728925,
stim/posf.jpg,stim/negf.jpg,stim/1.jpg,stim/6.jpg,stim/latef.jpg,AB,2,4,,,,,0,22,22,10,,,,,,,,,,,,,,4,1,1.11625864768,,,,,,2015_Nov_25_1353,P10,PLC_L_D1S1,NHG,60.0135728925,
stim/posf.jpg,stim/negf.jpg,stim/6.jpg,stim/1.jpg,stim/latef.jpg,AB,1,2,,,,,0,23,23,0,,,,,,,,,,,,,,2,1,0.966330866685,,,,,,2015_Nov_25_1353,P10,PLC_L_D1S1,NHG,60.0135728925,
stim/posf.jpg,stim/negf.jpg,stim/2.jpg,stim/3.jpg,stim/latef.jpg,CD,2,4,,,,,0,24,24,31,,,,,,,,,,,,,,4,1,0.816439623762,,,,,,2015_Nov_25_1353,P10,PLC_L_D1S1,NHG,60.0135728925,
stim/posf.jpg,stim/negf.jpg,stim/6.jpg,stim/1.jpg,stim/latef.jpg,AB,1,2,,,,,0,25,25,6,,,,,,,,,,,,,,2,1,0.982994121849,,,,,,2015_Nov_25_1353,P10,PLC_L_D1S1,NHG,60.0135728925,
stim/posf.jpg,stim/negf.jpg,stim/6.jpg,stim/1.jpg,stim/latef.jpg,AB,1,2,,,,,0,26,26,7,,,,,,,,,,,,,,2,1,0.799714964549,,,,,,2015_Nov_25_1353,P10,PLC_L_D1S1,NHG,60.0135728925,
stim/posf.jpg,stim/negf.jpg,stim/2.jpg,stim/3.jpg,stim/latef.jpg,CD,2,4,,,,,0,27,27,32,,,,,,,,,,,,,,2,0,0.966331200517,,,,,,2015_Nov_25_1353,P10,PLC_L_D1S1,NHG,60.0135728925,
stim/posf.jpg,stim/negf.jpg,stim/1.jpg,stim/6.jpg,stim/latef.jpg,AB,2,4,,,,,0,28,28,14,,,,,,,,,,,,,,4,1,0.966348791363,,,,,,2015_Nov_25_1353,P10,PLC_L_D1S1,NHG,60.0135728925,
stim/posf.jpg,stim/negf.jpg,stim/5.jpg,stim/4.jpg,stim/latef.jpg,EF,2,4,,,,,0,29,29,53,,,,,,,,,,,,,,2,0,1.14960455335,,,,,,2015_Nov_25_1353,P10,PLC_L_D1S1,NHG,60.0135728925,
stim/posf.jpg,stim/negf.jpg,stim/4.jpg,stim/5.jpg,stim/latef.jpg,EF,1,2,,,,,0,30,30,42,,,,,,,,,,,,,,4,0,0.749720829167,,,,,,2015_Nov_25_1353,P10,PLC_L_D1S1,NHG,60.0135728925,
stim/negf.jpg,stim/posf.jpg,stim/4.jpg,stim/5.jpg,stim/latef.jpg,EF,1,2,,,,,0,31,31,46,,,,,,,,,,,,,,4,0,1.03305012444,,,,,,2015_Nov_25_1353,P10,PLC_L_D1S1,NHG,60.0135728925,
stim/negf.jpg,stim/posf.jpg,stim/2.jpg,stim/3.jpg,stim/latef.jpg,CD,2,4,,,,,0,32,32,37,,,,,,,,,,,,,,4,1,0.733073095691,,,,,,2015_Nov_25_1353,P10,PLC_L_D1S1,NHG,60.0135728925,
stim/posf.jpg,stim/negf.jpg,stim/2.jpg,stim/3.jpg,stim/latef.jpg,CD,2,4,,,,,0,33,33,34,,,,,,,,,,,,,,4,1,1.31621912918,,,,,,2015_Nov_25_1353,P10,PLC_L_D1S1,NHG,60.0135728925,
stim/posf.jpg,stim/negf.jpg,stim/3.jpg,stim/2.jpg,stim/latef.jpg,CD,1,2,,,,,0,34,34,24,,,,,,,,,,,,,,2,1,1.01628251818,,,,,,2015_Nov_25_1353,P10,PLC_L_D1S1,NHG,60.0135728925,
stim/posf.jpg,stim/negf.jpg,stim/3.jpg,stim/2.jpg,stim/latef.jpg,CD,1,2,,,,,0,35,35,20,,,,,,,,,,,,,,2,1,0.849717421674,,,,,,2015_Nov_25_1353,P10,PLC_L_D1S1,NHG,60.0135728925,
stim/posf.jpg,stim/negf.jpg,stim/5.jpg,stim/4.jpg,stim/latef.jpg,EF,2,4,,,,,0,36,36,51,,,,,,,,,,,,,,4,1,1.28290450749,,,,,,2015_Nov_25_1353,P10,PLC_L_D1S1,NHG,60.0135728925,
stim/posf.jpg,stim/negf.jpg,stim/3.jpg,stim/2.jpg,stim/latef.jpg,CD,1,2,,,,,0,37,37,26,,,,,,,,,,,,,,2,1,1.14965091992,,,,,,2015_Nov_25_1353,P10,PLC_L_D1S1,NHG,60.0135728925,
stim/negf.jpg,stim/posf.jpg,stim/3.jpg,stim/2.jpg,stim/latef.jpg,CD,1,2,,,,,0,38,38,29,,,,,,,,,,,,,,4,0,0.7997298697,,,,,,2015_Nov_25_1353,P10,PLC_L_D1S1,NHG,60.0135728925,
stim/posf.jpg,stim/negf.jpg,stim/4.jpg,stim/5.jpg,stim/latef.jpg,EF,1,2,,,,,0,39,39,45,,,,,,,,,,,,,,4,0,1.16628327005,,,,,,2015_Nov_25_1353,P10,PLC_L_D1S1,NHG,60.0135728925,
stim/posf.jpg,stim/negf.jpg,stim/3.jpg,stim/2.jpg,stim/latef.jpg,CD,1,2,,,,,0,40,40,23,,,,,,,,,,,,,,2,1,1.01634686657,,,,,,2015_Nov_25_1353,P10,PLC_L_D1S1,NHG,60.0135728925,
stim/posf.jpg,stim/negf.jpg,stim/6.jpg,stim/1.jpg,stim/latef.jpg,AB,1,2,,,,,0,41,41,3,,,,,,,,,,,,,,2,1,0.982995667702,,,,,,2015_Nov_25_1353,P10,PLC_L_D1S1,NHG,60.0135728925,
stim/posf.jpg,stim/negf.jpg,stim/1.jpg,stim/6.jpg,stim/latef.jpg,AB,2,4,,,,,0,42,42,16,,,,,,,,,,,,,,4,1,1.36623471102,,,,,,2015_Nov_25_1353,P10,PLC_L_D1S1,NHG,60.0135728925,
stim/posf.jpg,stim/negf.jpg,stim/1.jpg,stim/6.jpg,stim/latef.jpg,AB,2,4,,,,,0,43,43,12,,,,,,,,,,,,,,4,1,0.94968859783,,,,,,2015_Nov_25_1353,P10,PLC_L_D1S1,NHG,60.0135728925,
stim/negf.jpg,stim/posf.jpg,stim/6.jpg,stim/1.jpg,stim/latef.jpg,AB,1,2,,,,,0,44,44,9,,,,,,,,,,,,,,2,1,0.899672979903,,,,,,2015_Nov_25_1353,P10,PLC_L_D1S1,NHG,60.0135728925,
stim/posf.jpg,stim/negf.jpg,stim/4.jpg,stim/5.jpg,stim/latef.jpg,EF,1,2,,,,,0,45,45,44,,,,,,,,,,,,,,4,0,1.0497431478,,,,,,2015_Nov_25_1353,P10,PLC_L_D1S1,NHG,60.0135728925,
stim/negf.jpg,stim/posf.jpg,stim/4.jpg,stim/5.jpg,stim/latef.jpg,EF,1,2,,,,,0,46,46,47,,,,,,,,,,,,,,2,1,0.566381037737,,,,,,2015_Nov_25_1353,P10,PLC_L_D1S1,NHG,60.0135728925,
stim/posf.jpg,stim/negf.jpg,stim/3.jpg,stim/2.jpg,stim/latef.jpg,CD,1,2,,,,,0,47,47,22,,,,,,,,,,,,,,2,1,0.982982825693,,,,,,2015_Nov_25_1353,P10,PLC_L_D1S1,NHG,60.0135728925,
stim/posf.jpg,stim/negf.jpg,stim/5.jpg,stim/4.jpg,stim/latef.jpg,EF,2,4,,,,,0,48,48,50,,,,,,,,,,,,,,2,0,1.34953259299,,,,,,2015_Nov_25_1353,P10,PLC_L_D1S1,NHG,60.0135728925,
stim/posf.jpg,stim/negf.jpg,stim/4.jpg,stim/5.jpg,stim/latef.jpg,EF,1,2,,,,,0,49,49,40,,,,,,,,,,,,,,2,1,1.21623810347,,,,,,2015_Nov_25_1353,P10,PLC_L_D1S1,NHG,60.0135728925,
stim/posf.jpg,stim/negf.jpg,stim/5.jpg,stim/4.jpg,stim/latef.jpg,EF,2,4,,,,,0,50,50,55,,,,,,,,,,,,,,4,1,0.599804395456,,,,,,2015_Nov_25_1353,P10,PLC_L_D1S1,NHG,60.0135728925,
stim/posf.jpg,stim/negf.jpg,stim/2.jpg,stim/3.jpg,stim/latef.jpg,CD,2,4,,,,,0,51,51,35,,,,,,,,,,,,,,4,1,0.816368225803,,,,,,2015_Nov_25_1353,P10,PLC_L_D1S1,NHG,60.0135728925,
stim/posf.jpg,stim/negf.jpg,stim/2.jpg,stim/3.jpg,stim/latef.jpg,CD,2,4,,,,,0,52,52,30,,,,,,,,,,,,,,4,1,0.549813863054,,,,,,2015_Nov_25_1353,P10,PLC_L_D1S1,NHG,60.0135728925,
stim/posf.jpg,stim/negf.jpg,stim/6.jpg,stim/1.jpg,stim/latef.jpg,AB,1,2,,,,,0,53,53,5,,,,,,,,,,,,,,2,1,0.766405335298,,,,,,2015_Nov_25_1353,P10,PLC_L_D1S1,NHG,60.0135728925,
stim/negf.jpg,stim/posf.jpg,stim/5.jpg,stim/4.jpg,stim/latef.jpg,EF,2,4,,,,,0,54,54,57,,,,,,,,,,,,,,2,0,1.26624939662,,,,,,2015_Nov_25_1353,P10,PLC_L_D1S1,NHG,60.0135728925,
stim/posf.jpg,stim/negf.jpg,stim/6.jpg,stim/1.jpg,stim/latef.jpg,AB,1,2,,,,,0,55,55,2,,,,,,,,,,,,,,2,1,0.983061525853,,,,,,2015_Nov_25_1353,P10,PLC_L_D1S1,NHG,60.0135728925,
stim/posf.jpg,stim/negf.jpg,stim/1.jpg,stim/6.jpg,stim/latef.jpg,AB,2,4,,,,,0,56,56,11,,,,,,,,,,,,,,4,1,1.04966817693,,,,,,2015_Nov_25_1353,P10,PLC_L_D1S1,NHG,60.0135728925,
stim/negf.jpg,stim/posf.jpg,stim/3.jpg,stim/2.jpg,stim/latef.jpg,CD,1,2,,,,,0,57,57,28,,,,,,,,,,,,,,2,1,1.24952350433,,,,,,2015_Nov_25_1353,P10,PLC_L_D1S1,NHG,60.0135728925,
stim/negf.jpg,stim/posf.jpg,stim/3.jpg,stim/2.jpg,stim/latef.jpg,CD,1,2,,,,,0,58,58,27,,,,,,,,,,,,,,2,1,1.0996770731,,,,,,2015_Nov_25_1353,P10,PLC_L_D1S1,NHG,60.0135728925,
stim/posf.jpg,stim/negf.jpg,stim/3.jpg,stim/2.jpg,stim/latef.jpg,CD,1,2,,,,,0,59,59,25,,,,,,,,,,,,,,2,1,0.933032329081,,,,,,2015_Nov_25_1353,P10,PLC_L_D1S1,NHG,60.0135728925,
,,,,,,,,,,,,,,,,,,,,,,,,,,,,,,,,0.9984375,1.0,1,0,0,2015_Nov_25_1353,P10,PLC_L_D1S1,NHG,60.0135728925,
stim/negf.jpg,stim/posf.jpg,stim/5.jpg,stim/4.jpg,stim/latef.jpg,EF,2,4,,,,,,,,,0,0,0,59,,,,,,,,,,4,1,1.23291308787,,,,,,2015_Nov_25_1353,P10,PLC_L_D1S1,NHG,60.0135728925,
stim/negf.jpg,stim/posf.jpg,stim/4.jpg,stim/5.jpg,stim/latef.jpg,EF,1,2,,,,,,,,,0,1,1,49,,,,,,,,,,2,1,1.11628449711,,,,,,2015_Nov_25_1353,P10,PLC_L_D1S1,NHG,60.0135728925,
stim/negf.jpg,stim/posf.jpg,stim/2.jpg,stim/3.jpg,stim/latef.jpg,CD,2,4,,,,,,,,,0,2,2,39,,,,,,,,,,4,1,0.599741517733,,,,,,2015_Nov_25_1353,P10,PLC_L_D1S1,NHG,60.0135728925,
stim/posf.jpg,stim/negf.jpg,stim/4.jpg,stim/5.jpg,stim/latef.jpg,EF,1,2,,,,,,,,,0,3,3,44,,,,,,,,,,4,0,1.31626491831,,,,,,2015_Nov_25_1353,P10,PLC_L_D1S1,NHG,60.0135728925,
stim/negf.jpg,stim/posf.jpg,stim/5.jpg,stim/4.jpg,stim/latef.jpg,EF,2,4,,,,,,,,,0,4,4,56,,,,,,,,,,4,1,1.1829357674,,,,,,2015_Nov_25_1353,P10,PLC_L_D1S1,NHG,60.0135728925,
stim/posf.jpg,stim/negf.jpg,stim/4.jpg,stim/5.jpg,stim/latef.jpg,EF,1,2,,,,,,,,,0,5,5,40,,,,,,,,,,2,1,0.949726465215,,,,,,2015_Nov_25_1353,P10,PLC_L_D1S1,NHG,60.0135728925,
stim/posf.jpg,stim/negf.jpg,stim/6.jpg,stim/1.jpg,stim/latef.jpg,AB,1,2,,,,,,,,,0,6,6,4,,,,,,,,,,2,1,1.06629032564,,,,,,2015_Nov_25_1353,P10,PLC_L_D1S1,NHG,60.0135728925,
stim/posf.jpg,stim/negf.jpg,stim/5.jpg,stim/4.jpg,stim/latef.jpg,EF,2,4,,,,,,,,,0,7,7,53,,,,,,,,,,4,1,1.11631800062,,,,,,2015_Nov_25_1353,P10,PLC_L_D1S1,NHG,60.0135728925,
stim/posf.jpg,stim/negf.jpg,stim/3.jpg,stim/2.jpg,stim/latef.jpg,CD,1,2,,,,,,,,,0,8,8,20,,,,,,,,,,2,1,0.799740299697,,,,,,2015_Nov_25_1353,P10,PLC_L_D1S1,NHG,60.0135728925,
stim/negf.jpg,stim/posf.jpg,stim/5.jpg,stim/4.jpg,stim/latef.jpg,EF,2,4,,,,,,,,,0,9,9,58,,,,,,,,,,4,1,0.833051510891,,,,,,2015_Nov_25_1353,P10,PLC_L_D1S1,NHG,60.0135728925,
stim/posf.jpg,stim/negf.jpg,stim/6.jpg,stim/1.jpg,stim/latef.jpg,AB,1,2,,,,,,,,,0,10,10,6,,,,,,,,,,2,1,0.649776305442,,,,,,2015_Nov_25_1353,P10,PLC_L_D1S1,NHG,60.0135728925,
stim/posf.jpg,stim/negf.jpg,stim/4.jpg,stim/5.jpg,stim/latef.jpg,EF,1,2,,,,,,,,,0,11,11,45,,,,,,,,,,4,0,1.64950028045,,,,,,2015_Nov_25_1353,P10,PLC_L_D1S1,NHG,60.0135728925,
stim/posf.jpg,stim/negf.jpg,stim/1.jpg,stim/6.jpg,stim/latef.jpg,AB,2,4,,,,,,,,,0,12,12,13,,,,,,,,,,4,1,0.749786473786,,,,,,2015_Nov_25_1353,P10,PLC_L_D1S1,NHG,60.0135728925,
stim/posf.jpg,stim/negf.jpg,stim/3.jpg,stim/2.jpg,stim/latef.jpg,CD,1,2,,,,,,,,,0,13,13,24,,,,,,,,,,2,1,0.699751532695,,,,,,2015_Nov_25_1353,P10,PLC_L_D1S1,NHG,60.0135728925,
stim/negf.jpg,stim/posf.jpg,stim/4.jpg,stim/5.jpg,stim/latef.jpg,EF,1,2,,,,,,,,,0,14,14,48,,,,,,,,,,2,1,1.19960599695,,,,,,2015_Nov_25_1353,P10,PLC_L_D1S1,NHG,60.0135728925,
stim/negf.jpg,stim/posf.jpg,stim/5.jpg,stim/4.jpg,stim/latef.jpg,EF,2,4,,,,,,,,,0,15,15,57,,,,,,,,,,2,0,1.01632788325,,,,,,2015_Nov_25_1353,P10,PLC_L_D1S1,NHG,60.0135728925,
stim/posf.jpg,stim/negf.jpg,stim/4.jpg,stim/5.jpg,stim/latef.jpg,EF,1,2,,,,,,,,,0,16,16,43,,,,,,,,,,4,0,0.899702414267,,,,,,2015_Nov_25_1353,P10,PLC_L_D1S1,NHG,60.0135728925,
stim/posf.jpg,stim/negf.jpg,stim/2.jpg,stim/3.jpg,stim/latef.jpg,CD,2,4,,,,,,,,,0,17,17,35,,,,,,,,,,2,0,1.14963623431,,,,,,2015_Nov_25_1353,P10,PLC_L_D1S1,NHG,60.0135728925,
stim/posf.jpg,stim/negf.jpg,stim/2.jpg,stim/3.jpg,stim/latef.jpg,CD,2,4,,,,,,,,,0,18,18,31,,,,,,,,,,4,1,0.81636652356,,,,,,2015_Nov_25_1353,P10,PLC_L_D1S1,NHG,60.0135728925,
stim/posf.jpg,stim/negf.jpg,stim/6.jpg,stim/1.jpg,stim/latef.jpg,AB,1,2,,,,,,,,,0,19,19,0,,,,,,,,,,2,1,0.799720495334,,,,,,2015_Nov_25_1353,P10,PLC_L_D1S1,NHG,60.0135728925,
stim/negf.jpg,stim/posf.jpg,stim/6.jpg,stim/1.jpg,stim/latef.jpg,AB,1,2,,,,,,,,,0,20,20,9,,,,,,,,,,2,1,0.983000196991,,,,,,2015_Nov_25_1353,P10,PLC_L_D1S1,NHG,60.0135728925,
stim/negf.jpg,stim/posf.jpg,stim/4.jpg,stim/5.jpg,stim/latef.jpg,EF,1,2,,,,,,,,,0,21,21,46,,,,,,,,,,4,0,1.09961125706,,,,,,2015_Nov_25_1353,P10,PLC_L_D1S1,NHG,60.0135728925,
stim/posf.jpg,stim/negf.jpg,stim/5.jpg,stim/4.jpg,stim/latef.jpg,EF,2,4,,,,,,,,,0,22,22,54,,,,,,,,,,2,0,0.599809808949,,,,,,2015_Nov_25_1353,P10,PLC_L_D1S1,NHG,60.0135728925,
stim/posf.jpg,stim/negf.jpg,stim/4.jpg,stim/5.jpg,stim/latef.jpg,EF,1,2,,,,,,,,,0,23,23,41,,,,,,,,,,2,1,1.16626667469,,,,,,2015_Nov_25_1353,P10,PLC_L_D1S1,NHG,60.0135728925,
stim/negf.jpg,stim/posf.jpg,stim/2.jpg,stim/3.jpg,stim/latef.jpg,CD,2,4,,,,,,,,,0,24,24,37,,,,,,,,,,4,1,1.06627717987,,,,,,2015_Nov_25_1353,P10,PLC_L_D1S1,NHG,60.0135728925,
stim/posf.jpg,stim/negf.jpg,stim/1.jpg,stim/6.jpg,stim/latef.jpg,AB,2,4,,,,,,,,,0,25,25,12,,,,,,,,,,4,1,0.666464835603,,,,,,2015_Nov_25_1353,P10,PLC_L_D1S1,NHG,60.0135728925,
stim/posf.jpg,stim/negf.jpg,stim/3.jpg,stim/2.jpg,stim/latef.jpg,CD,1,2,,,,,,,,,0,26,26,23,,,,,,,,,,2,1,0.716418763769,,,,,,2015_Nov_25_1353,P10,PLC_L_D1S1,NHG,60.0135728925,
stim/negf.jpg,stim/posf.jpg,stim/1.jpg,stim/6.jpg,stim/latef.jpg,AB,2,4,,,,,,,,,0,27,27,19,,,,,,,,,,4,1,1.41619805265,,,,,,2015_Nov_25_1353,P10,PLC_L_D1S1,NHG,60.0135728925,
stim/negf.jpg,stim/posf.jpg,stim/3.jpg,stim/2.jpg,stim/latef.jpg,CD,1,2,,,,,,,,,0,28,28,29,,,,,,,,,,2,1,0.816386953482,,,,,,2015_Nov_25_1353,P10,PLC_L_D1S1,NHG,60.0135728925,
stim/posf.jpg,stim/negf.jpg,stim/2.jpg,stim/3.jpg,stim/latef.jpg,CD,2,4,,,,,,,,,0,29,29,30,,,,,,,,,,4,1,1.2996174134,,,,,,2015_Nov_25_1353,P10,PLC_L_D1S1,NHG,60.0135728925,
stim/negf.jpg,stim/posf.jpg,stim/4.jpg,stim/5.jpg,stim/latef.jpg,EF,1,2,,,,,,,,,0,30,30,47,,,,,,,,,,4,0,1.58279213239,,,,,,2015_Nov_25_1353,P10,PLC_L_D1S1,NHG,60.0135728925,
stim/negf.jpg,stim/posf.jpg,stim/3.jpg,stim/2.jpg,stim/latef.jpg,CD,1,2,,,,,,,,,0,31,31,27,,,,,,,,,,2,1,1.06626714686,,,,,,2015_Nov_25_1353,P10,PLC_L_D1S1,NHG,60.0135728925,
stim/posf.jpg,stim/negf.jpg,stim/6.jpg,stim/1.jpg,stim/latef.jpg,AB,1,2,,,,,,,,,0,32,32,2,,,,,,,,,,2,1,0.599711382622,,,,,,2015_Nov_25_1353,P10,PLC_L_D1S1,NHG,60.0135728925,
stim/posf.jpg,stim/negf.jpg,stim/2.jpg,stim/3.jpg,stim/latef.jpg,CD,2,4,,,,,,,,,0,33,33,36,,,,,,,,,,4,1,0.899696113563,,,,,,2015_Nov_25_1353,P10,PLC_L_D1S1,NHG,60.0135728925,
stim/negf.jpg,stim/posf.jpg,stim/2.jpg,stim/3.jpg,stim/latef.jpg,CD,2,4,,,,,,,,,0,34,34,38,,,,,,,,,,4,1,0.76640599394,,,,,,2015_Nov_25_1353,P10,PLC_L_D1S1,NHG,60.0135728925,
stim/posf.jpg,stim/negf.jpg,stim/3.jpg,stim/2.jpg,stim/latef.jpg,CD,1,2,,,,,,,,,0,35,35,25,,,,,,,,,,2,1,1.58279194893,,,,,,2015_Nov_25_1353,P10,PLC_L_D1S1,NHG,60.0135728925,
stim/posf.jpg,stim/negf.jpg,stim/6.jpg,stim/1.jpg,stim/latef.jpg,AB,1,2,,,,,,,,,0,36,36,7,,,,,,,,,,2,1,0.766425921609,,,,,,2015_Nov_25_1353,P10,PLC_L_D1S1,NHG,60.0135728925,
stim/posf.jpg,stim/negf.jpg,stim/5.jpg,stim/4.jpg,stim/latef.jpg,EF,2,4,,,,,,,,,0,37,37,52,,,,,,,,,,4,1,1.43286359351,,,,,,2015_Nov_25_1353,P10,PLC_L_D1S1,NHG,60.0135728925,
stim/posf.jpg,stim/negf.jpg,stim/3.jpg,stim/2.jpg,stim/latef.jpg,CD,1,2,,,,,,,,,0,38,38,22,,,,,,,,,,2,1,1.03299011586,,,,,,2015_Nov_25_1353,P10,PLC_L_D1S1,NHG,60.0135728925,
stim/posf.jpg,stim/negf.jpg,stim/1.jpg,stim/6.jpg,stim/latef.jpg,AB,2,4,,,,,,,,,0,39,39,15,,,,,,,,,,4,1,1.24963804783,,,,,,2015_Nov_25_1353,P10,PLC_L_D1S1,NHG,60.0135728925,
stim/posf.jpg,stim/negf.jpg,stim/1.jpg,stim/6.jpg,stim/latef.jpg,AB,2,4,,,,,,,,,0,40,40,10,,,,,,,,,,4,1,1.11628139037,,,,,,2015_Nov_25_1353,P10,PLC_L_D1S1,NHG,60.0135728925,
stim/negf.jpg,stim/posf.jpg,stim/6.jpg,stim/1.jpg,stim/latef.jpg,AB,1,2,,,,,,,,,0,41,41,8,,,,,,,,,,2,1,0.833056307847,,,,,,2015_Nov_25_1353,P10,PLC_L_D1S1,NHG,60.0135728925,
stim/posf.jpg,stim/negf.jpg,stim/6.jpg,stim/1.jpg,stim/latef.jpg,AB,1,2,,,,,,,,,0,42,42,1,,,,,,,,,,2,1,0.883049565041,,,,,,2015_Nov_25_1353,P10,PLC_L_D1S1,NHG,60.0135728925,
stim/posf.jpg,stim/negf.jpg,stim/5.jpg,stim/4.jpg,stim/latef.jpg,EF,2,4,,,,,,,,,0,43,43,55,,,,,,,,,,2,0,1.48289935865,,,,,,2015_Nov_25_1353,P10,PLC_L_D1S1,NHG,60.0135728925,
stim/negf.jpg,stim/posf.jpg,stim/1.jpg,stim/6.jpg,stim/latef.jpg,AB,2,4,,,,,,,,,0,44,44,18,,,,,,,,,,4,1,1.38288563545,,,,,,2015_Nov_25_1353,P10,PLC_L_D1S1,NHG,60.0135728925,
stim/posf.jpg,stim/negf.jpg,stim/2.jpg,stim/3.jpg,stim/latef.jpg,CD,2,4,,,,,,,,,0,45,45,33,,,,,,,,,,4,1,0.733077766332,,,,,,2015_Nov_25_1353,P10,PLC_L_D1S1,NHG,60.0135728925,
stim/posf.jpg,stim/negf.jpg,stim/5.jpg,stim/4.jpg,stim/latef.jpg,EF,2,4,,,,,,,,,0,46,46,51,,,,,,,,,,2,0,1.31619542109,,,,,,2015_Nov_25_1353,P10,PLC_L_D1S1,NHG,60.0135728925,
stim/posf.jpg,stim/negf.jpg,stim/6.jpg,stim/1.jpg,stim/latef.jpg,AB,1,2,,,,,,,,,0,47,47,5,,,,,,,,,,2,1,1.09953364862,,,,,,2015_Nov_25_1353,P10,PLC_L_D1S1,NHG,60.0135728925,
stim/posf.jpg,stim/negf.jpg,stim/4.jpg,stim/5.jpg,stim/latef.jpg,EF,1,2,,,,,,,,,0,48,48,42,,,,,,,,,,None,0,,,,,,,2015_Nov_25_1353,P10,PLC_L_D1S1,NHG,60.0135728925,
stim/posf.jpg,stim/negf.jpg,stim/1.jpg,stim/6.jpg,stim/latef.jpg,AB,2,4,,,,,,,,,0,49,49,14,,,,,,,,,,4,1,0.64978161668,,,,,,2015_Nov_25_1353,P10,PLC_L_D1S1,NHG,60.0135728925,
stim/posf.jpg,stim/negf.jpg,stim/1.jpg,stim/6.jpg,stim/latef.jpg,AB,2,4,,,,,,,,,0,50,50,16,,,,,,,,,,4,1,0.733089435418,,,,,,2015_Nov_25_1353,P10,PLC_L_D1S1,NHG,60.0135728925,
stim/posf.jpg,stim/negf.jpg,stim/6.jpg,stim/1.jpg,stim/latef.jpg,AB,1,2,,,,,,,,,0,51,51,3,,,,,,,,,,2,1,0.699829090007,,,,,,2015_Nov_25_1353,P10,PLC_L_D1S1,NHG,60.0135728925,
stim/posf.jpg,stim/negf.jpg,stim/1.jpg,stim/6.jpg,stim/latef.jpg,AB,2,4,,,,,,,,,0,52,52,11,,,,,,,,,,4,1,0.599751177811,,,,,,2015_Nov_25_1353,P10,PLC_L_D1S1,NHG,60.0135728925,
stim/posf.jpg,stim/negf.jpg,stim/2.jpg,stim/3.jpg,stim/latef.jpg,CD,2,4,,,,,,,,,0,53,53,34,,,,,,,,,,4,1,1.23292398102,,,,,,2015_Nov_25_1353,P10,PLC_L_D1S1,NHG,60.0135728925,
stim/posf.jpg,stim/negf.jpg,stim/5.jpg,stim/4.jpg,stim/latef.jpg,EF,2,4,,,,,,,,,0,54,54,50,,,,,,,,,,4,1,1.18293465162,,,,,,2015_Nov_25_1353,P10,PLC_L_D1S1,NHG,60.0135728925,
stim/posf.jpg,stim/negf.jpg,stim/3.jpg,stim/2.jpg,stim/latef.jpg,CD,1,2,,,,,,,,,0,55,55,26,,,,,,,,,,2,1,1.11630597665,,,,,,2015_Nov_25_1353,P10,PLC_L_D1S1,NHG,60.0135728925,
stim/posf.jpg,stim/negf.jpg,stim/1.jpg,stim/6.jpg,stim/latef.jpg,AB,2,4,,,,,,,,,0,56,56,17,,,,,,,,,,4,1,0.69977171901,,,,,,2015_Nov_25_1353,P10,PLC_L_D1S1,NHG,60.0135728925,
stim/posf.jpg,stim/negf.jpg,stim/2.jpg,stim/3.jpg,stim/latef.jpg,CD,2,4,,,,,,,,,0,57,57,32,,,,,,,,,,2,0,0.916386336945,,,,,,2015_Nov_25_1353,P10,PLC_L_D1S1,NHG,60.0135728925,
stim/negf.jpg,stim/posf.jpg,stim/3.jpg,stim/2.jpg,stim/latef.jpg,CD,1,2,,,,,,,,,0,58,58,28,,,,,,,,,,2,1,0.999672041563,,,,,,2015_Nov_25_1353,P10,PLC_L_D1S1,NHG,60.0135728925,
stim/posf.jpg,stim/negf.jpg,stim/3.jpg,stim/2.jpg,stim/latef.jpg,CD,1,2,,,,,,,,,0,59,59,21,,,,,,,,,,2,1,0.816383488846,,,,,,2015_Nov_25_1353,P10,PLC_L_D1S1,NHG,60.0135728925,
,,,,,,,,,,,,,,,,,,,,,,,,,,,,,,,,0.9984375,1.0,1,0,0,2015_Nov_25_1353,P10,PLC_L_D1S1,NHG,60.0135728925,
stim/posf.jpg,stim/negf.jpg,stim/5.jpg,stim/4.jpg,stim/latef.jpg,EF,2,4,,,,,,,,,,,,,0,0,0,53,,,,,,4,1,1.21632552537,,,,,,2015_Nov_25_1353,P10,PLC_L_D1S1,NHG,60.0135728925,
stim/posf.jpg,stim/negf.jpg,stim/5.jpg,stim/4.jpg,stim/latef.jpg,EF,2,4,,,,,,,,,,,,,0,1,1,50,,,,,,4,1,1.53283469147,,,,,,2015_Nov_25_1353,P10,PLC_L_D1S1,NHG,60.0135728925,
stim/posf.jpg,stim/negf.jpg,stim/6.jpg,stim/1.jpg,stim/latef.jpg,AB,1,2,,,,,,,,,,,,,0,2,2,3,,,,,,2,1,0.649825044924,,,,,,2015_Nov_25_1353,P10,PLC_L_D1S1,NHG,60.0135728925,
stim/negf.jpg,stim/posf.jpg,stim/2.jpg,stim/3.jpg,stim/latef.jpg,CD,2,4,,,,,,,,,,,,,0,3,3,37,,,,,,4,1,0.99966277246,,,,,,2015_Nov_25_1353,P10,PLC_L_D1S1,NHG,60.0135728925,
stim/posf.jpg,stim/negf.jpg,stim/2.jpg,stim/3.jpg,stim/latef.jpg,CD,2,4,,,,,,,,,,,,,0,4,4,31,,,,,,4,1,1.23293057947,,,,,,2015_Nov_25_1353,P10,PLC_L_D1S1,NHG,60.0135728925,
stim/negf.jpg,stim/posf.jpg,stim/3.jpg,stim/2.jpg,stim/latef.jpg,CD,1,2,,,,,,,,,,,,,0,5,5,28,,,,,,2,1,0.666455954467,,,,,,2015_Nov_25_1353,P10,PLC_L_D1S1,NHG,60.0135728925,
stim/posf.jpg,stim/negf.jpg,stim/5.jpg,stim/4.jpg,stim/latef.jpg,EF,2,4,,,,,,,,,,,,,0,6,6,51,,,,,,4,1,1.16631865625,,,,,,2015_Nov_25_1353,P10,PLC_L_D1S1,NHG,60.0135728925,
stim/negf.jpg,stim/posf.jpg,stim/3.jpg,stim/2.jpg,stim/latef.jpg,CD,1,2,,,,,,,,,,,,,0,7,7,27,,,,,,2,1,0.816409563838,,,,,,2015_Nov_25_1353,P10,PLC_L_D1S1,NHG,60.0135728925,
stim/posf.jpg,stim/negf.jpg,stim/5.jpg,stim/4.jpg,stim/latef.jpg,EF,2,4,,,,,,,,,,,,,0,8,8,54,,,,,,4,1,1.66609945489,,,,,,2015_Nov_25_1353,P10,PLC_L_D1S1,NHG,60.0135728925,
stim/posf.jpg,stim/negf.jpg,stim/6.jpg,stim/1.jpg,stim/latef.jpg,AB,1,2,,,,,,,,,,,,,0,9,9,5,,,,,,2,1,0.83303661777,,,,,,2015_Nov_25_1353,P10,PLC_L_D1S1,NHG,60.0135728925,
stim/posf.jpg,stim/negf.jpg,stim/4.jpg,stim/5.jpg,stim/latef.jpg,EF,1,2,,,,,,,,,,,,,0,10,10,43,,,,,,2,1,1.11627565808,,,,,,2015_Nov_25_1353,P10,PLC_L_D1S1,NHG,60.0135728925,
stim/posf.jpg,stim/negf.jpg,stim/1.jpg,stim/6.jpg,stim/latef.jpg,AB,2,4,,,,,,,,,,,,,0,11,11,15,,,,,,4,1,1.33289756017,,,,,,2015_Nov_25_1353,P10,PLC_L_D1S1,NHG,60.0135728925,
stim/posf.jpg,stim/negf.jpg,stim/4.jpg,stim/5.jpg,stim/latef.jpg,EF,1,2,,,,,,,,,,,,,0,12,12,45,,,,,,2,1,1.23290365035,,,,,,2015_Nov_25_1353,P10,PLC_L_D1S1,NHG,60.0135728925,
stim/negf.jpg,stim/posf.jpg,stim/6.jpg,stim/1.jpg,stim/latef.jpg,AB,1,2,,,,,,,,,,,,,0,13,13,8,,,,,,2,1,0.999628890008,,,,,,2015_Nov_25_1353,P10,PLC_L_D1S1,NHG,60.0135728925,
stim/posf.jpg,stim/negf.jpg,stim/3.jpg,stim/2.jpg,stim/latef.jpg,CD,1,2,,,,,,,,,,,,,0,14,14,25,,,,,,2,1,0.78313298697,,,,,,2015_Nov_25_1353,P10,PLC_L_D1S1,NHG,60.0135728925,
stim/posf.jpg,stim/negf.jpg,stim/3.jpg,stim/2.jpg,stim/latef.jpg,CD,1,2,,,,,,,,,,,,,0,15,15,20,,,,,,2,1,0.866311729987,,,,,,2015_Nov_25_1353,P10,PLC_L_D1S1,NHG,60.0135728925,
stim/posf.jpg,stim/negf.jpg,stim/4.jpg,stim/5.jpg,stim/latef.jpg,EF,1,2,,,,,,,,,,,,,0,16,16,42,,,,,,2,1,1.39955198532,,,,,,2015_Nov_25_1353,P10,PLC_L_D1S1,NHG,60.0135728925,
stim/posf.jpg,stim/negf.jpg,stim/6.jpg,stim/1.jpg,stim/latef.jpg,AB,1,2,,,,,,,,,,,,,0,17,17,0,,,,,,2,1,0.883054506357,,,,,,2015_Nov_25_1353,P10,PLC_L_D1S1,NHG,60.0135728925,
stim/posf.jpg,stim/negf.jpg,stim/6.jpg,stim/1.jpg,stim/latef.jpg,AB,1,2,,,,,,,,,,,,,0,18,18,2,,,,,,2,1,1.13296225141,,,,,,2015_Nov_25_1353,P10,PLC_L_D1S1,NHG,60.0135728925,
stim/posf.jpg,stim/negf.jpg,stim/6.jpg,stim/1.jpg,stim/latef.jpg,AB,1,2,,,,,,,,,,,,,0,19,19,1,,,,,,4,0,0.699762338629,,,,,,2015_Nov_25_1353,P10,PLC_L_D1S1,NHG,60.0135728925,
stim/posf.jpg,stim/negf.jpg,stim/5.jpg,stim/4.jpg,stim/latef.jpg,EF,2,4,,,,,,,,,,,,,0,20,20,52,,,,,,4,1,0.999658847678,,,,,,2015_Nov_25_1353,P10,PLC_L_D1S1,NHG,60.0135728925,
stim/posf.jpg,stim/negf.jpg,stim/4.jpg,stim/5.jpg,stim/latef.jpg,EF,1,2,,,,,,,,,,,,,0,21,21,44,,,,,,2,1,1.08299010083,,,,,,2015_Nov_25_1353,P10,PLC_L_D1S1,NHG,60.0135728925,
stim/posf.jpg,stim/negf.jpg,stim/2.jpg,stim/3.jpg,stim/latef.jpg,CD,2,4,,,,,,,,,,,,,0,22,22,36,,,,,,4,1,0.933003766889,,,,,,2015_Nov_25_1353,P10,PLC_L_D1S1,NHG,60.0135728925,
stim/negf.jpg,stim/posf.jpg,stim/3.jpg,stim/2.jpg,stim/latef.jpg,CD,1,2,,,,,,,,,,,,,0,23,23,29,,,,,,2,1,0.766416706641,,,,,,2015_Nov_25_1353,P10,PLC_L_D1S1,NHG,60.0135728925,
stim/negf.jpg,stim/posf.jpg,stim/5.jpg,stim/4.jpg,stim/latef.jpg,EF,2,4,,,,,,,,,,,,,0,24,24,59,,,,,,4,1,1.04965577101,,,,,,2015_Nov_25_1353,P10,PLC_L_D1S1,NHG,60.0135728925,
stim/posf.jpg,stim/negf.jpg,stim/6.jpg,stim/1.jpg,stim/latef.jpg,AB,1,2,,,,,,,,,,,,,0,25,25,6,,,,,,2,1,0.749740717739,,,,,,2015_Nov_25_1353,P10,PLC_L_D1S1,NHG,60.0135728925,
stim/negf.jpg,stim/posf.jpg,stim/4.jpg,stim/5.jpg,stim/latef.jpg,EF,1,2,,,,,,,,,,,,,0,26,26,47,,,,,,2,1,0.949683292607,,,,,,2015_Nov_25_1353,P10,PLC_L_D1S1,NHG,60.0135728925,
stim/posf.jpg,stim/negf.jpg,stim/2.jpg,stim/3.jpg,stim/latef.jpg,CD,2,4,,,,,,,,,,,,,0,27,27,30,,,,,,4,1,0.716429142638,,,,,,2015_Nov_25_1353,P10,PLC_L_D1S1,NHG,60.0135728925,
stim/posf.jpg,stim/negf.jpg,stim/1.jpg,stim/6.jpg,stim/latef.jpg,AB,2,4,,,,,,,,,,,,,0,28,28,13,,,,,,4,1,1.11629234066,,,,,,2015_Nov_25_1353,P10,PLC_L_D1S1,NHG,60.0135728925,
stim/posf.jpg,stim/negf.jpg,stim/1.jpg,stim/6.jpg,stim/latef.jpg,AB,2,4,,,,,,,,,,,,,0,29,29,10,,,,,,4,1,0.583141735776,,,,,,2015_Nov_25_1353,P10,PLC_L_D1S1,NHG,60.0135728925,
stim/posf.jpg,stim/negf.jpg,stim/3.jpg,stim/2.jpg,stim/latef.jpg,CD,1,2,,,,,,,,,,,,,0,30,30,22,,,,,,2,1,0.833074797934,,,,,,2015_Nov_25_1353,P10,PLC_L_D1S1,NHG,60.0135728925,
stim/posf.jpg,stim/negf.jpg,stim/3.jpg,stim/2.jpg,stim/latef.jpg,CD,1,2,,,,,,,,,,,,,0,31,31,26,,,,,,2,1,0.766398553395,,,,,,2015_Nov_25_1353,P10,PLC_L_D1S1,NHG,60.0135728925,
stim/negf.jpg,stim/posf.jpg,stim/2.jpg,stim/3.jpg,stim/latef.jpg,CD,2,4,,,,,,,,,,,,,0,32,32,39,,,,,,4,1,0.86637407839,,,,,,2015_Nov_25_1353,P10,PLC_L_D1S1,NHG,60.0135728925,
stim/negf.jpg,stim/posf.jpg,stim/4.jpg,stim/5.jpg,stim/latef.jpg,EF,1,2,,,,,,,,,,,,,0,33,33,48,,,,,,2,1,0.749737851595,,,,,,2015_Nov_25_1353,P10,PLC_L_D1S1,NHG,60.0135728925,
stim/negf.jpg,stim/posf.jpg,stim/2.jpg,stim/3.jpg,stim/latef.jpg,CD,2,4,,,,,,,,,,,,,0,34,34,38,,,,,,4,1,0.649773264863,,,,,,2015_Nov_25_1353,P10,PLC_L_D1S1,NHG,60.0135728925,
stim/negf.jpg,stim/posf.jpg,stim/4.jpg,stim/5.jpg,stim/latef.jpg,EF,1,2,,,,,,,,,,,,,0,35,35,49,,,,,,2,1,1.23294264855,,,,,,2015_Nov_25_1353,P10,PLC_L_D1S1,NHG,60.0135728925,
stim/posf.jpg,stim/negf.jpg,stim/3.jpg,stim/2.jpg,stim/latef.jpg,CD,1,2,,,,,,,,,,,,,0,36,36,24,,,,,,2,1,0.63307739641,,,,,,2015_Nov_25_1353,P10,PLC_L_D1S1,NHG,60.0135728925,
stim/posf.jpg,stim/negf.jpg,stim/2.jpg,stim/3.jpg,stim/latef.jpg,CD,2,4,,,,,,,,,,,,,0,37,37,34,,,,,,4,1,0.516498293998,,,,,,2015_Nov_25_1353,P10,PLC_L_D1S1,NHG,60.0135728925,
stim/negf.jpg,stim/posf.jpg,stim/1.jpg,stim/6.jpg,stim/latef.jpg,AB,2,4,,,,,,,,,,,,,0,38,38,18,,,,,,4,1,0.849741635025,,,,,,2015_Nov_25_1353,P10,PLC_L_D1S1,NHG,60.0135728925,
stim/posf.jpg,stim/negf.jpg,stim/4.jpg,stim/5.jpg,stim/latef.jpg,EF,1,2,,,,,,,,,,,,,0,39,39,40,,,,,,2,1,1.09965168382,,,,,,2015_Nov_25_1353,P10,PLC_L_D1S1,NHG,60.0135728925,
stim/posf.jpg,stim/negf.jpg,stim/6.jpg,stim/1.jpg,stim/latef.jpg,AB,1,2,,,,,,,,,,,,,0,40,40,4,,,,,,2,1,1.08297743024,,,,,,2015_Nov_25_1353,P10,PLC_L_D1S1,NHG,60.0135728925,
stim/negf.jpg,stim/posf.jpg,stim/5.jpg,stim/4.jpg,stim/latef.jpg,EF,2,4,,,,,,,,,,,,,0,41,41,57,,,,,,4,1,0.899627714077,,,,,,2015_Nov_25_1353,P10,PLC_L_D1S1,NHG,60.0135728925,
stim/posf.jpg,stim/negf.jpg,stim/1.jpg,stim/6.jpg,stim/latef.jpg,AB,2,4,,,,,,,,,,,,,0,42,42,14,,,,,,4,1,0.883066244615,,,,,,2015_Nov_25_1353,P10,PLC_L_D1S1,NHG,60.0135728925,
stim/negf.jpg,stim/posf.jpg,stim/4.jpg,stim/5.jpg,stim/latef.jpg,EF,1,2,,,,,,,,,,,,,0,43,43,46,,,,,,2,1,1.28295991158,,,,,,2015_Nov_25_1353,P10,PLC_L_D1S1,NHG,60.0135728925,
stim/posf.jpg,stim/negf.jpg,stim/1.jpg,stim/6.jpg,stim/latef.jpg,AB,2,4,,,,,,,,,,,,,0,44,44,11,,,,,,4,1,0.666411082624,,,,,,2015_Nov_25_1353,P10,PLC_L_D1S1,NHG,60.0135728925,
stim/posf.jpg,stim/negf.jpg,stim/2.jpg,stim/3.jpg,stim/latef.jpg,CD,2,4,,,,,,,,,,,,,0,45,45,35,,,,,,4,1,0.783063309299,,,,,,2015_Nov_25_1353,P10,PLC_L_D1S1,NHG,60.0135728925,
stim/posf.jpg,stim/negf.jpg,stim/1.jpg,stim/6.jpg,stim/latef.jpg,AB,2,4,,,,,,,,,,,,,0,46,46,12,,,,,,4,1,0.766429019331,,,,,,2015_Nov_25_1353,P10,PLC_L_D1S1,NHG,60.0135728925,
stim/posf.jpg,stim/negf.jpg,stim/2.jpg,stim/3.jpg,stim/latef.jpg,CD,2,4,,,,,,,,,,,,,0,47,47,33,,,,,,4,1,0.716510402178,,,,,,2015_Nov_25_1353,P10,PLC_L_D1S1,NHG,60.0135728925,
stim/posf.jpg,stim/negf.jpg,stim/2.jpg,stim/3.jpg,stim/latef.jpg,CD,2,4,,,,,,,,,,,,,0,48,48,32,,,,,,4,1,0.633118767528,,,,,,2015_Nov_25_1353,P10,PLC_L_D1S1,NHG,60.0135728925,
stim/negf.jpg,stim/posf.jpg,stim/5.jpg,stim/4.jpg,stim/latef.jpg,EF,2,4,,,,,,,,,,,,,0,49,49,56,,,,,,4,1,1.24958033398,,,,,,2015_Nov_25_1353,P10,PLC_L_D1S1,NHG,60.0135728925,
stim/negf.jpg,stim/posf.jpg,stim/5.jpg,stim/4.jpg,stim/latef.jpg,EF,2,4,,,,,,,,,,,,,0,50,50,58,,,,,,2,0,0.749741680138,,,,,,2015_Nov_25_1353,P10,PLC_L_D1S1,NHG,60.0135728925,
stim/posf.jpg,stim/negf.jpg,stim/1.jpg,stim/6.jpg,stim/latef.jpg,AB,2,4,,,,,,,,,,,,,0,51,51,16,,,,,,4,1,0.666422047954,,,,,,2015_Nov_25_1353,P10,PLC_L_D1S1,NHG,60.0135728925,
stim/posf.jpg,stim/negf.jpg,stim/4.jpg,stim/5.jpg,stim/latef.jpg,EF,1,2,,,,,,,,,,,,,0,52,52,41,,,,,,4,0,1.11630502026,,,,,,2015_Nov_25_1353,P10,PLC_L_D1S1,NHG,60.0135728925,
stim/negf.jpg,stim/posf.jpg,stim/1.jpg,stim/6.jpg,stim/latef.jpg,AB,2,4,,,,,,,,,,,,,0,53,53,19,,,,,,4,1,0.566467094232,,,,,,2015_Nov_25_1353,P10,PLC_L_D1S1,NHG,60.0135728925,
stim/posf.jpg,stim/negf.jpg,stim/3.jpg,stim/2.jpg,stim/latef.jpg,CD,1,2,,,,,,,,,,,,,0,54,54,21,,,,,,2,1,0.916353392832,,,,,,2015_Nov_25_1353,P10,PLC_L_D1S1,NHG,60.0135728925,
stim/negf.jpg,stim/posf.jpg,stim/6.jpg,stim/1.jpg,stim/latef.jpg,AB,1,2,,,,,,,,,,,,,0,55,55,9,,,,,,2,1,0.833053583056,,,,,,2015_Nov_25_1353,P10,PLC_L_D1S1,NHG,60.0135728925,
stim/posf.jpg,stim/negf.jpg,stim/3.jpg,stim/2.jpg,stim/latef.jpg,CD,1,2,,,,,,,,,,,,,0,56,56,23,,,,,,2,1,1.48284727784,,,,,,2015_Nov_25_1353,P10,PLC_L_D1S1,NHG,60.0135728925,
stim/posf.jpg,stim/negf.jpg,stim/6.jpg,stim/1.jpg,stim/latef.jpg,AB,1,2,,,,,,,,,,,,,0,57,57,7,,,,,,2,1,1.39953075541,,,,,,2015_Nov_25_1353,P10,PLC_L_D1S1,NHG,60.0135728925,
stim/posf.jpg,stim/negf.jpg,stim/5.jpg,stim/4.jpg,stim/latef.jpg,EF,2,4,,,,,,,,,,,,,0,58,58,55,,,,,,None,0,,,,,,,2015_Nov_25_1353,P10,PLC_L_D1S1,NHG,60.0135728925,
stim/posf.jpg,stim/negf.jpg,stim/1.jpg,stim/6.jpg,stim/latef.jpg,AB,2,4,,,,,,,,,,,,,0,59,59,17,,,,,,4,1,0.783092154194,,,,,,2015_Nov_25_1353,P10,PLC_L_D1S1,NHG,60.0135728925,
