fb_corr,fb_incorr,symbol2,symbol1,fb_late,pair,position,correct,block_01.thisRepN,block_01.thisTrialN,block_01.thisN,block_01.thisIndex,block_02.thisRepN,block_02.thisTrialN,block_02.thisN,block_02.thisIndex,block_03.thisRepN,block_03.thisTrialN,block_03.thisN,block_03.thisIndex,block_04.thisRepN,block_04.thisTrialN,block_04.thisN,block_04.thisIndex,mouse.x,mouse.y,mouse.leftButton,mouse.midButton,mouse.rightButton,buttonBox_2.keys,buttonBox_2.corr,buttonBox_2.rt,mouse_2.x,mouse_2.y,mouse_2.leftButton,mouse_2.midButton,mouse_2.rightButton,date,Participant,expName,Group,frameRate,
,,,,,,,,,,,,,,,,,,,,,,,,0.9984375,1.0,1,0,0,,,,,,,,,2015_Nov_25_1536,P11,PLC_L_D1S1,NHG,60.0200965631,
stim/posf.jpg,stim/negf.jpg,stim/4.jpg,stim/5.jpg,stim/latef.jpg,EF,1,2,0,0,0,42,,,,,,,,,,,,,,,,,,2,1,0.833118397604,,,,,,2015_Nov_25_1536,P11,PLC_L_D1S1,NHG,60.0200965631,
stim/negf.jpg,stim/posf.jpg,stim/6.jpg,stim/3.jpg,stim/latef.jpg,AB,2,4,0,1,1,18,,,,,,,,,,,,,,,,,,4,1,0.98301045556,,,,,,2015_Nov_25_1536,P11,PLC_L_D1S1,NHG,60.0200965631,
stim/posf.jpg,stim/negf.jpg,stim/4.jpg,stim/5.jpg,stim/latef.jpg,EF,1,2,0,2,2,41,,,,,,,,,,,,,,,,,,2,1,0.916292030886,,,,,,2015_Nov_25_1536,P11,PLC_L_D1S1,NHG,60.0200965631,
stim/posf.jpg,stim/negf.jpg,stim/3.jpg,stim/6.jpg,stim/latef.jpg,AB,1,2,0,3,3,3,,,,,,,,,,,,,,,,,,4,0,1.31623982376,,,,,,2015_Nov_25_1536,P11,PLC_L_D1S1,NHG,60.0200965631,
stim/negf.jpg,stim/posf.jpg,stim/5.jpg,stim/4.jpg,stim/latef.jpg,EF,2,4,0,4,4,58,,,,,,,,,,,,,,,,,,4,1,1.2829033887,,,,,,2015_Nov_25_1536,P11,PLC_L_D1S1,NHG,60.0200965631,
stim/negf.jpg,stim/posf.jpg,stim/4.jpg,stim/5.jpg,stim/latef.jpg,EF,1,2,0,5,5,49,,,,,,,,,,,,,,,,,,None,0,,,,,,,2015_Nov_25_1536,P11,PLC_L_D1S1,NHG,60.0200965631,
stim/negf.jpg,stim/posf.jpg,stim/6.jpg,stim/3.jpg,stim/latef.jpg,AB,2,4,0,6,6,19,,,,,,,,,,,,,,,,,,2,0,1.1996301712,,,,,,2015_Nov_25_1536,P11,PLC_L_D1S1,NHG,60.0200965631,
stim/negf.jpg,stim/posf.jpg,stim/2.jpg,stim/1.jpg,stim/latef.jpg,CD,2,4,0,7,7,39,,,,,,,,,,,,,,,,,,4,1,0.983037709491,,,,,,2015_Nov_25_1536,P11,PLC_L_D1S1,NHG,60.0200965631,
stim/posf.jpg,stim/negf.jpg,stim/1.jpg,stim/2.jpg,stim/latef.jpg,CD,1,2,0,8,8,25,,,,,,,,,,,,,,,,,,2,1,1.6161358486,,,,,,2015_Nov_25_1536,P11,PLC_L_D1S1,NHG,60.0200965631,
stim/negf.jpg,stim/posf.jpg,stim/1.jpg,stim/2.jpg,stim/latef.jpg,CD,1,2,0,9,9,27,,,,,,,,,,,,,,,,,,2,1,0.966343001932,,,,,,2015_Nov_25_1536,P11,PLC_L_D1S1,NHG,60.0200965631,
stim/negf.jpg,stim/posf.jpg,stim/3.jpg,stim/6.jpg,stim/latef.jpg,AB,1,2,0,10,10,8,,,,,,,,,,,,,,,,,,2,1,1.31622915016,,,,,,2015_Nov_25_1536,P11,PLC_L_D1S1,NHG,60.0200965631,
stim/posf.jpg,stim/negf.jpg,stim/1.jpg,stim/2.jpg,stim/latef.jpg,CD,1,2,0,11,11,24,,,,,,,,,,,,,,,,,,2,1,1.29957298968,,,,,,2015_Nov_25_1536,P11,PLC_L_D1S1,NHG,60.0200965631,
stim/posf.jpg,stim/negf.jpg,stim/2.jpg,stim/1.jpg,stim/latef.jpg,CD,2,4,0,12,12,31,,,,,,,,,,,,,,,,,,4,1,1.34955945294,,,,,,2015_Nov_25_1536,P11,PLC_L_D1S1,NHG,60.0200965631,
stim/posf.jpg,stim/negf.jpg,stim/1.jpg,stim/2.jpg,stim/latef.jpg,CD,1,2,0,13,13,21,,,,,,,,,,,,,,,,,,2,1,0.933030783226,,,,,,2015_Nov_25_1536,P11,PLC_L_D1S1,NHG,60.0200965631,
stim/posf.jpg,stim/negf.jpg,stim/3.jpg,stim/6.jpg,stim/latef.jpg,AB,1,2,0,14,14,1,,,,,,,,,,,,,,,,,,2,1,1.1496087067,,,,,,2015_Nov_25_1536,P11,PLC_L_D1S1,NHG,60.0200965631,
stim/negf.jpg,stim/posf.jpg,stim/1.jpg,stim/2.jpg,stim/latef.jpg,CD,1,2,0,15,15,29,,,,,,,,,,,,,,,,,,2,1,1.04964835452,,,,,,2015_Nov_25_1536,P11,PLC_L_D1S1,NHG,60.0200965631,
stim/negf.jpg,stim/posf.jpg,stim/4.jpg,stim/5.jpg,stim/latef.jpg,EF,1,2,0,16,16,46,,,,,,,,,,,,,,,,,,4,0,1.13297277464,,,,,,2015_Nov_25_1536,P11,PLC_L_D1S1,NHG,60.0200965631,
stim/negf.jpg,stim/posf.jpg,stim/5.jpg,stim/4.jpg,stim/latef.jpg,EF,2,4,0,17,17,56,,,,,,,,,,,,,,,,,,2,0,1.06622134871,,,,,,2015_Nov_25_1536,P11,PLC_L_D1S1,NHG,60.0200965631,
stim/posf.jpg,stim/negf.jpg,stim/3.jpg,stim/6.jpg,stim/latef.jpg,AB,1,2,0,18,18,7,,,,,,,,,,,,,,,,,,2,1,0.899681030971,,,,,,2015_Nov_25_1536,P11,PLC_L_D1S1,NHG,60.0200965631,
stim/posf.jpg,stim/negf.jpg,stim/1.jpg,stim/2.jpg,stim/latef.jpg,CD,1,2,0,19,19,23,,,,,,,,,,,,,,,,,,2,1,0.949700901496,,,,,,2015_Nov_25_1536,P11,PLC_L_D1S1,NHG,60.0200965631,
stim/posf.jpg,stim/negf.jpg,stim/2.jpg,stim/1.jpg,stim/latef.jpg,CD,2,4,0,20,20,30,,,,,,,,,,,,,,,,,,4,1,1.01633338697,,,,,,2015_Nov_25_1536,P11,PLC_L_D1S1,NHG,60.0200965631,
stim/posf.jpg,stim/negf.jpg,stim/1.jpg,stim/2.jpg,stim/latef.jpg,CD,1,2,0,21,21,22,,,,,,,,,,,,,,,,,,2,1,1.06621334877,,,,,,2015_Nov_25_1536,P11,PLC_L_D1S1,NHG,60.0200965631,
stim/posf.jpg,stim/negf.jpg,stim/5.jpg,stim/4.jpg,stim/latef.jpg,EF,2,4,0,22,22,54,,,,,,,,,,,,,,,,,,2,0,0.933052322915,,,,,,2015_Nov_25_1536,P11,PLC_L_D1S1,NHG,60.0200965631,
stim/posf.jpg,stim/negf.jpg,stim/3.jpg,stim/6.jpg,stim/latef.jpg,AB,1,2,0,23,23,0,,,,,,,,,,,,,,,,,,2,1,1.2495721175,,,,,,2015_Nov_25_1536,P11,PLC_L_D1S1,NHG,60.0200965631,
stim/posf.jpg,stim/negf.jpg,stim/1.jpg,stim/2.jpg,stim/latef.jpg,CD,1,2,0,24,24,20,,,,,,,,,,,,,,,,,,2,1,1.18293292832,,,,,,2015_Nov_25_1536,P11,PLC_L_D1S1,NHG,60.0200965631,
stim/posf.jpg,stim/negf.jpg,stim/5.jpg,stim/4.jpg,stim/latef.jpg,EF,2,4,0,25,25,52,,,,,,,,,,,,,,,,,,4,1,1.01633061706,,,,,,2015_Nov_25_1536,P11,PLC_L_D1S1,NHG,60.0200965631,
stim/posf.jpg,stim/negf.jpg,stim/5.jpg,stim/4.jpg,stim/latef.jpg,EF,2,4,0,26,26,53,,,,,,,,,,,,,,,,,,4,1,0.799745613942,,,,,,2015_Nov_25_1536,P11,PLC_L_D1S1,NHG,60.0200965631,
stim/posf.jpg,stim/negf.jpg,stim/5.jpg,stim/4.jpg,stim/latef.jpg,EF,2,4,0,27,27,51,,,,,,,,,,,,,,,,,,4,1,0.583189563988,,,,,,2015_Nov_25_1536,P11,PLC_L_D1S1,NHG,60.0200965631,
stim/posf.jpg,stim/negf.jpg,stim/4.jpg,stim/5.jpg,stim/latef.jpg,EF,1,2,0,28,28,40,,,,,,,,,,,,,,,,,,2,1,0.799700215786,,,,,,2015_Nov_25_1536,P11,PLC_L_D1S1,NHG,60.0200965631,
stim/negf.jpg,stim/posf.jpg,stim/3.jpg,stim/6.jpg,stim/latef.jpg,AB,1,2,0,29,29,9,,,,,,,,,,,,,,,,,,2,1,0.96635166653,,,,,,2015_Nov_25_1536,P11,PLC_L_D1S1,NHG,60.0200965631,
stim/posf.jpg,stim/negf.jpg,stim/6.jpg,stim/3.jpg,stim/latef.jpg,AB,2,4,0,30,30,12,,,,,,,,,,,,,,,,,,4,1,1.11629451508,,,,,,2015_Nov_25_1536,P11,PLC_L_D1S1,NHG,60.0200965631,
stim/posf.jpg,stim/negf.jpg,stim/3.jpg,stim/6.jpg,stim/latef.jpg,AB,1,2,0,31,31,5,,,,,,,,,,,,,,,,,,2,1,0.88303987188,,,,,,2015_Nov_25_1536,P11,PLC_L_D1S1,NHG,60.0200965631,
stim/negf.jpg,stim/posf.jpg,stim/2.jpg,stim/1.jpg,stim/latef.jpg,CD,2,4,0,32,32,38,,,,,,,,,,,,,,,,,,4,1,1.24959554289,,,,,,2015_Nov_25_1536,P11,PLC_L_D1S1,NHG,60.0200965631,
stim/posf.jpg,stim/negf.jpg,stim/5.jpg,stim/4.jpg,stim/latef.jpg,EF,2,4,0,33,33,50,,,,,,,,,,,,,,,,,,4,1,0.999657861219,,,,,,2015_Nov_25_1536,P11,PLC_L_D1S1,NHG,60.0200965631,
stim/negf.jpg,stim/posf.jpg,stim/5.jpg,stim/4.jpg,stim/latef.jpg,EF,2,4,0,34,34,59,,,,,,,,,,,,,,,,,,4,1,1.11629708649,,,,,,2015_Nov_25_1536,P11,PLC_L_D1S1,NHG,60.0200965631,
stim/negf.jpg,stim/posf.jpg,stim/4.jpg,stim/5.jpg,stim/latef.jpg,EF,1,2,0,35,35,48,,,,,,,,,,,,,,,,,,2,1,0.949683921173,,,,,,2015_Nov_25_1536,P11,PLC_L_D1S1,NHG,60.0200965631,
stim/posf.jpg,stim/negf.jpg,stim/6.jpg,stim/3.jpg,stim/latef.jpg,AB,2,4,0,36,36,17,,,,,,,,,,,,,,,,,,4,1,1.54950539921,,,,,,2015_Nov_25_1536,P11,PLC_L_D1S1,NHG,60.0200965631,
stim/posf.jpg,stim/negf.jpg,stim/5.jpg,stim/4.jpg,stim/latef.jpg,EF,2,4,0,37,37,55,,,,,,,,,,,,,,,,,,4,1,0.783069739326,,,,,,2015_Nov_25_1536,P11,PLC_L_D1S1,NHG,60.0200965631,
stim/posf.jpg,stim/negf.jpg,stim/6.jpg,stim/3.jpg,stim/latef.jpg,AB,2,4,0,38,38,13,,,,,,,,,,,,,,,,,,4,1,1.09963788543,,,,,,2015_Nov_25_1536,P11,PLC_L_D1S1,NHG,60.0200965631,
stim/posf.jpg,stim/negf.jpg,stim/2.jpg,stim/1.jpg,stim/latef.jpg,CD,2,4,0,39,39,35,,,,,,,,,,,,,,,,,,4,1,1.23292014045,,,,,,2015_Nov_25_1536,P11,PLC_L_D1S1,NHG,60.0200965631,
stim/negf.jpg,stim/posf.jpg,stim/2.jpg,stim/1.jpg,stim/latef.jpg,CD,2,4,0,40,40,37,,,,,,,,,,,,,,,,,,4,1,0.783065152893,,,,,,2015_Nov_25_1536,P11,PLC_L_D1S1,NHG,60.0200965631,
stim/posf.jpg,stim/negf.jpg,stim/3.jpg,stim/6.jpg,stim/latef.jpg,AB,1,2,0,41,41,4,,,,,,,,,,,,,,,,,,2,1,0.983009460078,,,,,,2015_Nov_25_1536,P11,PLC_L_D1S1,NHG,60.0200965631,
stim/posf.jpg,stim/negf.jpg,stim/4.jpg,stim/5.jpg,stim/latef.jpg,EF,1,2,0,42,42,45,,,,,,,,,,,,,,,,,,2,1,0.916363852903,,,,,,2015_Nov_25_1536,P11,PLC_L_D1S1,NHG,60.0200965631,
stim/posf.jpg,stim/negf.jpg,stim/4.jpg,stim/5.jpg,stim/latef.jpg,EF,1,2,0,43,43,44,,,,,,,,,,,,,,,,,,2,1,0.733068539335,,,,,,2015_Nov_25_1536,P11,PLC_L_D1S1,NHG,60.0200965631,
stim/posf.jpg,stim/negf.jpg,stim/1.jpg,stim/2.jpg,stim/latef.jpg,CD,1,2,0,44,44,26,,,,,,,,,,,,,,,,,,2,1,1.18295544244,,,,,,2015_Nov_25_1536,P11,PLC_L_D1S1,NHG,60.0200965631,
stim/posf.jpg,stim/negf.jpg,stim/6.jpg,stim/3.jpg,stim/latef.jpg,AB,2,4,0,45,45,14,,,,,,,,,,,,,,,,,,4,1,1.18288050767,,,,,,2015_Nov_25_1536,P11,PLC_L_D1S1,NHG,60.0200965631,
stim/posf.jpg,stim/negf.jpg,stim/2.jpg,stim/1.jpg,stim/latef.jpg,CD,2,4,0,46,46,32,,,,,,,,,,,,,,,,,,4,1,1.03300366764,,,,,,2015_Nov_25_1536,P11,PLC_L_D1S1,NHG,60.0200965631,
stim/posf.jpg,stim/negf.jpg,stim/6.jpg,stim/3.jpg,stim/latef.jpg,AB,2,4,0,47,47,10,,,,,,,,,,,,,,,,,,4,1,1.03300124962,,,,,,2015_Nov_25_1536,P11,PLC_L_D1S1,NHG,60.0200965631,
stim/posf.jpg,stim/negf.jpg,stim/2.jpg,stim/1.jpg,stim/latef.jpg,CD,2,4,0,48,48,33,,,,,,,,,,,,,,,,,,4,1,1.26624904775,,,,,,2015_Nov_25_1536,P11,PLC_L_D1S1,NHG,60.0200965631,
stim/posf.jpg,stim/negf.jpg,stim/6.jpg,stim/3.jpg,stim/latef.jpg,AB,2,4,0,49,49,11,,,,,,,,,,,,,,,,,,4,1,0.866346120707,,,,,,2015_Nov_25_1536,P11,PLC_L_D1S1,NHG,60.0200965631,
stim/negf.jpg,stim/posf.jpg,stim/5.jpg,stim/4.jpg,stim/latef.jpg,EF,2,4,0,50,50,57,,,,,,,,,,,,,,,,,,4,1,1.53280828565,,,,,,2015_Nov_25_1536,P11,PLC_L_D1S1,NHG,60.0200965631,
stim/negf.jpg,stim/posf.jpg,stim/4.jpg,stim/5.jpg,stim/latef.jpg,EF,1,2,0,51,51,47,,,,,,,,,,,,,,,,,,2,1,0.949667819039,,,,,,2015_Nov_25_1536,P11,PLC_L_D1S1,NHG,60.0200965631,
stim/posf.jpg,stim/negf.jpg,stim/6.jpg,stim/3.jpg,stim/latef.jpg,AB,2,4,0,52,52,16,,,,,,,,,,,,,,,,,,4,1,1.21625124924,,,,,,2015_Nov_25_1536,P11,PLC_L_D1S1,NHG,60.0200965631,
stim/posf.jpg,stim/negf.jpg,stim/3.jpg,stim/6.jpg,stim/latef.jpg,AB,1,2,0,53,53,2,,,,,,,,,,,,,,,,,,2,1,0.899674946804,,,,,,2015_Nov_25_1536,P11,PLC_L_D1S1,NHG,60.0200965631,
stim/posf.jpg,stim/negf.jpg,stim/2.jpg,stim/1.jpg,stim/latef.jpg,CD,2,4,0,54,54,36,,,,,,,,,,,,,,,,,,4,1,0.766424529138,,,,,,2015_Nov_25_1536,P11,PLC_L_D1S1,NHG,60.0200965631,
stim/posf.jpg,stim/negf.jpg,stim/2.jpg,stim/1.jpg,stim/latef.jpg,CD,2,4,0,55,55,34,,,,,,,,,,,,,,,,,,4,1,0.649784831692,,,,,,2015_Nov_25_1536,P11,PLC_L_D1S1,NHG,60.0200965631,
stim/negf.jpg,stim/posf.jpg,stim/1.jpg,stim/2.jpg,stim/latef.jpg,CD,1,2,0,56,56,28,,,,,,,,,,,,,,,,,,2,1,1.06633445764,,,,,,2015_Nov_25_1536,P11,PLC_L_D1S1,NHG,60.0200965631,
stim/posf.jpg,stim/negf.jpg,stim/6.jpg,stim/3.jpg,stim/latef.jpg,AB,2,4,0,57,57,15,,,,,,,,,,,,,,,,,,4,1,0.8996427275,,,,,,2015_Nov_25_1536,P11,PLC_L_D1S1,NHG,60.0200965631,
stim/posf.jpg,stim/negf.jpg,stim/3.jpg,stim/6.jpg,stim/latef.jpg,AB,1,2,0,58,58,6,,,,,,,,,,,,,,,,,,2,1,0.783088659484,,,,,,2015_Nov_25_1536,P11,PLC_L_D1S1,NHG,60.0200965631,
stim/posf.jpg,stim/negf.jpg,stim/4.jpg,stim/5.jpg,stim/latef.jpg,EF,1,2,0,59,59,43,,,,,,,,,,,,,,,,,,4,0,0.933009420982,,,,,,2015_Nov_25_1536,P11,PLC_L_D1S1,NHG,60.0200965631,
,,,,,,,,,,,,,,,,,,,,,,,,,,,,,,,,0.9984375,1.0,1,0,0,2015_Nov_25_1536,P11,PLC_L_D1S1,NHG,60.0200965631,
stim/negf.jpg,stim/posf.jpg,stim/2.jpg,stim/1.jpg,stim/latef.jpg,CD,2,4,,,,,0,0,0,38,,,,,,,,,,,,,,4,1,0.899709169104,,,,,,2015_Nov_25_1536,P11,PLC_L_D1S1,NHG,60.0200965631,
stim/posf.jpg,stim/negf.jpg,stim/3.jpg,stim/6.jpg,stim/latef.jpg,AB,1,2,,,,,0,1,1,2,,,,,,,,,,,,,,2,1,0.866385073798,,,,,,2015_Nov_25_1536,P11,PLC_L_D1S1,NHG,60.0200965631,
stim/negf.jpg,stim/posf.jpg,stim/5.jpg,stim/4.jpg,stim/latef.jpg,EF,2,4,,,,,0,2,2,57,,,,,,,,,,,,,,4,1,0.816369937069,,,,,,2015_Nov_25_1536,P11,PLC_L_D1S1,NHG,60.0200965631,
stim/posf.jpg,stim/negf.jpg,stim/6.jpg,stim/3.jpg,stim/latef.jpg,AB,2,4,,,,,0,3,3,14,,,,,,,,,,,,,,4,1,0.733112072841,,,,,,2015_Nov_25_1536,P11,PLC_L_D1S1,NHG,60.0200965631,
stim/posf.jpg,stim/negf.jpg,stim/4.jpg,stim/5.jpg,stim/latef.jpg,EF,1,2,,,,,0,4,4,42,,,,,,,,,,,,,,2,1,0.966353443961,,,,,,2015_Nov_25_1536,P11,PLC_L_D1S1,NHG,60.0200965631,
stim/posf.jpg,stim/negf.jpg,stim/5.jpg,stim/4.jpg,stim/latef.jpg,EF,2,4,,,,,0,5,5,50,,,,,,,,,,,,,,4,1,0.733080133232,,,,,,2015_Nov_25_1536,P11,PLC_L_D1S1,NHG,60.0200965631,
stim/posf.jpg,stim/negf.jpg,stim/1.jpg,stim/2.jpg,stim/latef.jpg,CD,1,2,,,,,0,6,6,21,,,,,,,,,,,,,,2,1,0.899701024804,,,,,,2015_Nov_25_1536,P11,PLC_L_D1S1,NHG,60.0200965631,
stim/negf.jpg,stim/posf.jpg,stim/1.jpg,stim/2.jpg,stim/latef.jpg,CD,1,2,,,,,0,7,7,27,,,,,,,,,,,,,,2,1,0.68306609424,,,,,,2015_Nov_25_1536,P11,PLC_L_D1S1,NHG,60.0200965631,
stim/posf.jpg,stim/negf.jpg,stim/4.jpg,stim/5.jpg,stim/latef.jpg,EF,1,2,,,,,0,8,8,45,,,,,,,,,,,,,,2,1,0.716361552168,,,,,,2015_Nov_25_1536,P11,PLC_L_D1S1,NHG,60.0200965631,
stim/posf.jpg,stim/negf.jpg,stim/3.jpg,stim/6.jpg,stim/latef.jpg,AB,1,2,,,,,0,9,9,1,,,,,,,,,,,,,,2,1,0.716439732032,,,,,,2015_Nov_25_1536,P11,PLC_L_D1S1,NHG,60.0200965631,
stim/posf.jpg,stim/negf.jpg,stim/6.jpg,stim/3.jpg,stim/latef.jpg,AB,2,4,,,,,0,10,10,16,,,,,,,,,,,,,,4,1,0.883044250795,,,,,,2015_Nov_25_1536,P11,PLC_L_D1S1,NHG,60.0200965631,
stim/posf.jpg,stim/negf.jpg,stim/5.jpg,stim/4.jpg,stim/latef.jpg,EF,2,4,,,,,0,11,11,51,,,,,,,,,,,,,,4,1,0.816385365524,,,,,,2015_Nov_25_1536,P11,PLC_L_D1S1,NHG,60.0200965631,
stim/posf.jpg,stim/negf.jpg,stim/5.jpg,stim/4.jpg,stim/latef.jpg,EF,2,4,,,,,0,12,12,52,,,,,,,,,,,,,,4,1,0.599816482583,,,,,,2015_Nov_25_1536,P11,PLC_L_D1S1,NHG,60.0200965631,
stim/negf.jpg,stim/posf.jpg,stim/2.jpg,stim/1.jpg,stim/latef.jpg,CD,2,4,,,,,0,13,13,39,,,,,,,,,,,,,,4,1,0.83298075052,,,,,,2015_Nov_25_1536,P11,PLC_L_D1S1,NHG,60.0200965631,
stim/posf.jpg,stim/negf.jpg,stim/3.jpg,stim/6.jpg,stim/latef.jpg,AB,1,2,,,,,0,14,14,4,,,,,,,,,,,,,,2,1,0.783047553026,,,,,,2015_Nov_25_1536,P11,PLC_L_D1S1,NHG,60.0200965631,
stim/posf.jpg,stim/negf.jpg,stim/2.jpg,stim/1.jpg,stim/latef.jpg,CD,2,4,,,,,0,15,15,33,,,,,,,,,,,,,,4,1,0.61643427042,,,,,,2015_Nov_25_1536,P11,PLC_L_D1S1,NHG,60.0200965631,
stim/posf.jpg,stim/negf.jpg,stim/1.jpg,stim/2.jpg,stim/latef.jpg,CD,1,2,,,,,0,16,16,24,,,,,,,,,,,,,,2,1,0.683107119496,,,,,,2015_Nov_25_1536,P11,PLC_L_D1S1,NHG,60.0200965631,
stim/posf.jpg,stim/negf.jpg,stim/4.jpg,stim/5.jpg,stim/latef.jpg,EF,1,2,,,,,0,17,17,43,,,,,,,,,,,,,,2,1,0.833098415802,,,,,,2015_Nov_25_1536,P11,PLC_L_D1S1,NHG,60.0200965631,
stim/posf.jpg,stim/negf.jpg,stim/5.jpg,stim/4.jpg,stim/latef.jpg,EF,2,4,,,,,0,18,18,55,,,,,,,,,,,,,,4,1,0.699812446524,,,,,,2015_Nov_25_1536,P11,PLC_L_D1S1,NHG,60.0200965631,
stim/posf.jpg,stim/negf.jpg,stim/2.jpg,stim/1.jpg,stim/latef.jpg,CD,2,4,,,,,0,19,19,32,,,,,,,,,,,,,,4,1,0.916378240765,,,,,,2015_Nov_25_1536,P11,PLC_L_D1S1,NHG,60.0200965631,
stim/posf.jpg,stim/negf.jpg,stim/6.jpg,stim/3.jpg,stim/latef.jpg,AB,2,4,,,,,0,20,20,11,,,,,,,,,,,,,,4,1,1.11632390734,,,,,,2015_Nov_25_1536,P11,PLC_L_D1S1,NHG,60.0200965631,
stim/posf.jpg,stim/negf.jpg,stim/4.jpg,stim/5.jpg,stim/latef.jpg,EF,1,2,,,,,0,21,21,41,,,,,,,,,,,,,,2,1,0.699738991436,,,,,,2015_Nov_25_1536,P11,PLC_L_D1S1,NHG,60.0200965631,
stim/posf.jpg,stim/negf.jpg,stim/3.jpg,stim/6.jpg,stim/latef.jpg,AB,1,2,,,,,0,22,22,7,,,,,,,,,,,,,,2,1,1.04966060706,,,,,,2015_Nov_25_1536,P11,PLC_L_D1S1,NHG,60.0200965631,
stim/negf.jpg,stim/posf.jpg,stim/5.jpg,stim/4.jpg,stim/latef.jpg,EF,2,4,,,,,0,23,23,58,,,,,,,,,,,,,,4,1,0.666428649409,,,,,,2015_Nov_25_1536,P11,PLC_L_D1S1,NHG,60.0200965631,
stim/negf.jpg,stim/posf.jpg,stim/5.jpg,stim/4.jpg,stim/latef.jpg,EF,2,4,,,,,0,24,24,59,,,,,,,,,,,,,,4,1,0.716474492674,,,,,,2015_Nov_25_1536,P11,PLC_L_D1S1,NHG,60.0200965631,
stim/posf.jpg,stim/negf.jpg,stim/3.jpg,stim/6.jpg,stim/latef.jpg,AB,1,2,,,,,0,25,25,6,,,,,,,,,,,,,,2,1,0.733082274568,,,,,,2015_Nov_25_1536,P11,PLC_L_D1S1,NHG,60.0200965631,
stim/negf.jpg,stim/posf.jpg,stim/1.jpg,stim/2.jpg,stim/latef.jpg,CD,1,2,,,,,0,26,26,29,,,,,,,,,,,,,,2,1,0.883039459855,,,,,,2015_Nov_25_1536,P11,PLC_L_D1S1,NHG,60.0200965631,
stim/posf.jpg,stim/negf.jpg,stim/1.jpg,stim/2.jpg,stim/latef.jpg,CD,1,2,,,,,0,27,27,20,,,,,,,,,,,,,,2,1,0.816403013512,,,,,,2015_Nov_25_1536,P11,PLC_L_D1S1,NHG,60.0200965631,
stim/posf.jpg,stim/negf.jpg,stim/2.jpg,stim/1.jpg,stim/latef.jpg,CD,2,4,,,,,0,28,28,30,,,,,,,,,,,,,,4,1,0.683114830716,,,,,,2015_Nov_25_1536,P11,PLC_L_D1S1,NHG,60.0200965631,
stim/posf.jpg,stim/negf.jpg,stim/5.jpg,stim/4.jpg,stim/latef.jpg,EF,2,4,,,,,0,29,29,54,,,,,,,,,,,,,,4,1,0.716430893001,,,,,,2015_Nov_25_1536,P11,PLC_L_D1S1,NHG,60.0200965631,
stim/posf.jpg,stim/negf.jpg,stim/6.jpg,stim/3.jpg,stim/latef.jpg,AB,2,4,,,,,0,30,30,17,,,,,,,,,,,,,,4,1,0.949724784025,,,,,,2015_Nov_25_1536,P11,PLC_L_D1S1,NHG,60.0200965631,
stim/posf.jpg,stim/negf.jpg,stim/3.jpg,stim/6.jpg,stim/latef.jpg,AB,1,2,,,,,0,31,31,3,,,,,,,,,,,,,,2,1,0.949701623296,,,,,,2015_Nov_25_1536,P11,PLC_L_D1S1,NHG,60.0200965631,
stim/posf.jpg,stim/negf.jpg,stim/4.jpg,stim/5.jpg,stim/latef.jpg,EF,1,2,,,,,0,32,32,40,,,,,,,,,,,,,,2,1,1.09964316659,,,,,,2015_Nov_25_1536,P11,PLC_L_D1S1,NHG,60.0200965631,
stim/posf.jpg,stim/negf.jpg,stim/6.jpg,stim/3.jpg,stim/latef.jpg,AB,2,4,,,,,0,33,33,15,,,,,,,,,,,,,,4,1,0.966350328194,,,,,,2015_Nov_25_1536,P11,PLC_L_D1S1,NHG,60.0200965631,
stim/posf.jpg,stim/negf.jpg,stim/1.jpg,stim/2.jpg,stim/latef.jpg,CD,1,2,,,,,0,34,34,26,,,,,,,,,,,,,,2,1,1.66615564695,,,,,,2015_Nov_25_1536,P11,PLC_L_D1S1,NHG,60.0200965631,
stim/negf.jpg,stim/posf.jpg,stim/2.jpg,stim/1.jpg,stim/latef.jpg,CD,2,4,,,,,0,35,35,37,,,,,,,,,,,,,,4,1,1.19958022571,,,,,,2015_Nov_25_1536,P11,PLC_L_D1S1,NHG,60.0200965631,
stim/negf.jpg,stim/posf.jpg,stim/3.jpg,stim/6.jpg,stim/latef.jpg,AB,1,2,,,,,0,36,36,9,,,,,,,,,,,,,,2,1,0.699814293124,,,,,,2015_Nov_25_1536,P11,PLC_L_D1S1,NHG,60.0200965631,
stim/posf.jpg,stim/negf.jpg,stim/1.jpg,stim/2.jpg,stim/latef.jpg,CD,1,2,,,,,0,37,37,22,,,,,,,,,,,,,,2,1,0.916353525161,,,,,,2015_Nov_25_1536,P11,PLC_L_D1S1,NHG,60.0200965631,
stim/negf.jpg,stim/posf.jpg,stim/4.jpg,stim/5.jpg,stim/latef.jpg,EF,1,2,,,,,0,38,38,48,,,,,,,,,,,,,,2,1,0.883034386208,,,,,,2015_Nov_25_1536,P11,PLC_L_D1S1,NHG,60.0200965631,
stim/posf.jpg,stim/negf.jpg,stim/6.jpg,stim/3.jpg,stim/latef.jpg,AB,2,4,,,,,0,39,39,10,,,,,,,,,,,,,,4,1,1.06632019609,,,,,,2015_Nov_25_1536,P11,PLC_L_D1S1,NHG,60.0200965631,
stim/posf.jpg,stim/negf.jpg,stim/5.jpg,stim/4.jpg,stim/latef.jpg,EF,2,4,,,,,0,40,40,53,,,,,,,,,,,,,,4,1,1.06631717957,,,,,,2015_Nov_25_1536,P11,PLC_L_D1S1,NHG,60.0200965631,
stim/posf.jpg,stim/negf.jpg,stim/4.jpg,stim/5.jpg,stim/latef.jpg,EF,1,2,,,,,0,41,41,44,,,,,,,,,,,,,,2,1,0.916355401838,,,,,,2015_Nov_25_1536,P11,PLC_L_D1S1,NHG,60.0200965631,
stim/negf.jpg,stim/posf.jpg,stim/1.jpg,stim/2.jpg,stim/latef.jpg,CD,1,2,,,,,0,42,42,28,,,,,,,,,,,,,,2,1,0.799742182391,,,,,,2015_Nov_25_1536,P11,PLC_L_D1S1,NHG,60.0200965631,
stim/negf.jpg,stim/posf.jpg,stim/5.jpg,stim/4.jpg,stim/latef.jpg,EF,2,4,,,,,0,43,43,56,,,,,,,,,,,,,,4,1,0.733091874497,,,,,,2015_Nov_25_1536,P11,PLC_L_D1S1,NHG,60.0200965631,
stim/posf.jpg,stim/negf.jpg,stim/6.jpg,stim/3.jpg,stim/latef.jpg,AB,2,4,,,,,0,44,44,13,,,,,,,,,,,,,,4,1,0.849787318894,,,,,,2015_Nov_25_1536,P11,PLC_L_D1S1,NHG,60.0200965631,
stim/posf.jpg,stim/negf.jpg,stim/6.jpg,stim/3.jpg,stim/latef.jpg,AB,2,4,,,,,0,45,45,12,,,,,,,,,,,,,,4,1,0.982952639453,,,,,,2015_Nov_25_1536,P11,PLC_L_D1S1,NHG,60.0200965631,
stim/negf.jpg,stim/posf.jpg,stim/4.jpg,stim/5.jpg,stim/latef.jpg,EF,1,2,,,,,0,46,46,46,,,,,,,,,,,,,,2,1,0.799740898188,,,,,,2015_Nov_25_1536,P11,PLC_L_D1S1,NHG,60.0200965631,
stim/negf.jpg,stim/posf.jpg,stim/4.jpg,stim/5.jpg,stim/latef.jpg,EF,1,2,,,,,0,47,47,47,,,,,,,,,,,,,,2,1,0.633111167585,,,,,,2015_Nov_25_1536,P11,PLC_L_D1S1,NHG,60.0200965631,
stim/posf.jpg,stim/negf.jpg,stim/3.jpg,stim/6.jpg,stim/latef.jpg,AB,1,2,,,,,0,48,48,0,,,,,,,,,,,,,,2,1,0.86636464989,,,,,,2015_Nov_25_1536,P11,PLC_L_D1S1,NHG,60.0200965631,
stim/posf.jpg,stim/negf.jpg,stim/3.jpg,stim/6.jpg,stim/latef.jpg,AB,1,2,,,,,0,49,49,5,,,,,,,,,,,,,,2,1,0.783045138005,,,,,,2015_Nov_25_1536,P11,PLC_L_D1S1,NHG,60.0200965631,
stim/negf.jpg,stim/posf.jpg,stim/6.jpg,stim/3.jpg,stim/latef.jpg,AB,2,4,,,,,0,50,50,19,,,,,,,,,,,,,,4,1,0.88304249141,,,,,,2015_Nov_25_1536,P11,PLC_L_D1S1,NHG,60.0200965631,
stim/negf.jpg,stim/posf.jpg,stim/3.jpg,stim/6.jpg,stim/latef.jpg,AB,1,2,,,,,0,51,51,8,,,,,,,,,,,,,,2,1,0.61646859798,,,,,,2015_Nov_25_1536,P11,PLC_L_D1S1,NHG,60.0200965631,
stim/posf.jpg,stim/negf.jpg,stim/2.jpg,stim/1.jpg,stim/latef.jpg,CD,2,4,,,,,0,52,52,35,,,,,,,,,,,,,,4,1,1.59949129706,,,,,,2015_Nov_25_1536,P11,PLC_L_D1S1,NHG,60.0200965631,
stim/posf.jpg,stim/negf.jpg,stim/1.jpg,stim/2.jpg,stim/latef.jpg,CD,1,2,,,,,0,53,53,25,,,,,,,,,,,,,,2,1,0.983005231541,,,,,,2015_Nov_25_1536,P11,PLC_L_D1S1,NHG,60.0200965631,
stim/negf.jpg,stim/posf.jpg,stim/4.jpg,stim/5.jpg,stim/latef.jpg,EF,1,2,,,,,0,54,54,49,,,,,,,,,,,,,,2,1,0.733092457951,,,,,,2015_Nov_25_1536,P11,PLC_L_D1S1,NHG,60.0200965631,
stim/posf.jpg,stim/negf.jpg,stim/2.jpg,stim/1.jpg,stim/latef.jpg,CD,2,4,,,,,0,55,55,36,,,,,,,,,,,,,,4,1,0.866382730956,,,,,,2015_Nov_25_1536,P11,PLC_L_D1S1,NHG,60.0200965631,
stim/posf.jpg,stim/negf.jpg,stim/2.jpg,stim/1.jpg,stim/latef.jpg,CD,2,4,,,,,0,56,56,34,,,,,,,,,,,,,,4,1,0.683085636949,,,,,,2015_Nov_25_1536,P11,PLC_L_D1S1,NHG,60.0200965631,
stim/posf.jpg,stim/negf.jpg,stim/2.jpg,stim/1.jpg,stim/latef.jpg,CD,2,4,,,,,0,57,57,31,,,,,,,,,,,,,,4,1,0.633111414199,,,,,,2015_Nov_25_1536,P11,PLC_L_D1S1,NHG,60.0200965631,
stim/negf.jpg,stim/posf.jpg,stim/6.jpg,stim/3.jpg,stim/latef.jpg,AB,2,4,,,,,0,58,58,18,,,,,,,,,,,,,,4,1,0.766405852588,,,,,,2015_Nov_25_1536,P11,PLC_L_D1S1,NHG,60.0200965631,
stim/posf.jpg,stim/negf.jpg,stim/1.jpg,stim/2.jpg,stim/latef.jpg,CD,1,2,,,,,0,59,59,23,,,,,,,,,,,,,,2,1,0.733114987106,,,,,,2015_Nov_25_1536,P11,PLC_L_D1S1,NHG,60.0200965631,
,,,,,,,,,,,,,,,,,,,,,,,,,,,,,,,,0.9984375,1.0,1,0,0,2015_Nov_25_1536,P11,PLC_L_D1S1,NHG,60.0200965631,
stim/posf.jpg,stim/negf.jpg,stim/6.jpg,stim/3.jpg,stim/latef.jpg,AB,2,4,,,,,,,,,0,0,0,14,,,,,,,,,,4,1,0.982939589929,,,,,,2015_Nov_25_1536,P11,PLC_L_D1S1,NHG,60.0200965631,
stim/posf.jpg,stim/negf.jpg,stim/1.jpg,stim/2.jpg,stim/latef.jpg,CD,1,2,,,,,,,,,0,1,1,25,,,,,,,,,,2,1,0.716391588034,,,,,,2015_Nov_25_1536,P11,PLC_L_D1S1,NHG,60.0200965631,
stim/posf.jpg,stim/negf.jpg,stim/1.jpg,stim/2.jpg,stim/latef.jpg,CD,1,2,,,,,,,,,0,2,2,23,,,,,,,,,,2,1,0.7497067601,,,,,,2015_Nov_25_1536,P11,PLC_L_D1S1,NHG,60.0200965631,
stim/posf.jpg,stim/negf.jpg,stim/5.jpg,stim/4.jpg,stim/latef.jpg,EF,2,4,,,,,,,,,0,3,3,55,,,,,,,,,,4,1,0.916343092158,,,,,,2015_Nov_25_1536,P11,PLC_L_D1S1,NHG,60.0200965631,
stim/negf.jpg,stim/posf.jpg,stim/2.jpg,stim/1.jpg,stim/latef.jpg,CD,2,4,,,,,,,,,0,4,4,38,,,,,,,,,,4,1,1.0829802603,,,,,,2015_Nov_25_1536,P11,PLC_L_D1S1,NHG,60.0200965631,
stim/posf.jpg,stim/negf.jpg,stim/6.jpg,stim/3.jpg,stim/latef.jpg,AB,2,4,,,,,,,,,0,5,5,16,,,,,,,,,,4,1,0.899707361597,,,,,,2015_Nov_25_1536,P11,PLC_L_D1S1,NHG,60.0200965631,
stim/negf.jpg,stim/posf.jpg,stim/2.jpg,stim/1.jpg,stim/latef.jpg,CD,2,4,,,,,,,,,0,6,6,37,,,,,,,,,,4,1,0.866384508387,,,,,,2015_Nov_25_1536,P11,PLC_L_D1S1,NHG,60.0200965631,
stim/posf.jpg,stim/negf.jpg,stim/1.jpg,stim/2.jpg,stim/latef.jpg,CD,1,2,,,,,,,,,0,7,7,20,,,,,,,,,,2,1,0.966336574913,,,,,,2015_Nov_25_1536,P11,PLC_L_D1S1,NHG,60.0200965631,
stim/posf.jpg,stim/negf.jpg,stim/3.jpg,stim/6.jpg,stim/latef.jpg,AB,1,2,,,,,,,,,0,8,8,5,,,,,,,,,,2,1,1.06630221427,,,,,,2015_Nov_25_1536,P11,PLC_L_D1S1,NHG,60.0200965631,
stim/posf.jpg,stim/negf.jpg,stim/1.jpg,stim/2.jpg,stim/latef.jpg,CD,1,2,,,,,,,,,0,9,9,22,,,,,,,,,,2,1,0.766410219472,,,,,,2015_Nov_25_1536,P11,PLC_L_D1S1,NHG,60.0200965631,
stim/posf.jpg,stim/negf.jpg,stim/4.jpg,stim/5.jpg,stim/latef.jpg,EF,1,2,,,,,,,,,0,10,10,43,,,,,,,,,,2,1,0.833103399222,,,,,,2015_Nov_25_1536,P11,PLC_L_D1S1,NHG,60.0200965631,
stim/posf.jpg,stim/negf.jpg,stim/6.jpg,stim/3.jpg,stim/latef.jpg,AB,2,4,,,,,,,,,0,11,11,11,,,,,,,,,,4,1,0.866419647973,,,,,,2015_Nov_25_1536,P11,PLC_L_D1S1,NHG,60.0200965631,
stim/posf.jpg,stim/negf.jpg,stim/6.jpg,stim/3.jpg,stim/latef.jpg,AB,2,4,,,,,,,,,0,12,12,10,,,,,,,,,,4,1,0.783082376824,,,,,,2015_Nov_25_1536,P11,PLC_L_D1S1,NHG,60.0200965631,
stim/posf.jpg,stim/negf.jpg,stim/5.jpg,stim/4.jpg,stim/latef.jpg,EF,2,4,,,,,,,,,0,13,13,53,,,,,,,,,,4,1,1.01634990714,,,,,,2015_Nov_25_1536,P11,PLC_L_D1S1,NHG,60.0200965631,
stim/posf.jpg,stim/negf.jpg,stim/2.jpg,stim/1.jpg,stim/latef.jpg,CD,2,4,,,,,,,,,0,14,14,35,,,,,,,,,,4,1,0.799740642551,,,,,,2015_Nov_25_1536,P11,PLC_L_D1S1,NHG,60.0200965631,
stim/posf.jpg,stim/negf.jpg,stim/3.jpg,stim/6.jpg,stim/latef.jpg,AB,1,2,,,,,,,,,0,15,15,4,,,,,,,,,,2,1,0.849712904414,,,,,,2015_Nov_25_1536,P11,PLC_L_D1S1,NHG,60.0200965631,
stim/negf.jpg,stim/posf.jpg,stim/4.jpg,stim/5.jpg,stim/latef.jpg,EF,1,2,,,,,,,,,0,16,16,49,,,,,,,,,,2,1,0.849713448772,,,,,,2015_Nov_25_1536,P11,PLC_L_D1S1,NHG,60.0200965631,
stim/posf.jpg,stim/negf.jpg,stim/4.jpg,stim/5.jpg,stim/latef.jpg,EF,1,2,,,,,,,,,0,17,17,44,,,,,,,,,,2,1,0.866377512952,,,,,,2015_Nov_25_1536,P11,PLC_L_D1S1,NHG,60.0200965631,
stim/negf.jpg,stim/posf.jpg,stim/5.jpg,stim/4.jpg,stim/latef.jpg,EF,2,4,,,,,,,,,0,18,18,57,,,,,,,,,,4,1,0.766404598462,,,,,,2015_Nov_25_1536,P11,PLC_L_D1S1,NHG,60.0200965631,
stim/negf.jpg,stim/posf.jpg,stim/5.jpg,stim/4.jpg,stim/latef.jpg,EF,2,4,,,,,,,,,0,19,19,59,,,,,,,,,,4,1,0.749752868023,,,,,,2015_Nov_25_1536,P11,PLC_L_D1S1,NHG,60.0200965631,
stim/posf.jpg,stim/negf.jpg,stim/6.jpg,stim/3.jpg,stim/latef.jpg,AB,2,4,,,,,,,,,0,20,20,13,,,,,,,,,,4,1,0.866388854218,,,,,,2015_Nov_25_1536,P11,PLC_L_D1S1,NHG,60.0200965631,
stim/negf.jpg,stim/posf.jpg,stim/2.jpg,stim/1.jpg,stim/latef.jpg,CD,2,4,,,,,,,,,0,21,21,39,,,,,,,,,,4,1,1.24957627687,,,,,,2015_Nov_25_1536,P11,PLC_L_D1S1,NHG,60.0200965631,
stim/negf.jpg,stim/posf.jpg,stim/3.jpg,stim/6.jpg,stim/latef.jpg,AB,1,2,,,,,,,,,0,22,22,8,,,,,,,,,,2,1,0.733127140396,,,,,,2015_Nov_25_1536,P11,PLC_L_D1S1,NHG,60.0200965631,
stim/posf.jpg,stim/negf.jpg,stim/1.jpg,stim/2.jpg,stim/latef.jpg,CD,1,2,,,,,,,,,0,23,23,24,,,,,,,,,,2,1,1.0829819866,,,,,,2015_Nov_25_1536,P11,PLC_L_D1S1,NHG,60.0200965631,
stim/posf.jpg,stim/negf.jpg,stim/4.jpg,stim/5.jpg,stim/latef.jpg,EF,1,2,,,,,,,,,0,24,24,41,,,,,,,,,,2,1,1.54950533605,,,,,,2015_Nov_25_1536,P11,PLC_L_D1S1,NHG,60.0200965631,
stim/posf.jpg,stim/negf.jpg,stim/3.jpg,stim/6.jpg,stim/latef.jpg,AB,1,2,,,,,,,,,0,25,25,1,,,,,,,,,,2,1,1.39952530883,,,,,,2015_Nov_25_1536,P11,PLC_L_D1S1,NHG,60.0200965631,
stim/posf.jpg,stim/negf.jpg,stim/5.jpg,stim/4.jpg,stim/latef.jpg,EF,2,4,,,,,,,,,0,26,26,50,,,,,,,,,,4,1,0.766420207367,,,,,,2015_Nov_25_1536,P11,PLC_L_D1S1,NHG,60.0200965631,
stim/posf.jpg,stim/negf.jpg,stim/5.jpg,stim/4.jpg,stim/latef.jpg,EF,2,4,,,,,,,,,0,27,27,52,,,,,,,,,,4,1,0.832975836272,,,,,,2015_Nov_25_1536,P11,PLC_L_D1S1,NHG,60.0200965631,
stim/negf.jpg,stim/posf.jpg,stim/4.jpg,stim/5.jpg,stim/latef.jpg,EF,1,2,,,,,,,,,0,28,28,47,,,,,,,,,,2,1,0.666436291456,,,,,,2015_Nov_25_1536,P11,PLC_L_D1S1,NHG,60.0200965631,
stim/posf.jpg,stim/negf.jpg,stim/3.jpg,stim/6.jpg,stim/latef.jpg,AB,1,2,,,,,,,,,0,29,29,2,,,,,,,,,,2,1,0.899710684882,,,,,,2015_Nov_25_1536,P11,PLC_L_D1S1,NHG,60.0200965631,
stim/posf.jpg,stim/negf.jpg,stim/3.jpg,stim/6.jpg,stim/latef.jpg,AB,1,2,,,,,,,,,0,30,30,3,,,,,,,,,,2,1,0.666438920009,,,,,,2015_Nov_25_1536,P11,PLC_L_D1S1,NHG,60.0200965631,
stim/posf.jpg,stim/negf.jpg,stim/3.jpg,stim/6.jpg,stim/latef.jpg,AB,1,2,,,,,,,,,0,31,31,6,,,,,,,,,,2,1,0.799733247119,,,,,,2015_Nov_25_1536,P11,PLC_L_D1S1,NHG,60.0200965631,
stim/negf.jpg,stim/posf.jpg,stim/1.jpg,stim/2.jpg,stim/latef.jpg,CD,1,2,,,,,,,,,0,32,32,27,,,,,,,,,,2,1,0.89965545823,,,,,,2015_Nov_25_1536,P11,PLC_L_D1S1,NHG,60.0200965631,
stim/posf.jpg,stim/negf.jpg,stim/2.jpg,stim/1.jpg,stim/latef.jpg,CD,2,4,,,,,,,,,0,33,33,33,,,,,,,,,,4,1,0.733092118104,,,,,,2015_Nov_25_1536,P11,PLC_L_D1S1,NHG,60.0200965631,
stim/posf.jpg,stim/negf.jpg,stim/2.jpg,stim/1.jpg,stim/latef.jpg,CD,2,4,,,,,,,,,0,34,34,31,,,,,,,,,,None,0,,,,,,,2015_Nov_25_1536,P11,PLC_L_D1S1,NHG,60.0200965631,
stim/negf.jpg,stim/posf.jpg,stim/6.jpg,stim/3.jpg,stim/latef.jpg,AB,2,4,,,,,,,,,0,35,35,18,,,,,,,,,,4,1,0.783069564892,,,,,,2015_Nov_25_1536,P11,PLC_L_D1S1,NHG,60.0200965631,
stim/posf.jpg,stim/negf.jpg,stim/2.jpg,stim/1.jpg,stim/latef.jpg,CD,2,4,,,,,,,,,0,36,36,34,,,,,,,,,,4,1,0.716336274163,,,,,,2015_Nov_25_1536,P11,PLC_L_D1S1,NHG,60.0200965631,
stim/negf.jpg,stim/posf.jpg,stim/3.jpg,stim/6.jpg,stim/latef.jpg,AB,1,2,,,,,,,,,0,37,37,9,,,,,,,,,,2,1,0.866360622853,,,,,,2015_Nov_25_1536,P11,PLC_L_D1S1,NHG,60.0200965631,
stim/posf.jpg,stim/negf.jpg,stim/2.jpg,stim/1.jpg,stim/latef.jpg,CD,2,4,,,,,,,,,0,38,38,30,,,,,,,,,,4,1,0.683093633881,,,,,,2015_Nov_25_1536,P11,PLC_L_D1S1,NHG,60.0200965631,
stim/posf.jpg,stim/negf.jpg,stim/4.jpg,stim/5.jpg,stim/latef.jpg,EF,1,2,,,,,,,,,0,39,39,40,,,,,,,,,,2,1,0.68313911324,,,,,,2015_Nov_25_1536,P11,PLC_L_D1S1,NHG,60.0200965631,
stim/negf.jpg,stim/posf.jpg,stim/4.jpg,stim/5.jpg,stim/latef.jpg,EF,1,2,,,,,,,,,0,40,40,48,,,,,,,,,,2,1,0.766413726213,,,,,,2015_Nov_25_1536,P11,PLC_L_D1S1,NHG,60.0200965631,
stim/posf.jpg,stim/negf.jpg,stim/6.jpg,stim/3.jpg,stim/latef.jpg,AB,2,4,,,,,,,,,0,41,41,12,,,,,,,,,,4,1,1.13293818844,,,,,,2015_Nov_25_1536,P11,PLC_L_D1S1,NHG,60.0200965631,
stim/negf.jpg,stim/posf.jpg,stim/5.jpg,stim/4.jpg,stim/latef.jpg,EF,2,4,,,,,,,,,0,42,42,56,,,,,,,,,,4,1,0.866376406193,,,,,,2015_Nov_25_1536,P11,PLC_L_D1S1,NHG,60.0200965631,
stim/posf.jpg,stim/negf.jpg,stim/5.jpg,stim/4.jpg,stim/latef.jpg,EF,2,4,,,,,,,,,0,43,43,54,,,,,,,,,,4,1,0.666427296035,,,,,,2015_Nov_25_1536,P11,PLC_L_D1S1,NHG,60.0200965631,
stim/posf.jpg,stim/negf.jpg,stim/3.jpg,stim/6.jpg,stim/latef.jpg,AB,1,2,,,,,,,,,0,44,44,7,,,,,,,,,,2,1,0.749750934205,,,,,,2015_Nov_25_1536,P11,PLC_L_D1S1,NHG,60.0200965631,
stim/posf.jpg,stim/negf.jpg,stim/5.jpg,stim/4.jpg,stim/latef.jpg,EF,2,4,,,,,,,,,0,45,45,51,,,,,,,,,,4,1,0.766415022443,,,,,,2015_Nov_25_1536,P11,PLC_L_D1S1,NHG,60.0200965631,
stim/posf.jpg,stim/negf.jpg,stim/2.jpg,stim/1.jpg,stim/latef.jpg,CD,2,4,,,,,,,,,0,46,46,32,,,,,,,,,,4,1,0.633122953963,,,,,,2015_Nov_25_1536,P11,PLC_L_D1S1,NHG,60.0200965631,
stim/negf.jpg,stim/posf.jpg,stim/5.jpg,stim/4.jpg,stim/latef.jpg,EF,2,4,,,,,,,,,0,47,47,58,,,,,,,,,,4,1,0.383216772807,,,,,,2015_Nov_25_1536,P11,PLC_L_D1S1,NHG,60.0200965631,
stim/posf.jpg,stim/negf.jpg,stim/3.jpg,stim/6.jpg,stim/latef.jpg,AB,1,2,,,,,,,,,0,48,48,0,,,,,,,,,,2,1,0.799757439419,,,,,,2015_Nov_25_1536,P11,PLC_L_D1S1,NHG,60.0200965631,
stim/posf.jpg,stim/negf.jpg,stim/6.jpg,stim/3.jpg,stim/latef.jpg,AB,2,4,,,,,,,,,0,49,49,15,,,,,,,,,,4,1,0.766437350096,,,,,,2015_Nov_25_1536,P11,PLC_L_D1S1,NHG,60.0200965631,
stim/posf.jpg,stim/negf.jpg,stim/6.jpg,stim/3.jpg,stim/latef.jpg,AB,2,4,,,,,,,,,0,50,50,17,,,,,,,,,,4,1,0.783084656507,,,,,,2015_Nov_25_1536,P11,PLC_L_D1S1,NHG,60.0200965631,
stim/posf.jpg,stim/negf.jpg,stim/4.jpg,stim/5.jpg,stim/latef.jpg,EF,1,2,,,,,,,,,0,51,51,42,,,,,,,,,,2,1,0.849726420101,,,,,,2015_Nov_25_1536,P11,PLC_L_D1S1,NHG,60.0200965631,
stim/posf.jpg,stim/negf.jpg,stim/4.jpg,stim/5.jpg,stim/latef.jpg,EF,1,2,,,,,,,,,0,52,52,45,,,,,,,,,,2,1,0.816397224082,,,,,,2015_Nov_25_1536,P11,PLC_L_D1S1,NHG,60.0200965631,
stim/negf.jpg,stim/posf.jpg,stim/1.jpg,stim/2.jpg,stim/latef.jpg,CD,1,2,,,,,,,,,0,53,53,29,,,,,,,,,,2,1,0.966365290487,,,,,,2015_Nov_25_1536,P11,PLC_L_D1S1,NHG,60.0200965631,
stim/posf.jpg,stim/negf.jpg,stim/1.jpg,stim/2.jpg,stim/latef.jpg,CD,1,2,,,,,,,,,0,54,54,26,,,,,,,,,,2,1,0.616460450674,,,,,,2015_Nov_25_1536,P11,PLC_L_D1S1,NHG,60.0200965631,
stim/negf.jpg,stim/posf.jpg,stim/1.jpg,stim/2.jpg,stim/latef.jpg,CD,1,2,,,,,,,,,0,55,55,28,,,,,,,,,,2,1,0.599785523416,,,,,,2015_Nov_25_1536,P11,PLC_L_D1S1,NHG,60.0200965631,
stim/posf.jpg,stim/negf.jpg,stim/2.jpg,stim/1.jpg,stim/latef.jpg,CD,2,4,,,,,,,,,0,56,56,36,,,,,,,,,,4,1,0.76639735641,,,,,,2015_Nov_25_1536,P11,PLC_L_D1S1,NHG,60.0200965631,
stim/posf.jpg,stim/negf.jpg,stim/1.jpg,stim/2.jpg,stim/latef.jpg,CD,1,2,,,,,,,,,0,57,57,21,,,,,,,,,,2,1,0.966338081669,,,,,,2015_Nov_25_1536,P11,PLC_L_D1S1,NHG,60.0200965631,
stim/negf.jpg,stim/posf.jpg,stim/6.jpg,stim/3.jpg,stim/latef.jpg,AB,2,4,,,,,,,,,0,58,58,19,,,,,,,,,,4,1,0.933045249285,,,,,,2015_Nov_25_1536,P11,PLC_L_D1S1,NHG,60.0200965631,
stim/negf.jpg,stim/posf.jpg,stim/4.jpg,stim/5.jpg,stim/latef.jpg,EF,1,2,,,,,,,,,0,59,59,46,,,,,,,,,,2,1,0.699757313103,,,,,,2015_Nov_25_1536,P11,PLC_L_D1S1,NHG,60.0200965631,
,,,,,,,,,,,,,,,,,,,,,,,,,,,,,,,,0.9984375,1.0,1,0,0,2015_Nov_25_1536,P11,PLC_L_D1S1,NHG,60.0200965631,
stim/posf.jpg,stim/negf.jpg,stim/3.jpg,stim/6.jpg,stim/latef.jpg,AB,1,2,,,,,,,,,,,,,0,0,0,4,,,,,,2,1,0.783124478765,,,,,,2015_Nov_25_1536,P11,PLC_L_D1S1,NHG,60.0200965631,
stim/negf.jpg,stim/posf.jpg,stim/6.jpg,stim/3.jpg,stim/latef.jpg,AB,2,4,,,,,,,,,,,,,0,1,1,18,,,,,,4,1,0.766428706551,,,,,,2015_Nov_25_1536,P11,PLC_L_D1S1,NHG,60.0200965631,
stim/posf.jpg,stim/negf.jpg,stim/1.jpg,stim/2.jpg,stim/latef.jpg,CD,1,2,,,,,,,,,,,,,0,2,2,22,,,,,,2,1,0.68317309494,,,,,,2015_Nov_25_1536,P11,PLC_L_D1S1,NHG,60.0200965631,
stim/posf.jpg,stim/negf.jpg,stim/1.jpg,stim/2.jpg,stim/latef.jpg,CD,1,2,,,,,,,,,,,,,0,3,3,21,,,,,,2,1,0.633185988076,,,,,,2015_Nov_25_1536,P11,PLC_L_D1S1,NHG,60.0200965631,
stim/posf.jpg,stim/negf.jpg,stim/4.jpg,stim/5.jpg,stim/latef.jpg,EF,1,2,,,,,,,,,,,,,0,4,4,42,,,,,,2,1,0.783102752612,,,,,,2015_Nov_25_1536,P11,PLC_L_D1S1,NHG,60.0200965631,
stim/posf.jpg,stim/negf.jpg,stim/1.jpg,stim/2.jpg,stim/latef.jpg,CD,1,2,,,,,,,,,,,,,0,5,5,24,,,,,,2,1,0.583151687581,,,,,,2015_Nov_25_1536,P11,PLC_L_D1S1,NHG,60.0200965631,
stim/posf.jpg,stim/negf.jpg,stim/1.jpg,stim/2.jpg,stim/latef.jpg,CD,1,2,,,,,,,,,,,,,0,6,6,26,,,,,,2,1,0.633114406657,,,,,,2015_Nov_25_1536,P11,PLC_L_D1S1,NHG,60.0200965631,
stim/posf.jpg,stim/negf.jpg,stim/6.jpg,stim/3.jpg,stim/latef.jpg,AB,2,4,,,,,,,,,,,,,0,7,7,16,,,,,,4,1,0.783071591944,,,,,,2015_Nov_25_1536,P11,PLC_L_D1S1,NHG,60.0200965631,
stim/posf.jpg,stim/negf.jpg,stim/3.jpg,stim/6.jpg,stim/latef.jpg,AB,1,2,,,,,,,,,,,,,0,8,8,6,,,,,,2,1,0.649752107129,,,,,,2015_Nov_25_1536,P11,PLC_L_D1S1,NHG,60.0200965631,
stim/posf.jpg,stim/negf.jpg,stim/5.jpg,stim/4.jpg,stim/latef.jpg,EF,2,4,,,,,,,,,,,,,0,9,9,50,,,,,,4,1,0.766400806009,,,,,,2015_Nov_25_1536,P11,PLC_L_D1S1,NHG,60.0200965631,
stim/posf.jpg,stim/negf.jpg,stim/3.jpg,stim/6.jpg,stim/latef.jpg,AB,1,2,,,,,,,,,,,,,0,10,10,7,,,,,,2,1,0.583122196074,,,,,,2015_Nov_25_1536,P11,PLC_L_D1S1,NHG,60.0200965631,
stim/posf.jpg,stim/negf.jpg,stim/3.jpg,stim/6.jpg,stim/latef.jpg,AB,1,2,,,,,,,,,,,,,0,11,11,3,,,,,,2,1,0.783067390472,,,,,,2015_Nov_25_1536,P11,PLC_L_D1S1,NHG,60.0200965631,
stim/negf.jpg,stim/posf.jpg,stim/1.jpg,stim/2.jpg,stim/latef.jpg,CD,1,2,,,,,,,,,,,,,0,12,12,27,,,,,,2,1,0.783091618861,,,,,,2015_Nov_25_1536,P11,PLC_L_D1S1,NHG,60.0200965631,
stim/posf.jpg,stim/negf.jpg,stim/3.jpg,stim/6.jpg,stim/latef.jpg,AB,1,2,,,,,,,,,,,,,0,13,13,0,,,,,,2,1,0.683119591582,,,,,,2015_Nov_25_1536,P11,PLC_L_D1S1,NHG,60.0200965631,
stim/negf.jpg,stim/posf.jpg,stim/5.jpg,stim/4.jpg,stim/latef.jpg,EF,2,4,,,,,,,,,,,,,0,14,14,56,,,,,,4,1,0.733086479049,,,,,,2015_Nov_25_1536,P11,PLC_L_D1S1,NHG,60.0200965631,
stim/posf.jpg,stim/negf.jpg,stim/3.jpg,stim/6.jpg,stim/latef.jpg,AB,1,2,,,,,,,,,,,,,0,15,15,5,,,,,,2,1,0.599781992616,,,,,,2015_Nov_25_1536,P11,PLC_L_D1S1,NHG,60.0200965631,
stim/posf.jpg,stim/negf.jpg,stim/6.jpg,stim/3.jpg,stim/latef.jpg,AB,2,4,,,,,,,,,,,,,0,16,16,14,,,,,,4,1,0.882953535687,,,,,,2015_Nov_25_1536,P11,PLC_L_D1S1,NHG,60.0200965631,
stim/posf.jpg,stim/negf.jpg,stim/6.jpg,stim/3.jpg,stim/latef.jpg,AB,2,4,,,,,,,,,,,,,0,17,17,13,,,,,,4,1,0.883046560552,,,,,,2015_Nov_25_1536,P11,PLC_L_D1S1,NHG,60.0200965631,
stim/posf.jpg,stim/negf.jpg,stim/6.jpg,stim/3.jpg,stim/latef.jpg,AB,2,4,,,,,,,,,,,,,0,18,18,12,,,,,,4,1,0.949682549755,,,,,,2015_Nov_25_1536,P11,PLC_L_D1S1,NHG,60.0200965631,
stim/posf.jpg,stim/negf.jpg,stim/1.jpg,stim/2.jpg,stim/latef.jpg,CD,1,2,,,,,,,,,,,,,0,19,19,25,,,,,,2,1,0.683107531524,,,,,,2015_Nov_25_1536,P11,PLC_L_D1S1,NHG,60.0200965631,
stim/negf.jpg,stim/posf.jpg,stim/4.jpg,stim/5.jpg,stim/latef.jpg,EF,1,2,,,,,,,,,,,,,0,20,20,47,,,,,,2,1,0.799741259088,,,,,,2015_Nov_25_1536,P11,PLC_L_D1S1,NHG,60.0200965631,
stim/posf.jpg,stim/negf.jpg,stim/2.jpg,stim/1.jpg,stim/latef.jpg,CD,2,4,,,,,,,,,,,,,0,21,21,35,,,,,,4,1,0.982933186968,,,,,,2015_Nov_25_1536,P11,PLC_L_D1S1,NHG,60.0200965631,
stim/negf.jpg,stim/posf.jpg,stim/4.jpg,stim/5.jpg,stim/latef.jpg,EF,1,2,,,,,,,,,,,,,0,22,22,46,,,,,,2,1,1.2329255389,,,,,,2015_Nov_25_1536,P11,PLC_L_D1S1,NHG,60.0200965631,
stim/posf.jpg,stim/negf.jpg,stim/1.jpg,stim/2.jpg,stim/latef.jpg,CD,1,2,,,,,,,,,,,,,0,23,23,20,,,,,,2,1,1.03296745137,,,,,,2015_Nov_25_1536,P11,PLC_L_D1S1,NHG,60.0200965631,
stim/negf.jpg,stim/posf.jpg,stim/1.jpg,stim/2.jpg,stim/latef.jpg,CD,1,2,,,,,,,,,,,,,0,24,24,28,,,,,,2,1,0.799734687709,,,,,,2015_Nov_25_1536,P11,PLC_L_D1S1,NHG,60.0200965631,
stim/negf.jpg,stim/posf.jpg,stim/2.jpg,stim/1.jpg,stim/latef.jpg,CD,2,4,,,,,,,,,,,,,0,25,25,38,,,,,,4,1,0.833055682288,,,,,,2015_Nov_25_1536,P11,PLC_L_D1S1,NHG,60.0200965631,
stim/posf.jpg,stim/negf.jpg,stim/2.jpg,stim/1.jpg,stim/latef.jpg,CD,2,4,,,,,,,,,,,,,0,26,26,34,,,,,,4,1,0.933115708905,,,,,,2015_Nov_25_1536,P11,PLC_L_D1S1,NHG,60.0200965631,
stim/posf.jpg,stim/negf.jpg,stim/6.jpg,stim/3.jpg,stim/latef.jpg,AB,2,4,,,,,,,,,,,,,0,27,27,17,,,,,,4,1,0.899689539177,,,,,,2015_Nov_25_1536,P11,PLC_L_D1S1,NHG,60.0200965631,
stim/negf.jpg,stim/posf.jpg,stim/4.jpg,stim/5.jpg,stim/latef.jpg,EF,1,2,,,,,,,,,,,,,0,28,28,49,,,,,,2,1,0.683102262388,,,,,,2015_Nov_25_1536,P11,PLC_L_D1S1,NHG,60.0200965631,
stim/posf.jpg,stim/negf.jpg,stim/4.jpg,stim/5.jpg,stim/latef.jpg,EF,1,2,,,,,,,,,,,,,0,29,29,40,,,,,,2,1,1.23295873565,,,,,,2015_Nov_25_1536,P11,PLC_L_D1S1,NHG,60.0200965631,
stim/posf.jpg,stim/negf.jpg,stim/4.jpg,stim/5.jpg,stim/latef.jpg,EF,1,2,,,,,,,,,,,,,0,30,30,45,,,,,,2,1,1.03298809483,,,,,,2015_Nov_25_1536,P11,PLC_L_D1S1,NHG,60.0200965631,
stim/posf.jpg,stim/negf.jpg,stim/3.jpg,stim/6.jpg,stim/latef.jpg,AB,1,2,,,,,,,,,,,,,0,31,31,1,,,,,,2,1,0.799718982564,,,,,,2015_Nov_25_1536,P11,PLC_L_D1S1,NHG,60.0200965631,
stim/posf.jpg,stim/negf.jpg,stim/2.jpg,stim/1.jpg,stim/latef.jpg,CD,2,4,,,,,,,,,,,,,0,32,32,36,,,,,,4,1,0.766411858558,,,,,,2015_Nov_25_1536,P11,PLC_L_D1S1,NHG,60.0200965631,
stim/posf.jpg,stim/negf.jpg,stim/4.jpg,stim/5.jpg,stim/latef.jpg,EF,1,2,,,,,,,,,,,,,0,33,33,44,,,,,,2,1,0.566469734813,,,,,,2015_Nov_25_1536,P11,PLC_L_D1S1,NHG,60.0200965631,
stim/posf.jpg,stim/negf.jpg,stim/5.jpg,stim/4.jpg,stim/latef.jpg,EF,2,4,,,,,,,,,,,,,0,34,34,51,,,,,,4,1,0.733089952708,,,,,,2015_Nov_25_1536,P11,PLC_L_D1S1,NHG,60.0200965631,
stim/posf.jpg,stim/negf.jpg,stim/6.jpg,stim/3.jpg,stim/latef.jpg,AB,2,4,,,,,,,,,,,,,0,35,35,11,,,,,,4,1,0.883030909541,,,,,,2015_Nov_25_1536,P11,PLC_L_D1S1,NHG,60.0200965631,
stim/posf.jpg,stim/negf.jpg,stim/2.jpg,stim/1.jpg,stim/latef.jpg,CD,2,4,,,,,,,,,,,,,0,36,36,33,,,,,,4,1,0.949689334668,,,,,,2015_Nov_25_1536,P11,PLC_L_D1S1,NHG,60.0200965631,
stim/posf.jpg,stim/negf.jpg,stim/4.jpg,stim/5.jpg,stim/latef.jpg,EF,1,2,,,,,,,,,,,,,0,37,37,41,,,,,,2,1,0.933030244885,,,,,,2015_Nov_25_1536,P11,PLC_L_D1S1,NHG,60.0200965631,
stim/negf.jpg,stim/posf.jpg,stim/2.jpg,stim/1.jpg,stim/latef.jpg,CD,2,4,,,,,,,,,,,,,0,38,38,39,,,,,,4,1,0.783080981346,,,,,,2015_Nov_25_1536,P11,PLC_L_D1S1,NHG,60.0200965631,
stim/negf.jpg,stim/posf.jpg,stim/6.jpg,stim/3.jpg,stim/latef.jpg,AB,2,4,,,,,,,,,,,,,0,39,39,19,,,,,,4,1,1.04972454042,,,,,,2015_Nov_25_1536,P11,PLC_L_D1S1,NHG,60.0200965631,
stim/posf.jpg,stim/negf.jpg,stim/5.jpg,stim/4.jpg,stim/latef.jpg,EF,2,4,,,,,,,,,,,,,0,40,40,55,,,,,,4,1,0.699804867632,,,,,,2015_Nov_25_1536,P11,PLC_L_D1S1,NHG,60.0200965631,
stim/posf.jpg,stim/negf.jpg,stim/1.jpg,stim/2.jpg,stim/latef.jpg,CD,1,2,,,,,,,,,,,,,0,41,41,23,,,,,,2,1,0.616477746784,,,,,,2015_Nov_25_1536,P11,PLC_L_D1S1,NHG,60.0200965631,
stim/posf.jpg,stim/negf.jpg,stim/5.jpg,stim/4.jpg,stim/latef.jpg,EF,2,4,,,,,,,,,,,,,0,42,42,53,,,,,,4,1,0.583141050067,,,,,,2015_Nov_25_1536,P11,PLC_L_D1S1,NHG,60.0200965631,
stim/negf.jpg,stim/posf.jpg,stim/1.jpg,stim/2.jpg,stim/latef.jpg,CD,1,2,,,,,,,,,,,,,0,43,43,29,,,,,,2,1,0.766423001332,,,,,,2015_Nov_25_1536,P11,PLC_L_D1S1,NHG,60.0200965631,
stim/posf.jpg,stim/negf.jpg,stim/5.jpg,stim/4.jpg,stim/latef.jpg,EF,2,4,,,,,,,,,,,,,0,44,44,52,,,,,,4,1,0.64976025744,,,,,,2015_Nov_25_1536,P11,PLC_L_D1S1,NHG,60.0200965631,
stim/posf.jpg,stim/negf.jpg,stim/2.jpg,stim/1.jpg,stim/latef.jpg,CD,2,4,,,,,,,,,,,,,0,45,45,30,,,,,,4,1,0.783063291254,,,,,,2015_Nov_25_1536,P11,PLC_L_D1S1,NHG,60.0200965631,
stim/negf.jpg,stim/posf.jpg,stim/5.jpg,stim/4.jpg,stim/latef.jpg,EF,2,4,,,,,,,,,,,,,0,46,46,57,,,,,,4,1,0.683096229352,,,,,,2015_Nov_25_1536,P11,PLC_L_D1S1,NHG,60.0200965631,
stim/negf.jpg,stim/posf.jpg,stim/3.jpg,stim/6.jpg,stim/latef.jpg,AB,1,2,,,,,,,,,,,,,0,47,47,8,,,,,,2,1,0.666455882287,,,,,,2015_Nov_25_1536,P11,PLC_L_D1S1,NHG,60.0200965631,
stim/posf.jpg,stim/negf.jpg,stim/2.jpg,stim/1.jpg,stim/latef.jpg,CD,2,4,,,,,,,,,,,,,0,48,48,32,,,,,,4,1,0.916402932309,,,,,,2015_Nov_25_1536,P11,PLC_L_D1S1,NHG,60.0200965631,
stim/posf.jpg,stim/negf.jpg,stim/5.jpg,stim/4.jpg,stim/latef.jpg,EF,2,4,,,,,,,,,,,,,0,49,49,54,,,,,,4,1,1.16629770904,,,,,,2015_Nov_25_1536,P11,PLC_L_D1S1,NHG,60.0200965631,
stim/posf.jpg,stim/negf.jpg,stim/6.jpg,stim/3.jpg,stim/latef.jpg,AB,2,4,,,,,,,,,,,,,0,50,50,15,,,,,,4,1,0.866387145961,,,,,,2015_Nov_25_1536,P11,PLC_L_D1S1,NHG,60.0200965631,
stim/posf.jpg,stim/negf.jpg,stim/6.jpg,stim/3.jpg,stim/latef.jpg,AB,2,4,,,,,,,,,,,,,0,51,51,10,,,,,,4,1,0.88296661228,,,,,,2015_Nov_25_1536,P11,PLC_L_D1S1,NHG,60.0200965631,
stim/posf.jpg,stim/negf.jpg,stim/4.jpg,stim/5.jpg,stim/latef.jpg,EF,1,2,,,,,,,,,,,,,0,52,52,43,,,,,,2,1,1.19960449921,,,,,,2015_Nov_25_1536,P11,PLC_L_D1S1,NHG,60.0200965631,
stim/negf.jpg,stim/posf.jpg,stim/4.jpg,stim/5.jpg,stim/latef.jpg,EF,1,2,,,,,,,,,,,,,0,53,53,48,,,,,,2,1,0.666373067872,,,,,,2015_Nov_25_1536,P11,PLC_L_D1S1,NHG,60.0200965631,
stim/negf.jpg,stim/posf.jpg,stim/3.jpg,stim/6.jpg,stim/latef.jpg,AB,1,2,,,,,,,,,,,,,0,54,54,9,,,,,,2,1,0.833048452268,,,,,,2015_Nov_25_1536,P11,PLC_L_D1S1,NHG,60.0200965631,
stim/posf.jpg,stim/negf.jpg,stim/2.jpg,stim/1.jpg,stim/latef.jpg,CD,2,4,,,,,,,,,,,,,0,55,55,31,,,,,,4,1,0.866409945789,,,,,,2015_Nov_25_1536,P11,PLC_L_D1S1,NHG,60.0200965631,
stim/negf.jpg,stim/posf.jpg,stim/5.jpg,stim/4.jpg,stim/latef.jpg,EF,2,4,,,,,,,,,,,,,0,56,56,58,,,,,,4,1,0.666450664281,,,,,,2015_Nov_25_1536,P11,PLC_L_D1S1,NHG,60.0200965631,
stim/negf.jpg,stim/posf.jpg,stim/2.jpg,stim/1.jpg,stim/latef.jpg,CD,2,4,,,,,,,,,,,,,0,57,57,37,,,,,,4,1,0.883056334915,,,,,,2015_Nov_25_1536,P11,PLC_L_D1S1,NHG,60.0200965631,
stim/posf.jpg,stim/negf.jpg,stim/3.jpg,stim/6.jpg,stim/latef.jpg,AB,1,2,,,,,,,,,,,,,0,58,58,2,,,,,,2,1,0.816361278487,,,,,,2015_Nov_25_1536,P11,PLC_L_D1S1,NHG,60.0200965631,
stim/negf.jpg,stim/posf.jpg,stim/5.jpg,stim/4.jpg,stim/latef.jpg,EF,2,4,,,,,,,,,,,,,0,59,59,59,,,,,,4,1,0.666441419238,,,,,,2015_Nov_25_1536,P11,PLC_L_D1S1,NHG,60.0200965631,
