fb_corr,fb_incorr,symbol2,symbol1,fb_late,pair,position,correct,block_01.thisRepN,block_01.thisTrialN,block_01.thisN,block_01.thisIndex,block_02.thisRepN,block_02.thisTrialN,block_02.thisN,block_02.thisIndex,block_03.thisRepN,block_03.thisTrialN,block_03.thisN,block_03.thisIndex,block_04.thisRepN,block_04.thisTrialN,block_04.thisN,block_04.thisIndex,mouse.x,mouse.y,mouse.leftButton,mouse.midButton,mouse.rightButton,buttonBox_2.keys,buttonBox_2.corr,buttonBox_2.rt,mouse_2.x,mouse_2.y,mouse_2.leftButton,mouse_2.midButton,mouse_2.rightButton,date,Participant,expName,Group,frameRate,
,,,,,,,,,,,,,,,,,,,,,,,,0.9921875,1.0,1,0,0,,,,,,,,,2015_Dez_01_1429,P12,PLC_L_D1S1,NHG,60.0214219,
stim/negf.jpg,stim/posf.jpg,stim/2.jpg,stim/5.jpg,stim/latef.jpg,AB,2,4,0,0,0,18,,,,,,,,,,,,,,,,,,4,1,0.89977267324,,,,,,2015_Dez_01_1429,P12,PLC_L_D1S1,NHG,60.0214219,
stim/posf.jpg,stim/negf.jpg,stim/5.jpg,stim/2.jpg,stim/latef.jpg,AB,1,2,0,1,1,4,,,,,,,,,,,,,,,,,,2,1,0.799727395555,,,,,,2015_Dez_01_1429,P12,PLC_L_D1S1,NHG,60.0214219,
stim/posf.jpg,stim/negf.jpg,stim/4.jpg,stim/1.jpg,stim/latef.jpg,CD,1,2,0,2,2,20,,,,,,,,,,,,,,,,,,4,0,0.999671260851,,,,,,2015_Dez_01_1429,P12,PLC_L_D1S1,NHG,60.0214219,
stim/negf.jpg,stim/posf.jpg,stim/1.jpg,stim/4.jpg,stim/latef.jpg,CD,2,4,0,3,3,38,,,,,,,,,,,,,,,,,,2,0,0.982987430969,,,,,,2015_Dez_01_1429,P12,PLC_L_D1S1,NHG,60.0214219,
stim/negf.jpg,stim/posf.jpg,stim/1.jpg,stim/4.jpg,stim/latef.jpg,CD,2,4,0,4,4,37,,,,,,,,,,,,,,,,,,4,1,0.866343486351,,,,,,2015_Dez_01_1429,P12,PLC_L_D1S1,NHG,60.0214219,
stim/posf.jpg,stim/negf.jpg,stim/6.jpg,stim/3.jpg,stim/latef.jpg,EF,2,4,0,5,5,51,,,,,,,,,,,,,,,,,,2,0,1.13295459074,,,,,,2015_Dez_01_1429,P12,PLC_L_D1S1,NHG,60.0214219,
stim/posf.jpg,stim/negf.jpg,stim/1.jpg,stim/4.jpg,stim/latef.jpg,CD,2,4,0,6,6,36,,,,,,,,,,,,,,,,,,4,1,0.816402536813,,,,,,2015_Dez_01_1429,P12,PLC_L_D1S1,NHG,60.0214219,
stim/posf.jpg,stim/negf.jpg,stim/3.jpg,stim/6.jpg,stim/latef.jpg,EF,1,2,0,7,7,45,,,,,,,,,,,,,,,,,,2,1,1.04966288049,,,,,,2015_Dez_01_1429,P12,PLC_L_D1S1,NHG,60.0214219,
stim/posf.jpg,stim/negf.jpg,stim/2.jpg,stim/5.jpg,stim/latef.jpg,AB,2,4,0,8,8,14,,,,,,,,,,,,,,,,,,4,1,0.799728577497,,,,,,2015_Dez_01_1429,P12,PLC_L_D1S1,NHG,60.0214219,
stim/posf.jpg,stim/negf.jpg,stim/4.jpg,stim/1.jpg,stim/latef.jpg,CD,1,2,0,9,9,25,,,,,,,,,,,,,,,,,,2,1,0.749739402939,,,,,,2015_Dez_01_1429,P12,PLC_L_D1S1,NHG,60.0214219,
stim/posf.jpg,stim/negf.jpg,stim/5.jpg,stim/2.jpg,stim/latef.jpg,AB,1,2,0,10,10,0,,,,,,,,,,,,,,,,,,2,1,0.749801396224,,,,,,2015_Dez_01_1429,P12,PLC_L_D1S1,NHG,60.0214219,
stim/posf.jpg,stim/negf.jpg,stim/2.jpg,stim/5.jpg,stim/latef.jpg,AB,2,4,0,11,11,17,,,,,,,,,,,,,,,,,,4,1,0.833072129261,,,,,,2015_Dez_01_1429,P12,PLC_L_D1S1,NHG,60.0214219,
stim/posf.jpg,stim/negf.jpg,stim/3.jpg,stim/6.jpg,stim/latef.jpg,EF,1,2,0,12,12,40,,,,,,,,,,,,,,,,,,2,1,0.69982093435,,,,,,2015_Dez_01_1429,P12,PLC_L_D1S1,NHG,60.0214219,
stim/posf.jpg,stim/negf.jpg,stim/2.jpg,stim/5.jpg,stim/latef.jpg,AB,2,4,0,13,13,13,,,,,,,,,,,,,,,,,,4,1,0.599811334459,,,,,,2015_Dez_01_1429,P12,PLC_L_D1S1,NHG,60.0214219,
stim/posf.jpg,stim/negf.jpg,stim/6.jpg,stim/3.jpg,stim/latef.jpg,EF,2,4,0,14,14,53,,,,,,,,,,,,,,,,,,4,1,0.683094049316,,,,,,2015_Dez_01_1429,P12,PLC_L_D1S1,NHG,60.0214219,
stim/negf.jpg,stim/posf.jpg,stim/5.jpg,stim/2.jpg,stim/latef.jpg,AB,1,2,0,15,15,9,,,,,,,,,,,,,,,,,,2,1,0.649780391951,,,,,,2015_Dez_01_1429,P12,PLC_L_D1S1,NHG,60.0214219,
stim/posf.jpg,stim/negf.jpg,stim/1.jpg,stim/4.jpg,stim/latef.jpg,CD,2,4,0,16,16,33,,,,,,,,,,,,,,,,,,4,1,0.849659063995,,,,,,2015_Dez_01_1429,P12,PLC_L_D1S1,NHG,60.0214219,
stim/posf.jpg,stim/negf.jpg,stim/4.jpg,stim/1.jpg,stim/latef.jpg,CD,1,2,0,17,17,22,,,,,,,,,,,,,,,,,,2,1,0.699750784765,,,,,,2015_Dez_01_1429,P12,PLC_L_D1S1,NHG,60.0214219,
stim/posf.jpg,stim/negf.jpg,stim/2.jpg,stim/5.jpg,stim/latef.jpg,AB,2,4,0,18,18,16,,,,,,,,,,,,,,,,,,4,1,0.516510120562,,,,,,2015_Dez_01_1429,P12,PLC_L_D1S1,NHG,60.0214219,
stim/negf.jpg,stim/posf.jpg,stim/4.jpg,stim/1.jpg,stim/latef.jpg,CD,1,2,0,19,19,28,,,,,,,,,,,,,,,,,,2,1,0.566459470006,,,,,,2015_Dez_01_1429,P12,PLC_L_D1S1,NHG,60.0214219,
stim/posf.jpg,stim/negf.jpg,stim/4.jpg,stim/1.jpg,stim/latef.jpg,CD,1,2,0,20,20,24,,,,,,,,,,,,,,,,,,2,1,0.616455026448,,,,,,2015_Dez_01_1429,P12,PLC_L_D1S1,NHG,60.0214219,
stim/posf.jpg,stim/negf.jpg,stim/3.jpg,stim/6.jpg,stim/latef.jpg,EF,1,2,0,21,21,43,,,,,,,,,,,,,,,,,,2,1,0.649794584271,,,,,,2015_Dez_01_1429,P12,PLC_L_D1S1,NHG,60.0214219,
stim/negf.jpg,stim/posf.jpg,stim/5.jpg,stim/2.jpg,stim/latef.jpg,AB,1,2,0,22,22,8,,,,,,,,,,,,,,,,,,2,1,0.583133730071,,,,,,2015_Dez_01_1429,P12,PLC_L_D1S1,NHG,60.0214219,
stim/posf.jpg,stim/negf.jpg,stim/5.jpg,stim/2.jpg,stim/latef.jpg,AB,1,2,0,23,23,7,,,,,,,,,,,,,,,,,,2,1,0.566417022364,,,,,,2015_Dez_01_1429,P12,PLC_L_D1S1,NHG,60.0214219,
stim/posf.jpg,stim/negf.jpg,stim/2.jpg,stim/5.jpg,stim/latef.jpg,AB,2,4,0,24,24,12,,,,,,,,,,,,,,,,,,4,1,0.98298510919,,,,,,2015_Dez_01_1429,P12,PLC_L_D1S1,NHG,60.0214219,
stim/negf.jpg,stim/posf.jpg,stim/6.jpg,stim/3.jpg,stim/latef.jpg,EF,2,4,0,25,25,56,,,,,,,,,,,,,,,,,,4,1,0.799750050939,,,,,,2015_Dez_01_1429,P12,PLC_L_D1S1,NHG,60.0214219,
stim/posf.jpg,stim/negf.jpg,stim/6.jpg,stim/3.jpg,stim/latef.jpg,EF,2,4,0,26,26,54,,,,,,,,,,,,,,,,,,2,0,0.949705743168,,,,,,2015_Dez_01_1429,P12,PLC_L_D1S1,NHG,60.0214219,
stim/posf.jpg,stim/negf.jpg,stim/2.jpg,stim/5.jpg,stim/latef.jpg,AB,2,4,0,27,27,15,,,,,,,,,,,,,,,,,,4,1,1.06630092743,,,,,,2015_Dez_01_1429,P12,PLC_L_D1S1,NHG,60.0214219,
stim/posf.jpg,stim/negf.jpg,stim/5.jpg,stim/2.jpg,stim/latef.jpg,AB,1,2,0,28,28,6,,,,,,,,,,,,,,,,,,2,1,0.783082620873,,,,,,2015_Dez_01_1429,P12,PLC_L_D1S1,NHG,60.0214219,
stim/posf.jpg,stim/negf.jpg,stim/6.jpg,stim/3.jpg,stim/latef.jpg,EF,2,4,0,29,29,55,,,,,,,,,,,,,,,,,,4,1,0.63313820972,,,,,,2015_Dez_01_1429,P12,PLC_L_D1S1,NHG,60.0214219,
stim/posf.jpg,stim/negf.jpg,stim/4.jpg,stim/1.jpg,stim/latef.jpg,CD,1,2,0,30,30,21,,,,,,,,,,,,,,,,,,2,1,0.64973656688,,,,,,2015_Dez_01_1429,P12,PLC_L_D1S1,NHG,60.0214219,
stim/negf.jpg,stim/posf.jpg,stim/2.jpg,stim/5.jpg,stim/latef.jpg,AB,2,4,0,31,31,19,,,,,,,,,,,,,,,,,,4,1,0.549807278865,,,,,,2015_Dez_01_1429,P12,PLC_L_D1S1,NHG,60.0214219,
stim/posf.jpg,stim/negf.jpg,stim/6.jpg,stim/3.jpg,stim/latef.jpg,EF,2,4,0,32,32,52,,,,,,,,,,,,,,,,,,4,1,0.866387323452,,,,,,2015_Dez_01_1429,P12,PLC_L_D1S1,NHG,60.0214219,
stim/posf.jpg,stim/negf.jpg,stim/5.jpg,stim/2.jpg,stim/latef.jpg,AB,1,2,0,33,33,1,,,,,,,,,,,,,,,,,,2,1,0.883049758086,,,,,,2015_Dez_01_1429,P12,PLC_L_D1S1,NHG,60.0214219,
stim/posf.jpg,stim/negf.jpg,stim/4.jpg,stim/1.jpg,stim/latef.jpg,CD,1,2,0,34,34,26,,,,,,,,,,,,,,,,,,2,1,0.749741917196,,,,,,2015_Dez_01_1429,P12,PLC_L_D1S1,NHG,60.0214219,
stim/negf.jpg,stim/posf.jpg,stim/3.jpg,stim/6.jpg,stim/latef.jpg,EF,1,2,0,35,35,49,,,,,,,,,,,,,,,,,,2,1,0.716488905765,,,,,,2015_Dez_01_1429,P12,PLC_L_D1S1,NHG,60.0214219,
stim/posf.jpg,stim/negf.jpg,stim/6.jpg,stim/3.jpg,stim/latef.jpg,EF,2,4,0,36,36,50,,,,,,,,,,,,,,,,,,4,1,1.11619373015,,,,,,2015_Dez_01_1429,P12,PLC_L_D1S1,NHG,60.0214219,
stim/posf.jpg,stim/negf.jpg,stim/4.jpg,stim/1.jpg,stim/latef.jpg,CD,1,2,0,37,37,23,,,,,,,,,,,,,,,,,,2,1,0.716361947798,,,,,,2015_Dez_01_1429,P12,PLC_L_D1S1,NHG,60.0214219,
stim/posf.jpg,stim/negf.jpg,stim/3.jpg,stim/6.jpg,stim/latef.jpg,EF,1,2,0,38,38,44,,,,,,,,,,,,,,,,,,2,1,1.0329963617,,,,,,2015_Dez_01_1429,P12,PLC_L_D1S1,NHG,60.0214219,
stim/posf.jpg,stim/negf.jpg,stim/3.jpg,stim/6.jpg,stim/latef.jpg,EF,1,2,0,39,39,42,,,,,,,,,,,,,,,,,,2,1,0.94967153002,,,,,,2015_Dez_01_1429,P12,PLC_L_D1S1,NHG,60.0214219,
stim/negf.jpg,stim/posf.jpg,stim/3.jpg,stim/6.jpg,stim/latef.jpg,EF,1,2,0,40,40,48,,,,,,,,,,,,,,,,,,2,1,0.6331170671,,,,,,2015_Dez_01_1429,P12,PLC_L_D1S1,NHG,60.0214219,
stim/posf.jpg,stim/negf.jpg,stim/1.jpg,stim/4.jpg,stim/latef.jpg,CD,2,4,0,41,41,34,,,,,,,,,,,,,,,,,,4,1,0.899692965869,,,,,,2015_Dez_01_1429,P12,PLC_L_D1S1,NHG,60.0214219,
stim/negf.jpg,stim/posf.jpg,stim/4.jpg,stim/1.jpg,stim/latef.jpg,CD,1,2,0,42,42,27,,,,,,,,,,,,,,,,,,2,1,0.616476704398,,,,,,2015_Dez_01_1429,P12,PLC_L_D1S1,NHG,60.0214219,
stim/posf.jpg,stim/negf.jpg,stim/5.jpg,stim/2.jpg,stim/latef.jpg,AB,1,2,0,43,43,5,,,,,,,,,,,,,,,,,,2,1,0.932927186536,,,,,,2015_Dez_01_1429,P12,PLC_L_D1S1,NHG,60.0214219,
stim/posf.jpg,stim/negf.jpg,stim/3.jpg,stim/6.jpg,stim/latef.jpg,EF,1,2,0,44,44,41,,,,,,,,,,,,,,,,,,2,1,0.932990716646,,,,,,2015_Dez_01_1429,P12,PLC_L_D1S1,NHG,60.0214219,
stim/posf.jpg,stim/negf.jpg,stim/1.jpg,stim/4.jpg,stim/latef.jpg,CD,2,4,0,45,45,31,,,,,,,,,,,,,,,,,,4,1,0.73305717304,,,,,,2015_Dez_01_1429,P12,PLC_L_D1S1,NHG,60.0214219,
stim/negf.jpg,stim/posf.jpg,stim/1.jpg,stim/4.jpg,stim/latef.jpg,CD,2,4,0,46,46,39,,,,,,,,,,,,,,,,,,4,1,0.933011002132,,,,,,2015_Dez_01_1429,P12,PLC_L_D1S1,NHG,60.0214219,
stim/posf.jpg,stim/negf.jpg,stim/5.jpg,stim/2.jpg,stim/latef.jpg,AB,1,2,0,47,47,2,,,,,,,,,,,,,,,,,,2,1,0.766387076837,,,,,,2015_Dez_01_1429,P12,PLC_L_D1S1,NHG,60.0214219,
stim/posf.jpg,stim/negf.jpg,stim/1.jpg,stim/4.jpg,stim/latef.jpg,CD,2,4,0,48,48,35,,,,,,,,,,,,,,,,,,4,1,1.09962258772,,,,,,2015_Dez_01_1429,P12,PLC_L_D1S1,NHG,60.0214219,
stim/negf.jpg,stim/posf.jpg,stim/3.jpg,stim/6.jpg,stim/latef.jpg,EF,1,2,0,49,49,46,,,,,,,,,,,,,,,,,,2,1,1.04965777679,,,,,,2015_Dez_01_1429,P12,PLC_L_D1S1,NHG,60.0214219,
stim/posf.jpg,stim/negf.jpg,stim/2.jpg,stim/5.jpg,stim/latef.jpg,AB,2,4,0,50,50,10,,,,,,,,,,,,,,,,,,4,1,0.86636917328,,,,,,2015_Dez_01_1429,P12,PLC_L_D1S1,NHG,60.0214219,
stim/negf.jpg,stim/posf.jpg,stim/6.jpg,stim/3.jpg,stim/latef.jpg,EF,2,4,0,51,51,58,,,,,,,,,,,,,,,,,,4,1,1.03295198024,,,,,,2015_Dez_01_1429,P12,PLC_L_D1S1,NHG,60.0214219,
stim/negf.jpg,stim/posf.jpg,stim/6.jpg,stim/3.jpg,stim/latef.jpg,EF,2,4,0,52,52,59,,,,,,,,,,,,,,,,,,2,0,1.28286040684,,,,,,2015_Dez_01_1429,P12,PLC_L_D1S1,NHG,60.0214219,
stim/negf.jpg,stim/posf.jpg,stim/4.jpg,stim/1.jpg,stim/latef.jpg,CD,1,2,0,53,53,29,,,,,,,,,,,,,,,,,,2,1,1.11629858911,,,,,,2015_Dez_01_1429,P12,PLC_L_D1S1,NHG,60.0214219,
stim/negf.jpg,stim/posf.jpg,stim/6.jpg,stim/3.jpg,stim/latef.jpg,EF,2,4,0,54,54,57,,,,,,,,,,,,,,,,,,2,0,1.0662983831,,,,,,2015_Dez_01_1429,P12,PLC_L_D1S1,NHG,60.0214219,
stim/posf.jpg,stim/negf.jpg,stim/1.jpg,stim/4.jpg,stim/latef.jpg,CD,2,4,0,55,55,32,,,,,,,,,,,,,,,,,,4,1,0.933015603583,,,,,,2015_Dez_01_1429,P12,PLC_L_D1S1,NHG,60.0214219,
stim/negf.jpg,stim/posf.jpg,stim/3.jpg,stim/6.jpg,stim/latef.jpg,EF,1,2,0,56,56,47,,,,,,,,,,,,,,,,,,4,0,0.94972569783,,,,,,2015_Dez_01_1429,P12,PLC_L_D1S1,NHG,60.0214219,
stim/posf.jpg,stim/negf.jpg,stim/5.jpg,stim/2.jpg,stim/latef.jpg,AB,1,2,0,57,57,3,,,,,,,,,,,,,,,,,,2,1,0.949653310677,,,,,,2015_Dez_01_1429,P12,PLC_L_D1S1,NHG,60.0214219,
stim/posf.jpg,stim/negf.jpg,stim/2.jpg,stim/5.jpg,stim/latef.jpg,AB,2,4,0,58,58,11,,,,,,,,,,,,,,,,,,4,1,1.04962968388,,,,,,2015_Dez_01_1429,P12,PLC_L_D1S1,NHG,60.0214219,
stim/posf.jpg,stim/negf.jpg,stim/1.jpg,stim/4.jpg,stim/latef.jpg,CD,2,4,0,59,59,30,,,,,,,,,,,,,,,,,,4,1,0.983019292264,,,,,,2015_Dez_01_1429,P12,PLC_L_D1S1,NHG,60.0214219,
,,,,,,,,,,,,,,,,,,,,,,,,,,,,,,,,0.9921875,1.0,1,0,0,2015_Dez_01_1429,P12,PLC_L_D1S1,NHG,60.0214219,
stim/negf.jpg,stim/posf.jpg,stim/1.jpg,stim/4.jpg,stim/latef.jpg,CD,2,4,,,,,0,0,0,37,,,,,,,,,,,,,,4,1,1.01633069702,,,,,,2015_Dez_01_1429,P12,PLC_L_D1S1,NHG,60.0214219,
stim/posf.jpg,stim/negf.jpg,stim/6.jpg,stim/3.jpg,stim/latef.jpg,EF,2,4,,,,,0,1,1,55,,,,,,,,,,,,,,2,0,0.949686973455,,,,,,2015_Dez_01_1429,P12,PLC_L_D1S1,NHG,60.0214219,
stim/negf.jpg,stim/posf.jpg,stim/3.jpg,stim/6.jpg,stim/latef.jpg,EF,1,2,,,,,0,2,2,47,,,,,,,,,,,,,,4,0,0.833063404549,,,,,,2015_Dez_01_1429,P12,PLC_L_D1S1,NHG,60.0214219,
stim/posf.jpg,stim/negf.jpg,stim/4.jpg,stim/1.jpg,stim/latef.jpg,CD,1,2,,,,,0,3,3,22,,,,,,,,,,,,,,2,1,1.13297400405,,,,,,2015_Dez_01_1429,P12,PLC_L_D1S1,NHG,60.0214219,
stim/posf.jpg,stim/negf.jpg,stim/3.jpg,stim/6.jpg,stim/latef.jpg,EF,1,2,,,,,0,4,4,44,,,,,,,,,,,,,,4,0,0.949677990098,,,,,,2015_Dez_01_1429,P12,PLC_L_D1S1,NHG,60.0214219,
stim/posf.jpg,stim/negf.jpg,stim/4.jpg,stim/1.jpg,stim/latef.jpg,CD,1,2,,,,,0,5,5,24,,,,,,,,,,,,,,2,1,0.966251009199,,,,,,2015_Dez_01_1429,P12,PLC_L_D1S1,NHG,60.0214219,
stim/posf.jpg,stim/negf.jpg,stim/4.jpg,stim/1.jpg,stim/latef.jpg,CD,1,2,,,,,0,6,6,20,,,,,,,,,,,,,,2,1,0.999672818727,,,,,,2015_Dez_01_1429,P12,PLC_L_D1S1,NHG,60.0214219,
stim/posf.jpg,stim/negf.jpg,stim/6.jpg,stim/3.jpg,stim/latef.jpg,EF,2,4,,,,,0,7,7,53,,,,,,,,,,,,,,2,0,1.2162726255,,,,,,2015_Dez_01_1429,P12,PLC_L_D1S1,NHG,60.0214219,
stim/posf.jpg,stim/negf.jpg,stim/2.jpg,stim/5.jpg,stim/latef.jpg,AB,2,4,,,,,0,8,8,15,,,,,,,,,,,,,,4,1,0.883059661734,,,,,,2015_Dez_01_1429,P12,PLC_L_D1S1,NHG,60.0214219,
stim/negf.jpg,stim/posf.jpg,stim/1.jpg,stim/4.jpg,stim/latef.jpg,CD,2,4,,,,,0,9,9,39,,,,,,,,,,,,,,4,1,0.783081020892,,,,,,2015_Dez_01_1429,P12,PLC_L_D1S1,NHG,60.0214219,
stim/posf.jpg,stim/negf.jpg,stim/6.jpg,stim/3.jpg,stim/latef.jpg,EF,2,4,,,,,0,10,10,54,,,,,,,,,,,,,,2,0,1.09961183596,,,,,,2015_Dez_01_1429,P12,PLC_L_D1S1,NHG,60.0214219,
stim/negf.jpg,stim/posf.jpg,stim/6.jpg,stim/3.jpg,stim/latef.jpg,EF,2,4,,,,,0,11,11,56,,,,,,,,,,,,,,4,1,0.649795739146,,,,,,2015_Dez_01_1429,P12,PLC_L_D1S1,NHG,60.0214219,
stim/posf.jpg,stim/negf.jpg,stim/5.jpg,stim/2.jpg,stim/latef.jpg,AB,1,2,,,,,0,12,12,5,,,,,,,,,,,,,,2,1,0.84971938512,,,,,,2015_Dez_01_1429,P12,PLC_L_D1S1,NHG,60.0214219,
stim/negf.jpg,stim/posf.jpg,stim/2.jpg,stim/5.jpg,stim/latef.jpg,AB,2,4,,,,,0,13,13,19,,,,,,,,,,,,,,4,1,0.783062988012,,,,,,2015_Dez_01_1429,P12,PLC_L_D1S1,NHG,60.0214219,
stim/posf.jpg,stim/negf.jpg,stim/3.jpg,stim/6.jpg,stim/latef.jpg,EF,1,2,,,,,0,14,14,40,,,,,,,,,,,,,,4,0,0.933007802168,,,,,,2015_Dez_01_1429,P12,PLC_L_D1S1,NHG,60.0214219,
stim/negf.jpg,stim/posf.jpg,stim/4.jpg,stim/1.jpg,stim/latef.jpg,CD,1,2,,,,,0,15,15,28,,,,,,,,,,,,,,2,1,0.916345716401,,,,,,2015_Dez_01_1429,P12,PLC_L_D1S1,NHG,60.0214219,
stim/posf.jpg,stim/negf.jpg,stim/3.jpg,stim/6.jpg,stim/latef.jpg,EF,1,2,,,,,0,16,16,42,,,,,,,,,,,,,,2,1,0.716449279143,,,,,,2015_Dez_01_1429,P12,PLC_L_D1S1,NHG,60.0214219,
stim/posf.jpg,stim/negf.jpg,stim/4.jpg,stim/1.jpg,stim/latef.jpg,CD,1,2,,,,,0,17,17,21,,,,,,,,,,,,,,2,1,0.666440372477,,,,,,2015_Dez_01_1429,P12,PLC_L_D1S1,NHG,60.0214219,
stim/posf.jpg,stim/negf.jpg,stim/4.jpg,stim/1.jpg,stim/latef.jpg,CD,1,2,,,,,0,18,18,26,,,,,,,,,,,,,,2,1,0.71642059676,,,,,,2015_Dez_01_1429,P12,PLC_L_D1S1,NHG,60.0214219,
stim/posf.jpg,stim/negf.jpg,stim/3.jpg,stim/6.jpg,stim/latef.jpg,EF,1,2,,,,,0,19,19,45,,,,,,,,,,,,,,4,0,1.03298621444,,,,,,2015_Dez_01_1429,P12,PLC_L_D1S1,NHG,60.0214219,
stim/posf.jpg,stim/negf.jpg,stim/2.jpg,stim/5.jpg,stim/latef.jpg,AB,2,4,,,,,0,20,20,11,,,,,,,,,,,,,,4,1,0.849702997335,,,,,,2015_Dez_01_1429,P12,PLC_L_D1S1,NHG,60.0214219,
stim/posf.jpg,stim/negf.jpg,stim/1.jpg,stim/4.jpg,stim/latef.jpg,CD,2,4,,,,,0,21,21,32,,,,,,,,,,,,,,4,1,0.666418071977,,,,,,2015_Dez_01_1429,P12,PLC_L_D1S1,NHG,60.0214219,
stim/posf.jpg,stim/negf.jpg,stim/6.jpg,stim/3.jpg,stim/latef.jpg,EF,2,4,,,,,0,22,22,51,,,,,,,,,,,,,,4,1,1.13296789886,,,,,,2015_Dez_01_1429,P12,PLC_L_D1S1,NHG,60.0214219,
stim/posf.jpg,stim/negf.jpg,stim/2.jpg,stim/5.jpg,stim/latef.jpg,AB,2,4,,,,,0,23,23,13,,,,,,,,,,,,,,4,1,0.699748426898,,,,,,2015_Dez_01_1429,P12,PLC_L_D1S1,NHG,60.0214219,
stim/negf.jpg,stim/posf.jpg,stim/4.jpg,stim/1.jpg,stim/latef.jpg,CD,1,2,,,,,0,24,24,27,,,,,,,,,,,,,,2,1,0.733078607384,,,,,,2015_Dez_01_1429,P12,PLC_L_D1S1,NHG,60.0214219,
stim/negf.jpg,stim/posf.jpg,stim/3.jpg,stim/6.jpg,stim/latef.jpg,EF,1,2,,,,,0,25,25,49,,,,,,,,,,,,,,2,1,0.633116913719,,,,,,2015_Dez_01_1429,P12,PLC_L_D1S1,NHG,60.0214219,
stim/negf.jpg,stim/posf.jpg,stim/4.jpg,stim/1.jpg,stim/latef.jpg,CD,1,2,,,,,0,26,26,29,,,,,,,,,,,,,,2,1,0.699715203212,,,,,,2015_Dez_01_1429,P12,PLC_L_D1S1,NHG,60.0214219,
stim/negf.jpg,stim/posf.jpg,stim/5.jpg,stim/2.jpg,stim/latef.jpg,AB,1,2,,,,,0,27,27,9,,,,,,,,,,,,,,2,1,0.649767288339,,,,,,2015_Dez_01_1429,P12,PLC_L_D1S1,NHG,60.0214219,
stim/posf.jpg,stim/negf.jpg,stim/1.jpg,stim/4.jpg,stim/latef.jpg,CD,2,4,,,,,0,28,28,33,,,,,,,,,,,,,,4,1,0.749737421007,,,,,,2015_Dez_01_1429,P12,PLC_L_D1S1,NHG,60.0214219,
stim/posf.jpg,stim/negf.jpg,stim/5.jpg,stim/2.jpg,stim/latef.jpg,AB,1,2,,,,,0,29,29,6,,,,,,,,,,,,,,2,1,0.599769358992,,,,,,2015_Dez_01_1429,P12,PLC_L_D1S1,NHG,60.0214219,
stim/negf.jpg,stim/posf.jpg,stim/2.jpg,stim/5.jpg,stim/latef.jpg,AB,2,4,,,,,0,30,30,18,,,,,,,,,,,,,,4,1,0.59980853449,,,,,,2015_Dez_01_1429,P12,PLC_L_D1S1,NHG,60.0214219,
stim/negf.jpg,stim/posf.jpg,stim/3.jpg,stim/6.jpg,stim/latef.jpg,EF,1,2,,,,,0,31,31,46,,,,,,,,,,,,,,2,1,0.583177067928,,,,,,2015_Dez_01_1429,P12,PLC_L_D1S1,NHG,60.0214219,
stim/posf.jpg,stim/negf.jpg,stim/1.jpg,stim/4.jpg,stim/latef.jpg,CD,2,4,,,,,0,32,32,35,,,,,,,,,,,,,,4,1,0.816404076646,,,,,,2015_Dez_01_1429,P12,PLC_L_D1S1,NHG,60.0214219,
stim/posf.jpg,stim/negf.jpg,stim/6.jpg,stim/3.jpg,stim/latef.jpg,EF,2,4,,,,,0,33,33,52,,,,,,,,,,,,,,2,0,1.0496798788,,,,,,2015_Dez_01_1429,P12,PLC_L_D1S1,NHG,60.0214219,
stim/posf.jpg,stim/negf.jpg,stim/1.jpg,stim/4.jpg,stim/latef.jpg,CD,2,4,,,,,0,34,34,36,,,,,,,,,,,,,,4,1,0.699738700691,,,,,,2015_Dez_01_1429,P12,PLC_L_D1S1,NHG,60.0214219,
stim/posf.jpg,stim/negf.jpg,stim/4.jpg,stim/1.jpg,stim/latef.jpg,CD,1,2,,,,,0,35,35,23,,,,,,,,,,,,,,2,1,0.733107446157,,,,,,2015_Dez_01_1429,P12,PLC_L_D1S1,NHG,60.0214219,
stim/negf.jpg,stim/posf.jpg,stim/6.jpg,stim/3.jpg,stim/latef.jpg,EF,2,4,,,,,0,36,36,58,,,,,,,,,,,,,,4,1,0.616483378007,,,,,,2015_Dez_01_1429,P12,PLC_L_D1S1,NHG,60.0214219,
stim/posf.jpg,stim/negf.jpg,stim/2.jpg,stim/5.jpg,stim/latef.jpg,AB,2,4,,,,,0,37,37,17,,,,,,,,,,,,,,4,1,0.76642187043,,,,,,2015_Dez_01_1429,P12,PLC_L_D1S1,NHG,60.0214219,
stim/posf.jpg,stim/negf.jpg,stim/4.jpg,stim/1.jpg,stim/latef.jpg,CD,1,2,,,,,0,38,38,25,,,,,,,,,,,,,,2,1,1.06633503532,,,,,,2015_Dez_01_1429,P12,PLC_L_D1S1,NHG,60.0214219,
stim/posf.jpg,stim/negf.jpg,stim/2.jpg,stim/5.jpg,stim/latef.jpg,AB,2,4,,,,,0,39,39,16,,,,,,,,,,,,,,4,1,1.04967471194,,,,,,2015_Dez_01_1429,P12,PLC_L_D1S1,NHG,60.0214219,
stim/posf.jpg,stim/negf.jpg,stim/5.jpg,stim/2.jpg,stim/latef.jpg,AB,1,2,,,,,0,40,40,4,,,,,,,,,,,,,,2,1,0.916303780032,,,,,,2015_Dez_01_1429,P12,PLC_L_D1S1,NHG,60.0214219,
stim/posf.jpg,stim/negf.jpg,stim/6.jpg,stim/3.jpg,stim/latef.jpg,EF,2,4,,,,,0,41,41,50,,,,,,,,,,,,,,4,1,1.34953986835,,,,,,2015_Dez_01_1429,P12,PLC_L_D1S1,NHG,60.0214219,
stim/posf.jpg,stim/negf.jpg,stim/1.jpg,stim/4.jpg,stim/latef.jpg,CD,2,4,,,,,0,42,42,30,,,,,,,,,,,,,,4,1,1.13292536701,,,,,,2015_Dez_01_1429,P12,PLC_L_D1S1,NHG,60.0214219,
stim/negf.jpg,stim/posf.jpg,stim/5.jpg,stim/2.jpg,stim/latef.jpg,AB,1,2,,,,,0,43,43,8,,,,,,,,,,,,,,2,1,1.06629350195,,,,,,2015_Dez_01_1429,P12,PLC_L_D1S1,NHG,60.0214219,
stim/posf.jpg,stim/negf.jpg,stim/2.jpg,stim/5.jpg,stim/latef.jpg,AB,2,4,,,,,0,44,44,12,,,,,,,,,,,,,,4,1,0.916372305575,,,,,,2015_Dez_01_1429,P12,PLC_L_D1S1,NHG,60.0214219,
stim/negf.jpg,stim/posf.jpg,stim/1.jpg,stim/4.jpg,stim/latef.jpg,CD,2,4,,,,,0,45,45,38,,,,,,,,,,,,,,4,1,0.866378162652,,,,,,2015_Dez_01_1429,P12,PLC_L_D1S1,NHG,60.0214219,
stim/negf.jpg,stim/posf.jpg,stim/3.jpg,stim/6.jpg,stim/latef.jpg,EF,1,2,,,,,0,46,46,48,,,,,,,,,,,,,,None,0,,,,,,,2015_Dez_01_1429,P12,PLC_L_D1S1,NHG,60.0214219,
stim/posf.jpg,stim/negf.jpg,stim/5.jpg,stim/2.jpg,stim/latef.jpg,AB,1,2,,,,,0,47,47,0,,,,,,,,,,,,,,2,1,0.699794188788,,,,,,2015_Dez_01_1429,P12,PLC_L_D1S1,NHG,60.0214219,
stim/negf.jpg,stim/posf.jpg,stim/6.jpg,stim/3.jpg,stim/latef.jpg,EF,2,4,,,,,0,48,48,57,,,,,,,,,,,,,,2,0,1.13295359526,,,,,,2015_Dez_01_1429,P12,PLC_L_D1S1,NHG,60.0214219,
stim/posf.jpg,stim/negf.jpg,stim/1.jpg,stim/4.jpg,stim/latef.jpg,CD,2,4,,,,,0,49,49,31,,,,,,,,,,,,,,4,1,0.766436216133,,,,,,2015_Dez_01_1429,P12,PLC_L_D1S1,NHG,60.0214219,
stim/negf.jpg,stim/posf.jpg,stim/6.jpg,stim/3.jpg,stim/latef.jpg,EF,2,4,,,,,0,50,50,59,,,,,,,,,,,,,,4,1,1.36618104006,,,,,,2015_Dez_01_1429,P12,PLC_L_D1S1,NHG,60.0214219,
stim/posf.jpg,stim/negf.jpg,stim/3.jpg,stim/6.jpg,stim/latef.jpg,EF,1,2,,,,,0,51,51,41,,,,,,,,,,,,,,2,1,0.899672908952,,,,,,2015_Dez_01_1429,P12,PLC_L_D1S1,NHG,60.0214219,
stim/posf.jpg,stim/negf.jpg,stim/5.jpg,stim/2.jpg,stim/latef.jpg,AB,1,2,,,,,0,52,52,2,,,,,,,,,,,,,,2,1,0.999676060796,,,,,,2015_Dez_01_1429,P12,PLC_L_D1S1,NHG,60.0214219,
stim/posf.jpg,stim/negf.jpg,stim/1.jpg,stim/4.jpg,stim/latef.jpg,CD,2,4,,,,,0,53,53,34,,,,,,,,,,,,,,4,1,1.14962660722,,,,,,2015_Dez_01_1429,P12,PLC_L_D1S1,NHG,60.0214219,
stim/posf.jpg,stim/negf.jpg,stim/5.jpg,stim/2.jpg,stim/latef.jpg,AB,1,2,,,,,0,54,54,3,,,,,,,,,,,,,,2,1,0.833048361109,,,,,,2015_Dez_01_1429,P12,PLC_L_D1S1,NHG,60.0214219,
stim/posf.jpg,stim/negf.jpg,stim/2.jpg,stim/5.jpg,stim/latef.jpg,AB,2,4,,,,,0,55,55,14,,,,,,,,,,,,,,4,1,0.849650092669,,,,,,2015_Dez_01_1429,P12,PLC_L_D1S1,NHG,60.0214219,
stim/posf.jpg,stim/negf.jpg,stim/5.jpg,stim/2.jpg,stim/latef.jpg,AB,1,2,,,,,0,56,56,1,,,,,,,,,,,,,,2,1,0.816393574508,,,,,,2015_Dez_01_1429,P12,PLC_L_D1S1,NHG,60.0214219,
stim/posf.jpg,stim/negf.jpg,stim/2.jpg,stim/5.jpg,stim/latef.jpg,AB,2,4,,,,,0,57,57,10,,,,,,,,,,,,,,4,1,0.766431238746,,,,,,2015_Dez_01_1429,P12,PLC_L_D1S1,NHG,60.0214219,
stim/posf.jpg,stim/negf.jpg,stim/5.jpg,stim/2.jpg,stim/latef.jpg,AB,1,2,,,,,0,58,58,7,,,,,,,,,,,,,,2,1,0.78310154096,,,,,,2015_Dez_01_1429,P12,PLC_L_D1S1,NHG,60.0214219,
stim/posf.jpg,stim/negf.jpg,stim/3.jpg,stim/6.jpg,stim/latef.jpg,EF,1,2,,,,,0,59,59,43,,,,,,,,,,,,,,4,0,1.24964234539,,,,,,2015_Dez_01_1429,P12,PLC_L_D1S1,NHG,60.0214219,
,,,,,,,,,,,,,,,,,,,,,,,,,,,,,,,,0.9921875,1.0,1,0,0,2015_Dez_01_1429,P12,PLC_L_D1S1,NHG,60.0214219,
stim/posf.jpg,stim/negf.jpg,stim/1.jpg,stim/4.jpg,stim/latef.jpg,CD,2,4,,,,,,,,,0,0,0,31,,,,,,,,,,4,1,0.88310696947,,,,,,2015_Dez_01_1429,P12,PLC_L_D1S1,NHG,60.0214219,
stim/negf.jpg,stim/posf.jpg,stim/6.jpg,stim/3.jpg,stim/latef.jpg,EF,2,4,,,,,,,,,0,1,1,58,,,,,,,,,,4,1,1.43282673053,,,,,,2015_Dez_01_1429,P12,PLC_L_D1S1,NHG,60.0214219,
stim/posf.jpg,stim/negf.jpg,stim/6.jpg,stim/3.jpg,stim/latef.jpg,EF,2,4,,,,,,,,,0,2,2,51,,,,,,,,,,4,1,0.966353230603,,,,,,2015_Dez_01_1429,P12,PLC_L_D1S1,NHG,60.0214219,
stim/posf.jpg,stim/negf.jpg,stim/1.jpg,stim/4.jpg,stim/latef.jpg,CD,2,4,,,,,,,,,0,3,3,33,,,,,,,,,,4,1,0.849766328951,,,,,,2015_Dez_01_1429,P12,PLC_L_D1S1,NHG,60.0214219,
stim/posf.jpg,stim/negf.jpg,stim/4.jpg,stim/1.jpg,stim/latef.jpg,CD,1,2,,,,,,,,,0,4,4,20,,,,,,,,,,2,1,0.933048709977,,,,,,2015_Dez_01_1429,P12,PLC_L_D1S1,NHG,60.0214219,
stim/posf.jpg,stim/negf.jpg,stim/2.jpg,stim/5.jpg,stim/latef.jpg,AB,2,4,,,,,,,,,0,5,5,12,,,,,,,,,,4,1,0.716398993996,,,,,,2015_Dez_01_1429,P12,PLC_L_D1S1,NHG,60.0214219,
stim/posf.jpg,stim/negf.jpg,stim/2.jpg,stim/5.jpg,stim/latef.jpg,AB,2,4,,,,,,,,,0,6,6,10,,,,,,,,,,4,1,0.649792918124,,,,,,2015_Dez_01_1429,P12,PLC_L_D1S1,NHG,60.0214219,
stim/posf.jpg,stim/negf.jpg,stim/2.jpg,stim/5.jpg,stim/latef.jpg,AB,2,4,,,,,,,,,0,7,7,16,,,,,,,,,,4,1,1.08295931399,,,,,,2015_Dez_01_1429,P12,PLC_L_D1S1,NHG,60.0214219,
stim/negf.jpg,stim/posf.jpg,stim/3.jpg,stim/6.jpg,stim/latef.jpg,EF,1,2,,,,,,,,,0,8,8,49,,,,,,,,,,2,1,1.23297243715,,,,,,2015_Dez_01_1429,P12,PLC_L_D1S1,NHG,60.0214219,
stim/posf.jpg,stim/negf.jpg,stim/5.jpg,stim/2.jpg,stim/latef.jpg,AB,1,2,,,,,,,,,0,9,9,1,,,,,,,,,,2,1,0.766378622798,,,,,,2015_Dez_01_1429,P12,PLC_L_D1S1,NHG,60.0214219,
stim/posf.jpg,stim/negf.jpg,stim/6.jpg,stim/3.jpg,stim/latef.jpg,EF,2,4,,,,,,,,,0,10,10,54,,,,,,,,,,4,1,1.33289071777,,,,,,2015_Dez_01_1429,P12,PLC_L_D1S1,NHG,60.0214219,
stim/posf.jpg,stim/negf.jpg,stim/4.jpg,stim/1.jpg,stim/latef.jpg,CD,1,2,,,,,,,,,0,11,11,22,,,,,,,,,,2,1,0.766362183885,,,,,,2015_Dez_01_1429,P12,PLC_L_D1S1,NHG,60.0214219,
stim/negf.jpg,stim/posf.jpg,stim/6.jpg,stim/3.jpg,stim/latef.jpg,EF,2,4,,,,,,,,,0,12,12,56,,,,,,,,,,4,1,1.28290356725,,,,,,2015_Dez_01_1429,P12,PLC_L_D1S1,NHG,60.0214219,
stim/negf.jpg,stim/posf.jpg,stim/5.jpg,stim/2.jpg,stim/latef.jpg,AB,1,2,,,,,,,,,0,13,13,8,,,,,,,,,,2,1,0.666448101713,,,,,,2015_Dez_01_1429,P12,PLC_L_D1S1,NHG,60.0214219,
stim/posf.jpg,stim/negf.jpg,stim/3.jpg,stim/6.jpg,stim/latef.jpg,EF,1,2,,,,,,,,,0,14,14,41,,,,,,,,,,2,1,1.6161317519,,,,,,2015_Dez_01_1429,P12,PLC_L_D1S1,NHG,60.0214219,
stim/posf.jpg,stim/negf.jpg,stim/2.jpg,stim/5.jpg,stim/latef.jpg,AB,2,4,,,,,,,,,0,15,15,17,,,,,,,,,,4,1,0.733073783379,,,,,,2015_Dez_01_1429,P12,PLC_L_D1S1,NHG,60.0214219,
stim/posf.jpg,stim/negf.jpg,stim/3.jpg,stim/6.jpg,stim/latef.jpg,EF,1,2,,,,,,,,,0,16,16,45,,,,,,,,,,2,1,0.933015426142,,,,,,2015_Dez_01_1429,P12,PLC_L_D1S1,NHG,60.0214219,
stim/posf.jpg,stim/negf.jpg,stim/3.jpg,stim/6.jpg,stim/latef.jpg,EF,1,2,,,,,,,,,0,17,17,43,,,,,,,,,,2,1,0.716453056544,,,,,,2015_Dez_01_1429,P12,PLC_L_D1S1,NHG,60.0214219,
stim/negf.jpg,stim/posf.jpg,stim/6.jpg,stim/3.jpg,stim/latef.jpg,EF,2,4,,,,,,,,,0,18,18,59,,,,,,,,,,4,1,0.816388771555,,,,,,2015_Dez_01_1429,P12,PLC_L_D1S1,NHG,60.0214219,
stim/posf.jpg,stim/negf.jpg,stim/1.jpg,stim/4.jpg,stim/latef.jpg,CD,2,4,,,,,,,,,0,19,19,35,,,,,,,,,,4,1,0.799731783476,,,,,,2015_Dez_01_1429,P12,PLC_L_D1S1,NHG,60.0214219,
stim/negf.jpg,stim/posf.jpg,stim/6.jpg,stim/3.jpg,stim/latef.jpg,EF,2,4,,,,,,,,,0,20,20,57,,,,,,,,,,4,1,1.24956167863,,,,,,2015_Dez_01_1429,P12,PLC_L_D1S1,NHG,60.0214219,
stim/negf.jpg,stim/posf.jpg,stim/2.jpg,stim/5.jpg,stim/latef.jpg,AB,2,4,,,,,,,,,0,21,21,19,,,,,,,,,,4,1,0.733084682504,,,,,,2015_Dez_01_1429,P12,PLC_L_D1S1,NHG,60.0214219,
stim/posf.jpg,stim/negf.jpg,stim/3.jpg,stim/6.jpg,stim/latef.jpg,EF,1,2,,,,,,,,,0,22,22,44,,,,,,,,,,2,1,1.11627342248,,,,,,2015_Dez_01_1429,P12,PLC_L_D1S1,NHG,60.0214219,
stim/posf.jpg,stim/negf.jpg,stim/1.jpg,stim/4.jpg,stim/latef.jpg,CD,2,4,,,,,,,,,0,23,23,32,,,,,,,,,,4,1,0.716416599813,,,,,,2015_Dez_01_1429,P12,PLC_L_D1S1,NHG,60.0214219,
stim/posf.jpg,stim/negf.jpg,stim/5.jpg,stim/2.jpg,stim/latef.jpg,AB,1,2,,,,,,,,,0,24,24,7,,,,,,,,,,2,1,0.666445900234,,,,,,2015_Dez_01_1429,P12,PLC_L_D1S1,NHG,60.0214219,
stim/negf.jpg,stim/posf.jpg,stim/1.jpg,stim/4.jpg,stim/latef.jpg,CD,2,4,,,,,,,,,0,25,25,37,,,,,,,,,,4,1,0.61650117931,,,,,,2015_Dez_01_1429,P12,PLC_L_D1S1,NHG,60.0214219,
stim/posf.jpg,stim/negf.jpg,stim/1.jpg,stim/4.jpg,stim/latef.jpg,CD,2,4,,,,,,,,,0,26,26,36,,,,,,,,,,4,1,0.716438244681,,,,,,2015_Dez_01_1429,P12,PLC_L_D1S1,NHG,60.0214219,
stim/posf.jpg,stim/negf.jpg,stim/5.jpg,stim/2.jpg,stim/latef.jpg,AB,1,2,,,,,,,,,0,27,27,5,,,,,,,,,,2,1,0.616472460837,,,,,,2015_Dez_01_1429,P12,PLC_L_D1S1,NHG,60.0214219,
stim/posf.jpg,stim/negf.jpg,stim/2.jpg,stim/5.jpg,stim/latef.jpg,AB,2,4,,,,,,,,,0,28,28,11,,,,,,,,,,4,1,0.649774680736,,,,,,2015_Dez_01_1429,P12,PLC_L_D1S1,NHG,60.0214219,
stim/posf.jpg,stim/negf.jpg,stim/4.jpg,stim/1.jpg,stim/latef.jpg,CD,1,2,,,,,,,,,0,29,29,21,,,,,,,,,,2,1,0.599812747976,,,,,,2015_Dez_01_1429,P12,PLC_L_D1S1,NHG,60.0214219,
stim/posf.jpg,stim/negf.jpg,stim/5.jpg,stim/2.jpg,stim/latef.jpg,AB,1,2,,,,,,,,,0,30,30,0,,,,,,,,,,2,1,0.599795163212,,,,,,2015_Dez_01_1429,P12,PLC_L_D1S1,NHG,60.0214219,
stim/posf.jpg,stim/negf.jpg,stim/3.jpg,stim/6.jpg,stim/latef.jpg,EF,1,2,,,,,,,,,0,31,31,42,,,,,,,,,,2,1,0.633119800905,,,,,,2015_Dez_01_1429,P12,PLC_L_D1S1,NHG,60.0214219,
stim/negf.jpg,stim/posf.jpg,stim/3.jpg,stim/6.jpg,stim/latef.jpg,EF,1,2,,,,,,,,,0,32,32,48,,,,,,,,,,2,1,0.649761138033,,,,,,2015_Dez_01_1429,P12,PLC_L_D1S1,NHG,60.0214219,
stim/posf.jpg,stim/negf.jpg,stim/6.jpg,stim/3.jpg,stim/latef.jpg,EF,2,4,,,,,,,,,0,33,33,53,,,,,,,,,,4,1,0.849702612377,,,,,,2015_Dez_01_1429,P12,PLC_L_D1S1,NHG,60.0214219,
stim/posf.jpg,stim/negf.jpg,stim/4.jpg,stim/1.jpg,stim/latef.jpg,CD,1,2,,,,,,,,,0,34,34,24,,,,,,,,,,2,1,0.799785930234,,,,,,2015_Dez_01_1429,P12,PLC_L_D1S1,NHG,60.0214219,
stim/posf.jpg,stim/negf.jpg,stim/4.jpg,stim/1.jpg,stim/latef.jpg,CD,1,2,,,,,,,,,0,35,35,23,,,,,,,,,,2,1,0.683112004001,,,,,,2015_Dez_01_1429,P12,PLC_L_D1S1,NHG,60.0214219,
stim/posf.jpg,stim/negf.jpg,stim/1.jpg,stim/4.jpg,stim/latef.jpg,CD,2,4,,,,,,,,,0,36,36,34,,,,,,,,,,4,1,0.649793955707,,,,,,2015_Dez_01_1429,P12,PLC_L_D1S1,NHG,60.0214219,
stim/negf.jpg,stim/posf.jpg,stim/3.jpg,stim/6.jpg,stim/latef.jpg,EF,1,2,,,,,,,,,0,37,37,47,,,,,,,,,,2,1,0.649837013868,,,,,,2015_Dez_01_1429,P12,PLC_L_D1S1,NHG,60.0214219,
stim/negf.jpg,stim/posf.jpg,stim/1.jpg,stim/4.jpg,stim/latef.jpg,CD,2,4,,,,,,,,,0,38,38,38,,,,,,,,,,4,1,0.666454808405,,,,,,2015_Dez_01_1429,P12,PLC_L_D1S1,NHG,60.0214219,
stim/negf.jpg,stim/posf.jpg,stim/1.jpg,stim/4.jpg,stim/latef.jpg,CD,2,4,,,,,,,,,0,39,39,39,,,,,,,,,,4,1,0.616475498397,,,,,,2015_Dez_01_1429,P12,PLC_L_D1S1,NHG,60.0214219,
stim/posf.jpg,stim/negf.jpg,stim/1.jpg,stim/4.jpg,stim/latef.jpg,CD,2,4,,,,,,,,,0,40,40,30,,,,,,,,,,4,1,0.749729815077,,,,,,2015_Dez_01_1429,P12,PLC_L_D1S1,NHG,60.0214219,
stim/posf.jpg,stim/negf.jpg,stim/2.jpg,stim/5.jpg,stim/latef.jpg,AB,2,4,,,,,,,,,0,41,41,14,,,,,,,,,,4,1,0.716441492765,,,,,,2015_Dez_01_1429,P12,PLC_L_D1S1,NHG,60.0214219,
stim/posf.jpg,stim/negf.jpg,stim/5.jpg,stim/2.jpg,stim/latef.jpg,AB,1,2,,,,,,,,,0,42,42,6,,,,,,,,,,2,1,0.866357567395,,,,,,2015_Dez_01_1429,P12,PLC_L_D1S1,NHG,60.0214219,
stim/posf.jpg,stim/negf.jpg,stim/6.jpg,stim/3.jpg,stim/latef.jpg,EF,2,4,,,,,,,,,0,43,43,50,,,,,,,,,,4,1,0.599792552715,,,,,,2015_Dez_01_1429,P12,PLC_L_D1S1,NHG,60.0214219,
stim/posf.jpg,stim/negf.jpg,stim/6.jpg,stim/3.jpg,stim/latef.jpg,EF,2,4,,,,,,,,,0,44,44,52,,,,,,,,,,2,0,0.883050540031,,,,,,2015_Dez_01_1429,P12,PLC_L_D1S1,NHG,60.0214219,
stim/negf.jpg,stim/posf.jpg,stim/4.jpg,stim/1.jpg,stim/latef.jpg,CD,1,2,,,,,,,,,0,45,45,29,,,,,,,,,,2,1,0.816394765472,,,,,,2015_Dez_01_1429,P12,PLC_L_D1S1,NHG,60.0214219,
stim/posf.jpg,stim/negf.jpg,stim/6.jpg,stim/3.jpg,stim/latef.jpg,EF,2,4,,,,,,,,,0,46,46,55,,,,,,,,,,2,0,0.933021233595,,,,,,2015_Dez_01_1429,P12,PLC_L_D1S1,NHG,60.0214219,
stim/posf.jpg,stim/negf.jpg,stim/5.jpg,stim/2.jpg,stim/latef.jpg,AB,1,2,,,,,,,,,0,47,47,4,,,,,,,,,,2,1,0.699766757518,,,,,,2015_Dez_01_1429,P12,PLC_L_D1S1,NHG,60.0214219,
stim/posf.jpg,stim/negf.jpg,stim/5.jpg,stim/2.jpg,stim/latef.jpg,AB,1,2,,,,,,,,,0,48,48,2,,,,,,,,,,2,1,0.833066980447,,,,,,2015_Dez_01_1429,P12,PLC_L_D1S1,NHG,60.0214219,
stim/posf.jpg,stim/negf.jpg,stim/2.jpg,stim/5.jpg,stim/latef.jpg,AB,2,4,,,,,,,,,0,49,49,15,,,,,,,,,,4,1,0.849720079848,,,,,,2015_Dez_01_1429,P12,PLC_L_D1S1,NHG,60.0214219,
stim/posf.jpg,stim/negf.jpg,stim/4.jpg,stim/1.jpg,stim/latef.jpg,CD,1,2,,,,,,,,,0,50,50,26,,,,,,,,,,2,1,0.733003438307,,,,,,2015_Dez_01_1429,P12,PLC_L_D1S1,NHG,60.0214219,
stim/negf.jpg,stim/posf.jpg,stim/4.jpg,stim/1.jpg,stim/latef.jpg,CD,1,2,,,,,,,,,0,51,51,27,,,,,,,,,,2,1,0.783083053951,,,,,,2015_Dez_01_1429,P12,PLC_L_D1S1,NHG,60.0214219,
stim/negf.jpg,stim/posf.jpg,stim/5.jpg,stim/2.jpg,stim/latef.jpg,AB,1,2,,,,,,,,,0,52,52,9,,,,,,,,,,2,1,0.849761107957,,,,,,2015_Dez_01_1429,P12,PLC_L_D1S1,NHG,60.0214219,
stim/posf.jpg,stim/negf.jpg,stim/5.jpg,stim/2.jpg,stim/latef.jpg,AB,1,2,,,,,,,,,0,53,53,3,,,,,,,,,,2,1,0.666445292723,,,,,,2015_Dez_01_1429,P12,PLC_L_D1S1,NHG,60.0214219,
stim/posf.jpg,stim/negf.jpg,stim/3.jpg,stim/6.jpg,stim/latef.jpg,EF,1,2,,,,,,,,,0,54,54,40,,,,,,,,,,4,0,1.54946010083,,,,,,2015_Dez_01_1429,P12,PLC_L_D1S1,NHG,60.0214219,
stim/negf.jpg,stim/posf.jpg,stim/3.jpg,stim/6.jpg,stim/latef.jpg,EF,1,2,,,,,,,,,0,55,55,46,,,,,,,,,,4,0,0.766409545757,,,,,,2015_Dez_01_1429,P12,PLC_L_D1S1,NHG,60.0214219,
stim/negf.jpg,stim/posf.jpg,stim/2.jpg,stim/5.jpg,stim/latef.jpg,AB,2,4,,,,,,,,,0,56,56,18,,,,,,,,,,4,1,0.699764252283,,,,,,2015_Dez_01_1429,P12,PLC_L_D1S1,NHG,60.0214219,
stim/negf.jpg,stim/posf.jpg,stim/4.jpg,stim/1.jpg,stim/latef.jpg,CD,1,2,,,,,,,,,0,57,57,28,,,,,,,,,,2,1,0.999671961595,,,,,,2015_Dez_01_1429,P12,PLC_L_D1S1,NHG,60.0214219,
stim/posf.jpg,stim/negf.jpg,stim/4.jpg,stim/1.jpg,stim/latef.jpg,CD,1,2,,,,,,,,,0,58,58,25,,,,,,,,,,2,1,0.716416016361,,,,,,2015_Dez_01_1429,P12,PLC_L_D1S1,NHG,60.0214219,
stim/posf.jpg,stim/negf.jpg,stim/2.jpg,stim/5.jpg,stim/latef.jpg,AB,2,4,,,,,,,,,0,59,59,13,,,,,,,,,,4,1,0.616456403875,,,,,,2015_Dez_01_1429,P12,PLC_L_D1S1,NHG,60.0214219,
,,,,,,,,,,,,,,,,,,,,,,,,,,,,,,,,0.9921875,1.0,1,0,0,2015_Dez_01_1429,P12,PLC_L_D1S1,NHG,60.0214219,
stim/posf.jpg,stim/negf.jpg,stim/2.jpg,stim/5.jpg,stim/latef.jpg,AB,2,4,,,,,,,,,,,,,0,0,0,14,,,,,,4,1,0.749775318323,,,,,,2015_Dez_01_1429,P12,PLC_L_D1S1,NHG,60.0214219,
stim/posf.jpg,stim/negf.jpg,stim/3.jpg,stim/6.jpg,stim/latef.jpg,EF,1,2,,,,,,,,,,,,,0,1,1,41,,,,,,2,1,0.716445979932,,,,,,2015_Dez_01_1429,P12,PLC_L_D1S1,NHG,60.0214219,
stim/negf.jpg,stim/posf.jpg,stim/5.jpg,stim/2.jpg,stim/latef.jpg,AB,1,2,,,,,,,,,,,,,0,2,2,9,,,,,,2,1,0.56647701868,,,,,,2015_Dez_01_1429,P12,PLC_L_D1S1,NHG,60.0214219,
stim/posf.jpg,stim/negf.jpg,stim/2.jpg,stim/5.jpg,stim/latef.jpg,AB,2,4,,,,,,,,,,,,,0,3,3,10,,,,,,4,1,0.683108461182,,,,,,2015_Dez_01_1429,P12,PLC_L_D1S1,NHG,60.0214219,
stim/posf.jpg,stim/negf.jpg,stim/1.jpg,stim/4.jpg,stim/latef.jpg,CD,2,4,,,,,,,,,,,,,0,4,4,34,,,,,,4,1,0.666422664405,,,,,,2015_Dez_01_1429,P12,PLC_L_D1S1,NHG,60.0214219,
stim/posf.jpg,stim/negf.jpg,stim/6.jpg,stim/3.jpg,stim/latef.jpg,EF,2,4,,,,,,,,,,,,,0,5,5,51,,,,,,4,1,0.816379454367,,,,,,2015_Dez_01_1429,P12,PLC_L_D1S1,NHG,60.0214219,
stim/posf.jpg,stim/negf.jpg,stim/4.jpg,stim/1.jpg,stim/latef.jpg,CD,1,2,,,,,,,,,,,,,0,6,6,24,,,,,,2,1,0.88303386052,,,,,,2015_Dez_01_1429,P12,PLC_L_D1S1,NHG,60.0214219,
stim/posf.jpg,stim/negf.jpg,stim/5.jpg,stim/2.jpg,stim/latef.jpg,AB,1,2,,,,,,,,,,,,,0,7,7,7,,,,,,2,1,0.83305958805,,,,,,2015_Dez_01_1429,P12,PLC_L_D1S1,NHG,60.0214219,
stim/posf.jpg,stim/negf.jpg,stim/2.jpg,stim/5.jpg,stim/latef.jpg,AB,2,4,,,,,,,,,,,,,0,8,8,16,,,,,,4,1,0.832997489502,,,,,,2015_Dez_01_1429,P12,PLC_L_D1S1,NHG,60.0214219,
stim/posf.jpg,stim/negf.jpg,stim/2.jpg,stim/5.jpg,stim/latef.jpg,AB,2,4,,,,,,,,,,,,,0,9,9,17,,,,,,4,1,0.983015132912,,,,,,2015_Dez_01_1429,P12,PLC_L_D1S1,NHG,60.0214219,
stim/negf.jpg,stim/posf.jpg,stim/2.jpg,stim/5.jpg,stim/latef.jpg,AB,2,4,,,,,,,,,,,,,0,10,10,18,,,,,,4,1,0.783064909794,,,,,,2015_Dez_01_1429,P12,PLC_L_D1S1,NHG,60.0214219,
stim/posf.jpg,stim/negf.jpg,stim/1.jpg,stim/4.jpg,stim/latef.jpg,CD,2,4,,,,,,,,,,,,,0,11,11,33,,,,,,4,1,0.816417992279,,,,,,2015_Dez_01_1429,P12,PLC_L_D1S1,NHG,60.0214219,
stim/posf.jpg,stim/negf.jpg,stim/6.jpg,stim/3.jpg,stim/latef.jpg,EF,2,4,,,,,,,,,,,,,0,12,12,52,,,,,,4,1,1.04965342496,,,,,,2015_Dez_01_1429,P12,PLC_L_D1S1,NHG,60.0214219,
stim/posf.jpg,stim/negf.jpg,stim/4.jpg,stim/1.jpg,stim/latef.jpg,CD,1,2,,,,,,,,,,,,,0,13,13,20,,,,,,2,1,0.716418311071,,,,,,2015_Dez_01_1429,P12,PLC_L_D1S1,NHG,60.0214219,
stim/negf.jpg,stim/posf.jpg,stim/6.jpg,stim/3.jpg,stim/latef.jpg,EF,2,4,,,,,,,,,,,,,0,14,14,59,,,,,,4,1,1.06529719139,,,,,,2015_Dez_01_1429,P12,PLC_L_D1S1,NHG,60.0214219,
stim/negf.jpg,stim/posf.jpg,stim/5.jpg,stim/2.jpg,stim/latef.jpg,AB,1,2,,,,,,,,,,,,,0,15,15,8,,,,,,2,1,0.566457818897,,,,,,2015_Dez_01_1429,P12,PLC_L_D1S1,NHG,60.0214219,
stim/posf.jpg,stim/negf.jpg,stim/6.jpg,stim/3.jpg,stim/latef.jpg,EF,2,4,,,,,,,,,,,,,0,16,16,54,,,,,,4,1,0.683082392304,,,,,,2015_Dez_01_1429,P12,PLC_L_D1S1,NHG,60.0214219,
stim/posf.jpg,stim/negf.jpg,stim/6.jpg,stim/3.jpg,stim/latef.jpg,EF,2,4,,,,,,,,,,,,,0,17,17,53,,,,,,4,1,1.0163285978,,,,,,2015_Dez_01_1429,P12,PLC_L_D1S1,NHG,60.0214219,
stim/negf.jpg,stim/posf.jpg,stim/4.jpg,stim/1.jpg,stim/latef.jpg,CD,1,2,,,,,,,,,,,,,0,18,18,29,,,,,,2,1,1.0496233471,,,,,,2015_Dez_01_1429,P12,PLC_L_D1S1,NHG,60.0214219,
stim/posf.jpg,stim/negf.jpg,stim/5.jpg,stim/2.jpg,stim/latef.jpg,AB,1,2,,,,,,,,,,,,,0,19,19,1,,,,,,2,1,0.816372801811,,,,,,2015_Dez_01_1429,P12,PLC_L_D1S1,NHG,60.0214219,
stim/posf.jpg,stim/negf.jpg,stim/1.jpg,stim/4.jpg,stim/latef.jpg,CD,2,4,,,,,,,,,,,,,0,20,20,31,,,,,,4,1,1.2495636786,,,,,,2015_Dez_01_1429,P12,PLC_L_D1S1,NHG,60.0214219,
stim/negf.jpg,stim/posf.jpg,stim/3.jpg,stim/6.jpg,stim/latef.jpg,EF,1,2,,,,,,,,,,,,,0,21,21,47,,,,,,2,1,0.783060906831,,,,,,2015_Dez_01_1429,P12,PLC_L_D1S1,NHG,60.0214219,
stim/negf.jpg,stim/posf.jpg,stim/4.jpg,stim/1.jpg,stim/latef.jpg,CD,1,2,,,,,,,,,,,,,0,22,22,28,,,,,,2,1,0.699751314083,,,,,,2015_Dez_01_1429,P12,PLC_L_D1S1,NHG,60.0214219,
stim/posf.jpg,stim/negf.jpg,stim/5.jpg,stim/2.jpg,stim/latef.jpg,AB,1,2,,,,,,,,,,,,,0,23,23,3,,,,,,2,1,1.03298506257,,,,,,2015_Dez_01_1429,P12,PLC_L_D1S1,NHG,60.0214219,
stim/posf.jpg,stim/negf.jpg,stim/6.jpg,stim/3.jpg,stim/latef.jpg,EF,2,4,,,,,,,,,,,,,0,24,24,55,,,,,,4,1,1.09967310143,,,,,,2015_Dez_01_1429,P12,PLC_L_D1S1,NHG,60.0214219,
stim/posf.jpg,stim/negf.jpg,stim/2.jpg,stim/5.jpg,stim/latef.jpg,AB,2,4,,,,,,,,,,,,,0,25,25,15,,,,,,4,1,1.01635900648,,,,,,2015_Dez_01_1429,P12,PLC_L_D1S1,NHG,60.0214219,
stim/posf.jpg,stim/negf.jpg,stim/3.jpg,stim/6.jpg,stim/latef.jpg,EF,1,2,,,,,,,,,,,,,0,26,26,45,,,,,,2,1,0.983034299613,,,,,,2015_Dez_01_1429,P12,PLC_L_D1S1,NHG,60.0214219,
stim/posf.jpg,stim/negf.jpg,stim/4.jpg,stim/1.jpg,stim/latef.jpg,CD,1,2,,,,,,,,,,,,,0,27,27,25,,,,,,4,0,1.04963518757,,,,,,2015_Dez_01_1429,P12,PLC_L_D1S1,NHG,60.0214219,
stim/negf.jpg,stim/posf.jpg,stim/3.jpg,stim/6.jpg,stim/latef.jpg,EF,1,2,,,,,,,,,,,,,0,28,28,46,,,,,,2,1,1.11623195227,,,,,,2015_Dez_01_1429,P12,PLC_L_D1S1,NHG,60.0214219,
stim/posf.jpg,stim/negf.jpg,stim/3.jpg,stim/6.jpg,stim/latef.jpg,EF,1,2,,,,,,,,,,,,,0,29,29,43,,,,,,2,1,0.833045765649,,,,,,2015_Dez_01_1429,P12,PLC_L_D1S1,NHG,60.0214219,
stim/posf.jpg,stim/negf.jpg,stim/4.jpg,stim/1.jpg,stim/latef.jpg,CD,1,2,,,,,,,,,,,,,0,30,30,26,,,,,,2,1,1.14961268256,,,,,,2015_Dez_01_1429,P12,PLC_L_D1S1,NHG,60.0214219,
stim/posf.jpg,stim/negf.jpg,stim/1.jpg,stim/4.jpg,stim/latef.jpg,CD,2,4,,,,,,,,,,,,,0,31,31,32,,,,,,4,1,0.766428092916,,,,,,2015_Dez_01_1429,P12,PLC_L_D1S1,NHG,60.0214219,
stim/negf.jpg,stim/posf.jpg,stim/6.jpg,stim/3.jpg,stim/latef.jpg,EF,2,4,,,,,,,,,,,,,0,32,32,56,,,,,,4,1,0.949625903467,,,,,,2015_Dez_01_1429,P12,PLC_L_D1S1,NHG,60.0214219,
stim/posf.jpg,stim/negf.jpg,stim/4.jpg,stim/1.jpg,stim/latef.jpg,CD,1,2,,,,,,,,,,,,,0,33,33,23,,,,,,2,1,0.733031456036,,,,,,2015_Dez_01_1429,P12,PLC_L_D1S1,NHG,60.0214219,
stim/posf.jpg,stim/negf.jpg,stim/4.jpg,stim/1.jpg,stim/latef.jpg,CD,1,2,,,,,,,,,,,,,0,34,34,22,,,,,,2,1,1.01631741898,,,,,,2015_Dez_01_1429,P12,PLC_L_D1S1,NHG,60.0214219,
stim/negf.jpg,stim/posf.jpg,stim/3.jpg,stim/6.jpg,stim/latef.jpg,EF,1,2,,,,,,,,,,,,,0,35,35,48,,,,,,2,1,0.749727222626,,,,,,2015_Dez_01_1429,P12,PLC_L_D1S1,NHG,60.0214219,
stim/posf.jpg,stim/negf.jpg,stim/1.jpg,stim/4.jpg,stim/latef.jpg,CD,2,4,,,,,,,,,,,,,0,36,36,36,,,,,,4,1,0.899672993161,,,,,,2015_Dez_01_1429,P12,PLC_L_D1S1,NHG,60.0214219,
stim/posf.jpg,stim/negf.jpg,stim/3.jpg,stim/6.jpg,stim/latef.jpg,EF,1,2,,,,,,,,,,,,,0,37,37,42,,,,,,2,1,0.649722594106,,,,,,2015_Dez_01_1429,P12,PLC_L_D1S1,NHG,60.0214219,
stim/posf.jpg,stim/negf.jpg,stim/1.jpg,stim/4.jpg,stim/latef.jpg,CD,2,4,,,,,,,,,,,,,0,38,38,35,,,,,,4,1,0.783081568254,,,,,,2015_Dez_01_1429,P12,PLC_L_D1S1,NHG,60.0214219,
stim/posf.jpg,stim/negf.jpg,stim/3.jpg,stim/6.jpg,stim/latef.jpg,EF,1,2,,,,,,,,,,,,,0,39,39,44,,,,,,2,1,0.69981793288,,,,,,2015_Dez_01_1429,P12,PLC_L_D1S1,NHG,60.0214219,
stim/negf.jpg,stim/posf.jpg,stim/3.jpg,stim/6.jpg,stim/latef.jpg,EF,1,2,,,,,,,,,,,,,0,40,40,49,,,,,,2,1,0.549798981215,,,,,,2015_Dez_01_1429,P12,PLC_L_D1S1,NHG,60.0214219,
stim/posf.jpg,stim/negf.jpg,stim/3.jpg,stim/6.jpg,stim/latef.jpg,EF,1,2,,,,,,,,,,,,,0,41,41,40,,,,,,2,1,0.599767028191,,,,,,2015_Dez_01_1429,P12,PLC_L_D1S1,NHG,60.0214219,
stim/posf.jpg,stim/negf.jpg,stim/2.jpg,stim/5.jpg,stim/latef.jpg,AB,2,4,,,,,,,,,,,,,0,42,42,13,,,,,,4,1,0.583102443205,,,,,,2015_Dez_01_1429,P12,PLC_L_D1S1,NHG,60.0214219,
stim/negf.jpg,stim/posf.jpg,stim/1.jpg,stim/4.jpg,stim/latef.jpg,CD,2,4,,,,,,,,,,,,,0,43,43,37,,,,,,4,1,1.0163291632,,,,,,2015_Dez_01_1429,P12,PLC_L_D1S1,NHG,60.0214219,
stim/posf.jpg,stim/negf.jpg,stim/1.jpg,stim/4.jpg,stim/latef.jpg,CD,2,4,,,,,,,,,,,,,0,44,44,30,,,,,,4,1,0.783075183363,,,,,,2015_Dez_01_1429,P12,PLC_L_D1S1,NHG,60.0214219,
stim/posf.jpg,stim/negf.jpg,stim/5.jpg,stim/2.jpg,stim/latef.jpg,AB,1,2,,,,,,,,,,,,,0,45,45,0,,,,,,2,1,0.633074454048,,,,,,2015_Dez_01_1429,P12,PLC_L_D1S1,NHG,60.0214219,
stim/posf.jpg,stim/negf.jpg,stim/5.jpg,stim/2.jpg,stim/latef.jpg,AB,1,2,,,,,,,,,,,,,0,46,46,6,,,,,,2,1,0.583179976165,,,,,,2015_Dez_01_1429,P12,PLC_L_D1S1,NHG,60.0214219,
stim/posf.jpg,stim/negf.jpg,stim/6.jpg,stim/3.jpg,stim/latef.jpg,EF,2,4,,,,,,,,,,,,,0,47,47,50,,,,,,4,1,0.583131134612,,,,,,2015_Dez_01_1429,P12,PLC_L_D1S1,NHG,60.0214219,
stim/posf.jpg,stim/negf.jpg,stim/2.jpg,stim/5.jpg,stim/latef.jpg,AB,2,4,,,,,,,,,,,,,0,48,48,12,,,,,,4,1,0.566465890986,,,,,,2015_Dez_01_1429,P12,PLC_L_D1S1,NHG,60.0214219,
stim/posf.jpg,stim/negf.jpg,stim/5.jpg,stim/2.jpg,stim/latef.jpg,AB,1,2,,,,,,,,,,,,,0,49,49,2,,,,,,2,1,0.633126709097,,,,,,2015_Dez_01_1429,P12,PLC_L_D1S1,NHG,60.0214219,
stim/negf.jpg,stim/posf.jpg,stim/4.jpg,stim/1.jpg,stim/latef.jpg,CD,1,2,,,,,,,,,,,,,0,50,50,27,,,,,,2,1,1.01633018274,,,,,,2015_Dez_01_1429,P12,PLC_L_D1S1,NHG,60.0214219,
stim/posf.jpg,stim/negf.jpg,stim/5.jpg,stim/2.jpg,stim/latef.jpg,AB,1,2,,,,,,,,,,,,,0,51,51,5,,,,,,2,1,0.716423745597,,,,,,2015_Dez_01_1429,P12,PLC_L_D1S1,NHG,60.0214219,
stim/negf.jpg,stim/posf.jpg,stim/1.jpg,stim/4.jpg,stim/latef.jpg,CD,2,4,,,,,,,,,,,,,0,52,52,38,,,,,,4,1,0.533134811261,,,,,,2015_Dez_01_1429,P12,PLC_L_D1S1,NHG,60.0214219,
stim/posf.jpg,stim/negf.jpg,stim/2.jpg,stim/5.jpg,stim/latef.jpg,AB,2,4,,,,,,,,,,,,,0,53,53,11,,,,,,4,1,0.566463355676,,,,,,2015_Dez_01_1429,P12,PLC_L_D1S1,NHG,60.0214219,
stim/negf.jpg,stim/posf.jpg,stim/2.jpg,stim/5.jpg,stim/latef.jpg,AB,2,4,,,,,,,,,,,,,0,54,54,19,,,,,,4,1,0.549887431344,,,,,,2015_Dez_01_1429,P12,PLC_L_D1S1,NHG,60.0214219,
stim/posf.jpg,stim/negf.jpg,stim/4.jpg,stim/1.jpg,stim/latef.jpg,CD,1,2,,,,,,,,,,,,,0,55,55,21,,,,,,2,1,0.549811570546,,,,,,2015_Dez_01_1429,P12,PLC_L_D1S1,NHG,60.0214219,
stim/negf.jpg,stim/posf.jpg,stim/6.jpg,stim/3.jpg,stim/latef.jpg,EF,2,4,,,,,,,,,,,,,0,56,56,58,,,,,,4,1,0.73308893208,,,,,,2015_Dez_01_1429,P12,PLC_L_D1S1,NHG,60.0214219,
stim/negf.jpg,stim/posf.jpg,stim/1.jpg,stim/4.jpg,stim/latef.jpg,CD,2,4,,,,,,,,,,,,,0,57,57,39,,,,,,4,1,0.982925819634,,,,,,2015_Dez_01_1429,P12,PLC_L_D1S1,NHG,60.0214219,
stim/posf.jpg,stim/negf.jpg,stim/5.jpg,stim/2.jpg,stim/latef.jpg,AB,1,2,,,,,,,,,,,,,0,58,58,4,,,,,,2,1,0.733106152938,,,,,,2015_Dez_01_1429,P12,PLC_L_D1S1,NHG,60.0214219,
stim/negf.jpg,stim/posf.jpg,stim/6.jpg,stim/3.jpg,stim/latef.jpg,EF,2,4,,,,,,,,,,,,,0,59,59,57,,,,,,4,1,0.74975229302,,,,,,2015_Dez_01_1429,P12,PLC_L_D1S1,NHG,60.0214219,
