fb_corr,fb_incorr,symbol2,symbol1,fb_late,pair,position,correct,block_01.thisRepN,block_01.thisTrialN,block_01.thisN,block_01.thisIndex,block_02.thisRepN,block_02.thisTrialN,block_02.thisN,block_02.thisIndex,block_03.thisRepN,block_03.thisTrialN,block_03.thisN,block_03.thisIndex,block_04.thisRepN,block_04.thisTrialN,block_04.thisN,block_04.thisIndex,mouse.x,mouse.y,mouse.leftButton,mouse.midButton,mouse.rightButton,buttonBox_2.keys,buttonBox_2.corr,buttonBox_2.rt,mouse_2.x,mouse_2.y,mouse_2.leftButton,mouse_2.midButton,mouse_2.rightButton,date,Participant,expName,Group,frameRate,
,,,,,,,,,,,,,,,,,,,,,,,,0.9984375,1.0,1,0,0,,,,,,,,,2015_Dez_01_1536,P13,PLC_L_D1S1,NHG,60.0117827525,
stim/posf.jpg,stim/negf.jpg,stim/4.jpg,stim/2.jpg,stim/latef.jpg,CD,2,4,0,0,0,30,,,,,,,,,,,,,,,,,,2,0,0.916403496201,,,,,,2015_Dez_01_1536,P13,PLC_L_D1S1,NHG,60.0117827525,
stim/posf.jpg,stim/negf.jpg,stim/3.jpg,stim/1.jpg,stim/latef.jpg,AB,2,4,0,1,1,17,,,,,,,,,,,,,,,,,,4,1,1.18292971433,,,,,,2015_Dez_01_1536,P13,PLC_L_D1S1,NHG,60.0117827525,
stim/posf.jpg,stim/negf.jpg,stim/6.jpg,stim/5.jpg,stim/latef.jpg,EF,1,2,0,2,2,43,,,,,,,,,,,,,,,,,,2,1,1.03296464476,,,,,,2015_Dez_01_1536,P13,PLC_L_D1S1,NHG,60.0117827525,
stim/posf.jpg,stim/negf.jpg,stim/2.jpg,stim/4.jpg,stim/latef.jpg,CD,1,2,0,3,3,24,,,,,,,,,,,,,,,,,,2,1,1.24957244542,,,,,,2015_Dez_01_1536,P13,PLC_L_D1S1,NHG,60.0117827525,
stim/negf.jpg,stim/posf.jpg,stim/6.jpg,stim/5.jpg,stim/latef.jpg,EF,1,2,0,4,4,46,,,,,,,,,,,,,,,,,,4,0,1.31624023789,,,,,,2015_Dez_01_1536,P13,PLC_L_D1S1,NHG,60.0117827525,
stim/posf.jpg,stim/negf.jpg,stim/4.jpg,stim/2.jpg,stim/latef.jpg,CD,2,4,0,5,5,33,,,,,,,,,,,,,,,,,,4,1,1.41619278279,,,,,,2015_Dez_01_1536,P13,PLC_L_D1S1,NHG,60.0117827525,
stim/posf.jpg,stim/negf.jpg,stim/1.jpg,stim/3.jpg,stim/latef.jpg,AB,1,2,0,6,6,2,,,,,,,,,,,,,,,,,,2,1,1.26625915046,,,,,,2015_Dez_01_1536,P13,PLC_L_D1S1,NHG,60.0117827525,
stim/posf.jpg,stim/negf.jpg,stim/2.jpg,stim/4.jpg,stim/latef.jpg,CD,1,2,0,7,7,23,,,,,,,,,,,,,,,,,,4,0,1.3661857979,,,,,,2015_Dez_01_1536,P13,PLC_L_D1S1,NHG,60.0117827525,
stim/posf.jpg,stim/negf.jpg,stim/1.jpg,stim/3.jpg,stim/latef.jpg,AB,1,2,0,8,8,6,,,,,,,,,,,,,,,,,,2,1,1.14960106465,,,,,,2015_Dez_01_1536,P13,PLC_L_D1S1,NHG,60.0117827525,
stim/posf.jpg,stim/negf.jpg,stim/5.jpg,stim/6.jpg,stim/latef.jpg,EF,2,4,0,9,9,55,,,,,,,,,,,,,,,,,,2,0,1.41618883697,,,,,,2015_Dez_01_1536,P13,PLC_L_D1S1,NHG,60.0117827525,
stim/negf.jpg,stim/posf.jpg,stim/5.jpg,stim/6.jpg,stim/latef.jpg,EF,2,4,0,10,10,58,,,,,,,,,,,,,,,,,,4,1,1.43286562633,,,,,,2015_Dez_01_1536,P13,PLC_L_D1S1,NHG,60.0117827525,
stim/negf.jpg,stim/posf.jpg,stim/4.jpg,stim/2.jpg,stim/latef.jpg,CD,2,4,0,11,11,38,,,,,,,,,,,,,,,,,,2,0,1.29960501799,,,,,,2015_Dez_01_1536,P13,PLC_L_D1S1,NHG,60.0117827525,
stim/posf.jpg,stim/negf.jpg,stim/3.jpg,stim/1.jpg,stim/latef.jpg,AB,2,4,0,12,12,11,,,,,,,,,,,,,,,,,,4,1,1.34958898659,,,,,,2015_Dez_01_1536,P13,PLC_L_D1S1,NHG,60.0117827525,
stim/posf.jpg,stim/negf.jpg,stim/2.jpg,stim/4.jpg,stim/latef.jpg,CD,1,2,0,13,13,20,,,,,,,,,,,,,,,,,,4,0,1.44954075856,,,,,,2015_Dez_01_1536,P13,PLC_L_D1S1,NHG,60.0117827525,
stim/negf.jpg,stim/posf.jpg,stim/5.jpg,stim/6.jpg,stim/latef.jpg,EF,2,4,0,14,14,57,,,,,,,,,,,,,,,,,,2,0,1.34955667718,,,,,,2015_Dez_01_1536,P13,PLC_L_D1S1,NHG,60.0117827525,
stim/posf.jpg,stim/negf.jpg,stim/2.jpg,stim/4.jpg,stim/latef.jpg,CD,1,2,0,15,15,21,,,,,,,,,,,,,,,,,,4,0,1.43279624666,,,,,,2015_Dez_01_1536,P13,PLC_L_D1S1,NHG,60.0117827525,
stim/posf.jpg,stim/negf.jpg,stim/5.jpg,stim/6.jpg,stim/latef.jpg,EF,2,4,0,16,16,53,,,,,,,,,,,,,,,,,,2,0,1.49950247478,,,,,,2015_Dez_01_1536,P13,PLC_L_D1S1,NHG,60.0117827525,
stim/posf.jpg,stim/negf.jpg,stim/2.jpg,stim/4.jpg,stim/latef.jpg,CD,1,2,0,17,17,26,,,,,,,,,,,,,,,,,,2,1,1.29955324113,,,,,,2015_Dez_01_1536,P13,PLC_L_D1S1,NHG,60.0117827525,
stim/posf.jpg,stim/negf.jpg,stim/1.jpg,stim/3.jpg,stim/latef.jpg,AB,1,2,0,18,18,7,,,,,,,,,,,,,,,,,,2,1,1.26625841964,,,,,,2015_Dez_01_1536,P13,PLC_L_D1S1,NHG,60.0117827525,
stim/posf.jpg,stim/negf.jpg,stim/5.jpg,stim/6.jpg,stim/latef.jpg,EF,2,4,0,19,19,54,,,,,,,,,,,,,,,,,,4,1,1.28291879716,,,,,,2015_Dez_01_1536,P13,PLC_L_D1S1,NHG,60.0117827525,
stim/posf.jpg,stim/negf.jpg,stim/3.jpg,stim/1.jpg,stim/latef.jpg,AB,2,4,0,20,20,16,,,,,,,,,,,,,,,,,,None,0,,,,,,,2015_Dez_01_1536,P13,PLC_L_D1S1,NHG,60.0117827525,
stim/posf.jpg,stim/negf.jpg,stim/6.jpg,stim/5.jpg,stim/latef.jpg,EF,1,2,0,21,21,44,,,,,,,,,,,,,,,,,,4,0,0.866372974742,,,,,,2015_Dez_01_1536,P13,PLC_L_D1S1,NHG,60.0117827525,
stim/posf.jpg,stim/negf.jpg,stim/1.jpg,stim/3.jpg,stim/latef.jpg,AB,1,2,0,22,22,4,,,,,,,,,,,,,,,,,,4,0,0.899702595836,,,,,,2015_Dez_01_1536,P13,PLC_L_D1S1,NHG,60.0117827525,
stim/posf.jpg,stim/negf.jpg,stim/4.jpg,stim/2.jpg,stim/latef.jpg,CD,2,4,0,23,23,35,,,,,,,,,,,,,,,,,,4,1,0.982989064034,,,,,,2015_Dez_01_1536,P13,PLC_L_D1S1,NHG,60.0117827525,
stim/negf.jpg,stim/posf.jpg,stim/3.jpg,stim/1.jpg,stim/latef.jpg,AB,2,4,0,24,24,18,,,,,,,,,,,,,,,,,,4,1,0.882978282199,,,,,,2015_Dez_01_1536,P13,PLC_L_D1S1,NHG,60.0117827525,
stim/posf.jpg,stim/negf.jpg,stim/1.jpg,stim/3.jpg,stim/latef.jpg,AB,1,2,0,25,25,1,,,,,,,,,,,,,,,,,,2,1,1.38287023229,,,,,,2015_Dez_01_1536,P13,PLC_L_D1S1,NHG,60.0117827525,
stim/posf.jpg,stim/negf.jpg,stim/6.jpg,stim/5.jpg,stim/latef.jpg,EF,1,2,0,26,26,41,,,,,,,,,,,,,,,,,,4,0,0.916393141431,,,,,,2015_Dez_01_1536,P13,PLC_L_D1S1,NHG,60.0117827525,
stim/negf.jpg,stim/posf.jpg,stim/6.jpg,stim/5.jpg,stim/latef.jpg,EF,1,2,0,27,27,48,,,,,,,,,,,,,,,,,,2,1,0.54982933576,,,,,,2015_Dez_01_1536,P13,PLC_L_D1S1,NHG,60.0117827525,
stim/posf.jpg,stim/negf.jpg,stim/6.jpg,stim/5.jpg,stim/latef.jpg,EF,1,2,0,28,28,40,,,,,,,,,,,,,,,,,,4,0,1.06631801296,,,,,,2015_Dez_01_1536,P13,PLC_L_D1S1,NHG,60.0117827525,
stim/posf.jpg,stim/negf.jpg,stim/5.jpg,stim/6.jpg,stim/latef.jpg,EF,2,4,0,29,29,52,,,,,,,,,,,,,,,,,,4,1,0.999584230252,,,,,,2015_Dez_01_1536,P13,PLC_L_D1S1,NHG,60.0117827525,
stim/posf.jpg,stim/negf.jpg,stim/4.jpg,stim/2.jpg,stim/latef.jpg,CD,2,4,0,30,30,31,,,,,,,,,,,,,,,,,,4,1,1.31623814769,,,,,,2015_Dez_01_1536,P13,PLC_L_D1S1,NHG,60.0117827525,
stim/negf.jpg,stim/posf.jpg,stim/3.jpg,stim/1.jpg,stim/latef.jpg,AB,2,4,0,31,31,19,,,,,,,,,,,,,,,,,,4,1,1.48278983921,,,,,,2015_Dez_01_1536,P13,PLC_L_D1S1,NHG,60.0117827525,
stim/negf.jpg,stim/posf.jpg,stim/4.jpg,stim/2.jpg,stim/latef.jpg,CD,2,4,0,32,32,37,,,,,,,,,,,,,,,,,,4,1,0.866382755081,,,,,,2015_Dez_01_1536,P13,PLC_L_D1S1,NHG,60.0117827525,
stim/negf.jpg,stim/posf.jpg,stim/2.jpg,stim/4.jpg,stim/latef.jpg,CD,1,2,0,33,33,29,,,,,,,,,,,,,,,,,,2,1,1.18294390665,,,,,,2015_Dez_01_1536,P13,PLC_L_D1S1,NHG,60.0117827525,
stim/posf.jpg,stim/negf.jpg,stim/1.jpg,stim/3.jpg,stim/latef.jpg,AB,1,2,0,34,34,3,,,,,,,,,,,,,,,,,,4,0,1.31621685169,,,,,,2015_Dez_01_1536,P13,PLC_L_D1S1,NHG,60.0117827525,
stim/posf.jpg,stim/negf.jpg,stim/3.jpg,stim/1.jpg,stim/latef.jpg,AB,2,4,0,35,35,14,,,,,,,,,,,,,,,,,,None,0,,,,,,,2015_Dez_01_1536,P13,PLC_L_D1S1,NHG,60.0117827525,
stim/negf.jpg,stim/posf.jpg,stim/2.jpg,stim/4.jpg,stim/latef.jpg,CD,1,2,0,36,36,28,,,,,,,,,,,,,,,,,,2,1,1.41621982309,,,,,,2015_Dez_01_1536,P13,PLC_L_D1S1,NHG,60.0117827525,
stim/posf.jpg,stim/negf.jpg,stim/4.jpg,stim/2.jpg,stim/latef.jpg,CD,2,4,0,37,37,36,,,,,,,,,,,,,,,,,,4,1,1.18297196347,,,,,,2015_Dez_01_1536,P13,PLC_L_D1S1,NHG,60.0117827525,
stim/posf.jpg,stim/negf.jpg,stim/6.jpg,stim/5.jpg,stim/latef.jpg,EF,1,2,0,38,38,42,,,,,,,,,,,,,,,,,,4,0,1.23291792348,,,,,,2015_Dez_01_1536,P13,PLC_L_D1S1,NHG,60.0117827525,
stim/posf.jpg,stim/negf.jpg,stim/1.jpg,stim/3.jpg,stim/latef.jpg,AB,1,2,0,39,39,0,,,,,,,,,,,,,,,,,,2,1,1.18294217734,,,,,,2015_Dez_01_1536,P13,PLC_L_D1S1,NHG,60.0117827525,
stim/posf.jpg,stim/negf.jpg,stim/2.jpg,stim/4.jpg,stim/latef.jpg,CD,1,2,0,40,40,22,,,,,,,,,,,,,,,,,,2,1,1.23291251602,,,,,,2015_Dez_01_1536,P13,PLC_L_D1S1,NHG,60.0117827525,
stim/posf.jpg,stim/negf.jpg,stim/4.jpg,stim/2.jpg,stim/latef.jpg,CD,2,4,0,41,41,34,,,,,,,,,,,,,,,,,,2,0,1.19961098183,,,,,,2015_Dez_01_1536,P13,PLC_L_D1S1,NHG,60.0117827525,
stim/posf.jpg,stim/negf.jpg,stim/3.jpg,stim/1.jpg,stim/latef.jpg,AB,2,4,0,42,42,10,,,,,,,,,,,,,,,,,,4,1,1.18290950102,,,,,,2015_Dez_01_1536,P13,PLC_L_D1S1,NHG,60.0117827525,
stim/posf.jpg,stim/negf.jpg,stim/5.jpg,stim/6.jpg,stim/latef.jpg,EF,2,4,0,43,43,51,,,,,,,,,,,,,,,,,,4,1,1.01629738311,,,,,,2015_Dez_01_1536,P13,PLC_L_D1S1,NHG,60.0117827525,
stim/negf.jpg,stim/posf.jpg,stim/4.jpg,stim/2.jpg,stim/latef.jpg,CD,2,4,0,44,44,39,,,,,,,,,,,,,,,,,,2,0,1.23293068123,,,,,,2015_Dez_01_1536,P13,PLC_L_D1S1,NHG,60.0117827525,
stim/posf.jpg,stim/negf.jpg,stim/3.jpg,stim/1.jpg,stim/latef.jpg,AB,2,4,0,45,45,13,,,,,,,,,,,,,,,,,,4,1,1.249585134,,,,,,2015_Dez_01_1536,P13,PLC_L_D1S1,NHG,60.0117827525,
stim/posf.jpg,stim/negf.jpg,stim/3.jpg,stim/1.jpg,stim/latef.jpg,AB,2,4,0,46,46,15,,,,,,,,,,,,,,,,,,4,1,1.53282005692,,,,,,2015_Dez_01_1536,P13,PLC_L_D1S1,NHG,60.0117827525,
stim/posf.jpg,stim/negf.jpg,stim/3.jpg,stim/1.jpg,stim/latef.jpg,AB,2,4,0,47,47,12,,,,,,,,,,,,,,,,,,2,0,1.36622411928,,,,,,2015_Dez_01_1536,P13,PLC_L_D1S1,NHG,60.0117827525,
stim/posf.jpg,stim/negf.jpg,stim/4.jpg,stim/2.jpg,stim/latef.jpg,CD,2,4,0,48,48,32,,,,,,,,,,,,,,,,,,4,1,1.38284935132,,,,,,2015_Dez_01_1536,P13,PLC_L_D1S1,NHG,60.0117827525,
stim/negf.jpg,stim/posf.jpg,stim/6.jpg,stim/5.jpg,stim/latef.jpg,EF,1,2,0,49,49,49,,,,,,,,,,,,,,,,,,4,0,1.09960892772,,,,,,2015_Dez_01_1536,P13,PLC_L_D1S1,NHG,60.0117827525,
stim/posf.jpg,stim/negf.jpg,stim/5.jpg,stim/6.jpg,stim/latef.jpg,EF,2,4,0,50,50,50,,,,,,,,,,,,,,,,,,2,0,1.01626650526,,,,,,2015_Dez_01_1536,P13,PLC_L_D1S1,NHG,60.0117827525,
stim/posf.jpg,stim/negf.jpg,stim/1.jpg,stim/3.jpg,stim/latef.jpg,AB,1,2,0,51,51,5,,,,,,,,,,,,,,,,,,2,1,1.36620505784,,,,,,2015_Dez_01_1536,P13,PLC_L_D1S1,NHG,60.0117827525,
stim/negf.jpg,stim/posf.jpg,stim/5.jpg,stim/6.jpg,stim/latef.jpg,EF,2,4,0,52,52,56,,,,,,,,,,,,,,,,,,2,0,1.23292427529,,,,,,2015_Dez_01_1536,P13,PLC_L_D1S1,NHG,60.0117827525,
stim/posf.jpg,stim/negf.jpg,stim/6.jpg,stim/5.jpg,stim/latef.jpg,EF,1,2,0,53,53,45,,,,,,,,,,,,,,,,,,4,0,1.08307497284,,,,,,2015_Dez_01_1536,P13,PLC_L_D1S1,NHG,60.0117827525,
stim/negf.jpg,stim/posf.jpg,stim/1.jpg,stim/3.jpg,stim/latef.jpg,AB,1,2,0,54,54,9,,,,,,,,,,,,,,,,,,4,0,1.51614365251,,,,,,2015_Dez_01_1536,P13,PLC_L_D1S1,NHG,60.0117827525,
stim/negf.jpg,stim/posf.jpg,stim/1.jpg,stim/3.jpg,stim/latef.jpg,AB,1,2,0,55,55,8,,,,,,,,,,,,,,,,,,2,1,1.24958275809,,,,,,2015_Dez_01_1536,P13,PLC_L_D1S1,NHG,60.0117827525,
stim/negf.jpg,stim/posf.jpg,stim/5.jpg,stim/6.jpg,stim/latef.jpg,EF,2,4,0,56,56,59,,,,,,,,,,,,,,,,,,4,1,1.24958240321,,,,,,2015_Dez_01_1536,P13,PLC_L_D1S1,NHG,60.0117827525,
stim/posf.jpg,stim/negf.jpg,stim/2.jpg,stim/4.jpg,stim/latef.jpg,CD,1,2,0,57,57,25,,,,,,,,,,,,,,,,,,2,1,1.39948775014,,,,,,2015_Dez_01_1536,P13,PLC_L_D1S1,NHG,60.0117827525,
stim/negf.jpg,stim/posf.jpg,stim/2.jpg,stim/4.jpg,stim/latef.jpg,CD,1,2,0,58,58,27,,,,,,,,,,,,,,,,,,4,0,1.16625730386,,,,,,2015_Dez_01_1536,P13,PLC_L_D1S1,NHG,60.0117827525,
stim/negf.jpg,stim/posf.jpg,stim/6.jpg,stim/5.jpg,stim/latef.jpg,EF,1,2,0,59,59,47,,,,,,,,,,,,,,,,,,4,0,1.11628099833,,,,,,2015_Dez_01_1536,P13,PLC_L_D1S1,NHG,60.0117827525,
,,,,,,,,,,,,,,,,,,,,,,,,,,,,,,,,0.9984375,1.0,1,0,0,2015_Dez_01_1536,P13,PLC_L_D1S1,NHG,60.0117827525,
stim/posf.jpg,stim/negf.jpg,stim/2.jpg,stim/4.jpg,stim/latef.jpg,CD,1,2,,,,,0,0,0,21,,,,,,,,,,,,,,2,1,1.2496299726,,,,,,2015_Dez_01_1536,P13,PLC_L_D1S1,NHG,60.0117827525,
stim/posf.jpg,stim/negf.jpg,stim/2.jpg,stim/4.jpg,stim/latef.jpg,CD,1,2,,,,,0,1,1,20,,,,,,,,,,,,,,4,0,1.23297262061,,,,,,2015_Dez_01_1536,P13,PLC_L_D1S1,NHG,60.0117827525,
stim/posf.jpg,stim/negf.jpg,stim/3.jpg,stim/1.jpg,stim/latef.jpg,AB,2,4,,,,,0,2,2,13,,,,,,,,,,,,,,4,1,1.16625156558,,,,,,2015_Dez_01_1536,P13,PLC_L_D1S1,NHG,60.0117827525,
stim/negf.jpg,stim/posf.jpg,stim/3.jpg,stim/1.jpg,stim/latef.jpg,AB,2,4,,,,,0,3,3,19,,,,,,,,,,,,,,4,1,1.51607284128,,,,,,2015_Dez_01_1536,P13,PLC_L_D1S1,NHG,60.0117827525,
stim/negf.jpg,stim/posf.jpg,stim/6.jpg,stim/5.jpg,stim/latef.jpg,EF,1,2,,,,,0,4,4,48,,,,,,,,,,,,,,2,1,1.28291556411,,,,,,2015_Dez_01_1536,P13,PLC_L_D1S1,NHG,60.0117827525,
stim/posf.jpg,stim/negf.jpg,stim/4.jpg,stim/2.jpg,stim/latef.jpg,CD,2,4,,,,,0,5,5,32,,,,,,,,,,,,,,4,1,1.349498344,,,,,,2015_Dez_01_1536,P13,PLC_L_D1S1,NHG,60.0117827525,
stim/posf.jpg,stim/negf.jpg,stim/6.jpg,stim/5.jpg,stim/latef.jpg,EF,1,2,,,,,0,6,6,42,,,,,,,,,,,,,,4,0,1.18294194577,,,,,,2015_Dez_01_1536,P13,PLC_L_D1S1,NHG,60.0117827525,
stim/negf.jpg,stim/posf.jpg,stim/6.jpg,stim/5.jpg,stim/latef.jpg,EF,1,2,,,,,0,7,7,47,,,,,,,,,,,,,,4,0,1.13296021473,,,,,,2015_Dez_01_1536,P13,PLC_L_D1S1,NHG,60.0117827525,
stim/posf.jpg,stim/negf.jpg,stim/3.jpg,stim/1.jpg,stim/latef.jpg,AB,2,4,,,,,0,8,8,17,,,,,,,,,,,,,,4,1,0.866368686067,,,,,,2015_Dez_01_1536,P13,PLC_L_D1S1,NHG,60.0117827525,
stim/posf.jpg,stim/negf.jpg,stim/6.jpg,stim/5.jpg,stim/latef.jpg,EF,1,2,,,,,0,9,9,44,,,,,,,,,,,,,,4,0,1.11629809889,,,,,,2015_Dez_01_1536,P13,PLC_L_D1S1,NHG,60.0117827525,
stim/posf.jpg,stim/negf.jpg,stim/3.jpg,stim/1.jpg,stim/latef.jpg,AB,2,4,,,,,0,10,10,15,,,,,,,,,,,,,,4,1,1.19953916911,,,,,,2015_Dez_01_1536,P13,PLC_L_D1S1,NHG,60.0117827525,
stim/posf.jpg,stim/negf.jpg,stim/1.jpg,stim/3.jpg,stim/latef.jpg,AB,1,2,,,,,0,11,11,3,,,,,,,,,,,,,,2,1,1.19963232896,,,,,,2015_Dez_01_1536,P13,PLC_L_D1S1,NHG,60.0117827525,
stim/negf.jpg,stim/posf.jpg,stim/2.jpg,stim/4.jpg,stim/latef.jpg,CD,1,2,,,,,0,12,12,27,,,,,,,,,,,,,,2,1,1.54948510205,,,,,,2015_Dez_01_1536,P13,PLC_L_D1S1,NHG,60.0117827525,
stim/negf.jpg,stim/posf.jpg,stim/5.jpg,stim/6.jpg,stim/latef.jpg,EF,2,4,,,,,0,13,13,57,,,,,,,,,,,,,,4,1,1.54947835927,,,,,,2015_Dez_01_1536,P13,PLC_L_D1S1,NHG,60.0117827525,
stim/posf.jpg,stim/negf.jpg,stim/2.jpg,stim/4.jpg,stim/latef.jpg,CD,1,2,,,,,0,14,14,22,,,,,,,,,,,,,,2,1,1.56616138916,,,,,,2015_Dez_01_1536,P13,PLC_L_D1S1,NHG,60.0117827525,
stim/posf.jpg,stim/negf.jpg,stim/5.jpg,stim/6.jpg,stim/latef.jpg,EF,2,4,,,,,0,15,15,53,,,,,,,,,,,,,,None,0,,,,,,,2015_Dez_01_1536,P13,PLC_L_D1S1,NHG,60.0117827525,
stim/posf.jpg,stim/negf.jpg,stim/5.jpg,stim/6.jpg,stim/latef.jpg,EF,2,4,,,,,0,16,16,52,,,,,,,,,,,,,,4,1,1.2995535509,,,,,,2015_Dez_01_1536,P13,PLC_L_D1S1,NHG,60.0117827525,
stim/posf.jpg,stim/negf.jpg,stim/4.jpg,stim/2.jpg,stim/latef.jpg,CD,2,4,,,,,0,17,17,33,,,,,,,,,,,,,,4,1,0.833011573553,,,,,,2015_Dez_01_1536,P13,PLC_L_D1S1,NHG,60.0117827525,
stim/posf.jpg,stim/negf.jpg,stim/6.jpg,stim/5.jpg,stim/latef.jpg,EF,1,2,,,,,0,18,18,45,,,,,,,,,,,,,,2,1,0.966255388097,,,,,,2015_Dez_01_1536,P13,PLC_L_D1S1,NHG,60.0117827525,
stim/posf.jpg,stim/negf.jpg,stim/5.jpg,stim/6.jpg,stim/latef.jpg,EF,2,4,,,,,0,19,19,54,,,,,,,,,,,,,,2,0,1.03296943268,,,,,,2015_Dez_01_1536,P13,PLC_L_D1S1,NHG,60.0117827525,
stim/negf.jpg,stim/posf.jpg,stim/4.jpg,stim/2.jpg,stim/latef.jpg,CD,2,4,,,,,0,20,20,37,,,,,,,,,,,,,,4,1,1.18291181678,,,,,,2015_Dez_01_1536,P13,PLC_L_D1S1,NHG,60.0117827525,
stim/negf.jpg,stim/posf.jpg,stim/6.jpg,stim/5.jpg,stim/latef.jpg,EF,1,2,,,,,0,21,21,49,,,,,,,,,,,,,,2,1,0.866358072653,,,,,,2015_Dez_01_1536,P13,PLC_L_D1S1,NHG,60.0117827525,
stim/posf.jpg,stim/negf.jpg,stim/1.jpg,stim/3.jpg,stim/latef.jpg,AB,1,2,,,,,0,22,22,6,,,,,,,,,,,,,,4,0,1.0496428717,,,,,,2015_Dez_01_1536,P13,PLC_L_D1S1,NHG,60.0117827525,
stim/posf.jpg,stim/negf.jpg,stim/3.jpg,stim/1.jpg,stim/latef.jpg,AB,2,4,,,,,0,23,23,10,,,,,,,,,,,,,,4,1,0.98297131085,,,,,,2015_Dez_01_1536,P13,PLC_L_D1S1,NHG,60.0117827525,
stim/posf.jpg,stim/negf.jpg,stim/4.jpg,stim/2.jpg,stim/latef.jpg,CD,2,4,,,,,0,24,24,34,,,,,,,,,,,,,,2,0,1.33288069383,,,,,,2015_Dez_01_1536,P13,PLC_L_D1S1,NHG,60.0117827525,
stim/posf.jpg,stim/negf.jpg,stim/4.jpg,stim/2.jpg,stim/latef.jpg,CD,2,4,,,,,0,25,25,30,,,,,,,,,,,,,,4,1,0.983005620237,,,,,,2015_Dez_01_1536,P13,PLC_L_D1S1,NHG,60.0117827525,
stim/negf.jpg,stim/posf.jpg,stim/6.jpg,stim/5.jpg,stim/latef.jpg,EF,1,2,,,,,0,26,26,46,,,,,,,,,,,,,,4,0,0.999667068416,,,,,,2015_Dez_01_1536,P13,PLC_L_D1S1,NHG,60.0117827525,
stim/negf.jpg,stim/posf.jpg,stim/4.jpg,stim/2.jpg,stim/latef.jpg,CD,2,4,,,,,0,27,27,38,,,,,,,,,,,,,,2,0,1.23292821209,,,,,,2015_Dez_01_1536,P13,PLC_L_D1S1,NHG,60.0117827525,
stim/posf.jpg,stim/negf.jpg,stim/1.jpg,stim/3.jpg,stim/latef.jpg,AB,1,2,,,,,0,28,28,4,,,,,,,,,,,,,,2,1,0.999644578444,,,,,,2015_Dez_01_1536,P13,PLC_L_D1S1,NHG,60.0117827525,
stim/posf.jpg,stim/negf.jpg,stim/5.jpg,stim/6.jpg,stim/latef.jpg,EF,2,4,,,,,0,29,29,50,,,,,,,,,,,,,,2,0,1.09964385364,,,,,,2015_Dez_01_1536,P13,PLC_L_D1S1,NHG,60.0117827525,
stim/posf.jpg,stim/negf.jpg,stim/3.jpg,stim/1.jpg,stim/latef.jpg,AB,2,4,,,,,0,30,30,11,,,,,,,,,,,,,,4,1,1.21627349165,,,,,,2015_Dez_01_1536,P13,PLC_L_D1S1,NHG,60.0117827525,
stim/posf.jpg,stim/negf.jpg,stim/1.jpg,stim/3.jpg,stim/latef.jpg,AB,1,2,,,,,0,31,31,2,,,,,,,,,,,,,,2,1,1.13295844633,,,,,,2015_Dez_01_1536,P13,PLC_L_D1S1,NHG,60.0117827525,
stim/posf.jpg,stim/negf.jpg,stim/4.jpg,stim/2.jpg,stim/latef.jpg,CD,2,4,,,,,0,32,32,35,,,,,,,,,,,,,,4,1,1.06625960459,,,,,,2015_Dez_01_1536,P13,PLC_L_D1S1,NHG,60.0117827525,
stim/negf.jpg,stim/posf.jpg,stim/2.jpg,stim/4.jpg,stim/latef.jpg,CD,1,2,,,,,0,33,33,29,,,,,,,,,,,,,,4,0,1.26623552667,,,,,,2015_Dez_01_1536,P13,PLC_L_D1S1,NHG,60.0117827525,
stim/negf.jpg,stim/posf.jpg,stim/2.jpg,stim/4.jpg,stim/latef.jpg,CD,1,2,,,,,0,34,34,28,,,,,,,,,,,,,,2,1,1.08300039924,,,,,,2015_Dez_01_1536,P13,PLC_L_D1S1,NHG,60.0117827525,
stim/negf.jpg,stim/posf.jpg,stim/4.jpg,stim/2.jpg,stim/latef.jpg,CD,2,4,,,,,0,35,35,39,,,,,,,,,,,,,,2,0,1.06631186565,,,,,,2015_Dez_01_1536,P13,PLC_L_D1S1,NHG,60.0117827525,
stim/posf.jpg,stim/negf.jpg,stim/3.jpg,stim/1.jpg,stim/latef.jpg,AB,2,4,,,,,0,36,36,12,,,,,,,,,,,,,,4,1,1.21627967203,,,,,,2015_Dez_01_1536,P13,PLC_L_D1S1,NHG,60.0117827525,
stim/posf.jpg,stim/negf.jpg,stim/3.jpg,stim/1.jpg,stim/latef.jpg,AB,2,4,,,,,0,37,37,14,,,,,,,,,,,,,,2,0,1.34954456905,,,,,,2015_Dez_01_1536,P13,PLC_L_D1S1,NHG,60.0117827525,
stim/negf.jpg,stim/posf.jpg,stim/5.jpg,stim/6.jpg,stim/latef.jpg,EF,2,4,,,,,0,38,38,56,,,,,,,,,,,,,,2,0,1.41616137262,,,,,,2015_Dez_01_1536,P13,PLC_L_D1S1,NHG,60.0117827525,
stim/posf.jpg,stim/negf.jpg,stim/4.jpg,stim/2.jpg,stim/latef.jpg,CD,2,4,,,,,0,39,39,31,,,,,,,,,,,,,,2,0,1.03294131269,,,,,,2015_Dez_01_1536,P13,PLC_L_D1S1,NHG,60.0117827525,
stim/posf.jpg,stim/negf.jpg,stim/4.jpg,stim/2.jpg,stim/latef.jpg,CD,2,4,,,,,0,40,40,36,,,,,,,,,,,,,,4,1,1.16627477134,,,,,,2015_Dez_01_1536,P13,PLC_L_D1S1,NHG,60.0117827525,
stim/posf.jpg,stim/negf.jpg,stim/2.jpg,stim/4.jpg,stim/latef.jpg,CD,1,2,,,,,0,41,41,23,,,,,,,,,,,,,,2,1,1.11627522396,,,,,,2015_Dez_01_1536,P13,PLC_L_D1S1,NHG,60.0117827525,
stim/posf.jpg,stim/negf.jpg,stim/1.jpg,stim/3.jpg,stim/latef.jpg,AB,1,2,,,,,0,42,42,7,,,,,,,,,,,,,,2,1,1.14967363526,,,,,,2015_Dez_01_1536,P13,PLC_L_D1S1,NHG,60.0117827525,
stim/posf.jpg,stim/negf.jpg,stim/2.jpg,stim/4.jpg,stim/latef.jpg,CD,1,2,,,,,0,43,43,26,,,,,,,,,,,,,,4,0,0.883043701009,,,,,,2015_Dez_01_1536,P13,PLC_L_D1S1,NHG,60.0117827525,
stim/posf.jpg,stim/negf.jpg,stim/6.jpg,stim/5.jpg,stim/latef.jpg,EF,1,2,,,,,0,44,44,43,,,,,,,,,,,,,,2,1,1.18293860144,,,,,,2015_Dez_01_1536,P13,PLC_L_D1S1,NHG,60.0117827525,
stim/posf.jpg,stim/negf.jpg,stim/3.jpg,stim/1.jpg,stim/latef.jpg,AB,2,4,,,,,0,45,45,16,,,,,,,,,,,,,,4,1,0.733089569667,,,,,,2015_Dez_01_1536,P13,PLC_L_D1S1,NHG,60.0117827525,
stim/negf.jpg,stim/posf.jpg,stim/3.jpg,stim/1.jpg,stim/latef.jpg,AB,2,4,,,,,0,46,46,18,,,,,,,,,,,,,,4,1,1.11629125386,,,,,,2015_Dez_01_1536,P13,PLC_L_D1S1,NHG,60.0117827525,
stim/posf.jpg,stim/negf.jpg,stim/5.jpg,stim/6.jpg,stim/latef.jpg,EF,2,4,,,,,0,47,47,51,,,,,,,,,,,,,,2,0,0.849687896754,,,,,,2015_Dez_01_1536,P13,PLC_L_D1S1,NHG,60.0117827525,
stim/negf.jpg,stim/posf.jpg,stim/5.jpg,stim/6.jpg,stim/latef.jpg,EF,2,4,,,,,0,48,48,59,,,,,,,,,,,,,,4,1,0.916379409255,,,,,,2015_Dez_01_1536,P13,PLC_L_D1S1,NHG,60.0117827525,
stim/posf.jpg,stim/negf.jpg,stim/1.jpg,stim/3.jpg,stim/latef.jpg,AB,1,2,,,,,0,49,49,5,,,,,,,,,,,,,,2,1,0.933012409634,,,,,,2015_Dez_01_1536,P13,PLC_L_D1S1,NHG,60.0117827525,
stim/posf.jpg,stim/negf.jpg,stim/1.jpg,stim/3.jpg,stim/latef.jpg,AB,1,2,,,,,0,50,50,0,,,,,,,,,,,,,,4,0,0.983009632222,,,,,,2015_Dez_01_1536,P13,PLC_L_D1S1,NHG,60.0117827525,
stim/posf.jpg,stim/negf.jpg,stim/1.jpg,stim/3.jpg,stim/latef.jpg,AB,1,2,,,,,0,51,51,1,,,,,,,,,,,,,,4,0,0.916368043971,,,,,,2015_Dez_01_1536,P13,PLC_L_D1S1,NHG,60.0117827525,
stim/posf.jpg,stim/negf.jpg,stim/6.jpg,stim/5.jpg,stim/latef.jpg,EF,1,2,,,,,0,52,52,41,,,,,,,,,,,,,,4,0,1.2995623117,,,,,,2015_Dez_01_1536,P13,PLC_L_D1S1,NHG,60.0117827525,
stim/posf.jpg,stim/negf.jpg,stim/2.jpg,stim/4.jpg,stim/latef.jpg,CD,1,2,,,,,0,53,53,25,,,,,,,,,,,,,,4,0,1.26622991771,,,,,,2015_Dez_01_1536,P13,PLC_L_D1S1,NHG,60.0117827525,
stim/negf.jpg,stim/posf.jpg,stim/1.jpg,stim/3.jpg,stim/latef.jpg,AB,1,2,,,,,0,54,54,8,,,,,,,,,,,,,,2,1,1.28291534156,,,,,,2015_Dez_01_1536,P13,PLC_L_D1S1,NHG,60.0117827525,
stim/negf.jpg,stim/posf.jpg,stim/5.jpg,stim/6.jpg,stim/latef.jpg,EF,2,4,,,,,0,55,55,58,,,,,,,,,,,,,,4,1,1.04964997538,,,,,,2015_Dez_01_1536,P13,PLC_L_D1S1,NHG,60.0117827525,
stim/negf.jpg,stim/posf.jpg,stim/1.jpg,stim/3.jpg,stim/latef.jpg,AB,1,2,,,,,0,56,56,9,,,,,,,,,,,,,,4,0,0.933087969684,,,,,,2015_Dez_01_1536,P13,PLC_L_D1S1,NHG,60.0117827525,
stim/posf.jpg,stim/negf.jpg,stim/6.jpg,stim/5.jpg,stim/latef.jpg,EF,1,2,,,,,0,57,57,40,,,,,,,,,,,,,,2,1,0.833046150607,,,,,,2015_Dez_01_1536,P13,PLC_L_D1S1,NHG,60.0117827525,
stim/posf.jpg,stim/negf.jpg,stim/5.jpg,stim/6.jpg,stim/latef.jpg,EF,2,4,,,,,0,58,58,55,,,,,,,,,,,,,,4,1,0.68305438059,,,,,,2015_Dez_01_1536,P13,PLC_L_D1S1,NHG,60.0117827525,
stim/posf.jpg,stim/negf.jpg,stim/2.jpg,stim/4.jpg,stim/latef.jpg,CD,1,2,,,,,0,59,59,24,,,,,,,,,,,,,,2,1,0.899691687688,,,,,,2015_Dez_01_1536,P13,PLC_L_D1S1,NHG,60.0117827525,
,,,,,,,,,,,,,,,,,,,,,,,,,,,,,,,,0.9984375,1.0,1,0,0,2015_Dez_01_1536,P13,PLC_L_D1S1,NHG,60.0117827525,
stim/posf.jpg,stim/negf.jpg,stim/3.jpg,stim/1.jpg,stim/latef.jpg,AB,2,4,,,,,,,,,0,0,0,13,,,,,,,,,,4,1,0.783061914339,,,,,,2015_Dez_01_1536,P13,PLC_L_D1S1,NHG,60.0117827525,
stim/posf.jpg,stim/negf.jpg,stim/3.jpg,stim/1.jpg,stim/latef.jpg,AB,2,4,,,,,,,,,0,1,1,11,,,,,,,,,,2,0,0.982993451953,,,,,,2015_Dez_01_1536,P13,PLC_L_D1S1,NHG,60.0117827525,
stim/posf.jpg,stim/negf.jpg,stim/1.jpg,stim/3.jpg,stim/latef.jpg,AB,1,2,,,,,,,,,0,2,2,3,,,,,,,,,,2,1,0.966341952533,,,,,,2015_Dez_01_1536,P13,PLC_L_D1S1,NHG,60.0117827525,
stim/negf.jpg,stim/posf.jpg,stim/6.jpg,stim/5.jpg,stim/latef.jpg,EF,1,2,,,,,,,,,0,3,3,47,,,,,,,,,,4,0,0.983002639819,,,,,,2015_Dez_01_1536,P13,PLC_L_D1S1,NHG,60.0117827525,
stim/posf.jpg,stim/negf.jpg,stim/2.jpg,stim/4.jpg,stim/latef.jpg,CD,1,2,,,,,,,,,0,4,4,20,,,,,,,,,,4,0,0.949688958395,,,,,,2015_Dez_01_1536,P13,PLC_L_D1S1,NHG,60.0117827525,
stim/posf.jpg,stim/negf.jpg,stim/1.jpg,stim/3.jpg,stim/latef.jpg,AB,1,2,,,,,,,,,0,5,5,1,,,,,,,,,,2,1,0.966303989053,,,,,,2015_Dez_01_1536,P13,PLC_L_D1S1,NHG,60.0117827525,
stim/negf.jpg,stim/posf.jpg,stim/2.jpg,stim/4.jpg,stim/latef.jpg,CD,1,2,,,,,,,,,0,6,6,28,,,,,,,,,,2,1,1.16627472322,,,,,,2015_Dez_01_1536,P13,PLC_L_D1S1,NHG,60.0117827525,
stim/posf.jpg,stim/negf.jpg,stim/5.jpg,stim/6.jpg,stim/latef.jpg,EF,2,4,,,,,,,,,0,7,7,53,,,,,,,,,,2,0,1.18294370815,,,,,,2015_Dez_01_1536,P13,PLC_L_D1S1,NHG,60.0117827525,
stim/posf.jpg,stim/negf.jpg,stim/4.jpg,stim/2.jpg,stim/latef.jpg,CD,2,4,,,,,,,,,0,8,8,34,,,,,,,,,,4,1,0.899704385289,,,,,,2015_Dez_01_1536,P13,PLC_L_D1S1,NHG,60.0117827525,
stim/posf.jpg,stim/negf.jpg,stim/2.jpg,stim/4.jpg,stim/latef.jpg,CD,1,2,,,,,,,,,0,9,9,22,,,,,,,,,,2,1,1.23288937944,,,,,,2015_Dez_01_1536,P13,PLC_L_D1S1,NHG,60.0117827525,
stim/negf.jpg,stim/posf.jpg,stim/2.jpg,stim/4.jpg,stim/latef.jpg,CD,1,2,,,,,,,,,0,10,10,27,,,,,,,,,,4,0,0.999658205359,,,,,,2015_Dez_01_1536,P13,PLC_L_D1S1,NHG,60.0117827525,
stim/posf.jpg,stim/negf.jpg,stim/6.jpg,stim/5.jpg,stim/latef.jpg,EF,1,2,,,,,,,,,0,11,11,44,,,,,,,,,,4,0,0.766413467518,,,,,,2015_Dez_01_1536,P13,PLC_L_D1S1,NHG,60.0117827525,
stim/posf.jpg,stim/negf.jpg,stim/5.jpg,stim/6.jpg,stim/latef.jpg,EF,2,4,,,,,,,,,0,12,12,51,,,,,,,,,,4,1,1.38290802134,,,,,,2015_Dez_01_1536,P13,PLC_L_D1S1,NHG,60.0117827525,
stim/posf.jpg,stim/negf.jpg,stim/4.jpg,stim/2.jpg,stim/latef.jpg,CD,2,4,,,,,,,,,0,13,13,33,,,,,,,,,,2,0,1.34953827137,,,,,,2015_Dez_01_1536,P13,PLC_L_D1S1,NHG,60.0117827525,
stim/posf.jpg,stim/negf.jpg,stim/4.jpg,stim/2.jpg,stim/latef.jpg,CD,2,4,,,,,,,,,0,14,14,36,,,,,,,,,,4,1,1.06631922798,,,,,,2015_Dez_01_1536,P13,PLC_L_D1S1,NHG,60.0117827525,
stim/posf.jpg,stim/negf.jpg,stim/3.jpg,stim/1.jpg,stim/latef.jpg,AB,2,4,,,,,,,,,0,15,15,16,,,,,,,,,,4,1,1.09962927035,,,,,,2015_Dez_01_1536,P13,PLC_L_D1S1,NHG,60.0117827525,
stim/posf.jpg,stim/negf.jpg,stim/1.jpg,stim/3.jpg,stim/latef.jpg,AB,1,2,,,,,,,,,0,16,16,0,,,,,,,,,,2,1,0.933009302902,,,,,,2015_Dez_01_1536,P13,PLC_L_D1S1,NHG,60.0117827525,
stim/posf.jpg,stim/negf.jpg,stim/3.jpg,stim/1.jpg,stim/latef.jpg,AB,2,4,,,,,,,,,0,17,17,12,,,,,,,,,,2,0,1.08296255005,,,,,,2015_Dez_01_1536,P13,PLC_L_D1S1,NHG,60.0117827525,
stim/posf.jpg,stim/negf.jpg,stim/1.jpg,stim/3.jpg,stim/latef.jpg,AB,1,2,,,,,,,,,0,18,18,2,,,,,,,,,,2,1,1.04965949106,,,,,,2015_Dez_01_1536,P13,PLC_L_D1S1,NHG,60.0117827525,
stim/negf.jpg,stim/posf.jpg,stim/6.jpg,stim/5.jpg,stim/latef.jpg,EF,1,2,,,,,,,,,0,19,19,46,,,,,,,,,,4,0,0.816396052676,,,,,,2015_Dez_01_1536,P13,PLC_L_D1S1,NHG,60.0117827525,
stim/posf.jpg,stim/negf.jpg,stim/3.jpg,stim/1.jpg,stim/latef.jpg,AB,2,4,,,,,,,,,0,20,20,15,,,,,,,,,,4,1,1.01631733777,,,,,,2015_Dez_01_1536,P13,PLC_L_D1S1,NHG,60.0117827525,
stim/posf.jpg,stim/negf.jpg,stim/4.jpg,stim/2.jpg,stim/latef.jpg,CD,2,4,,,,,,,,,0,21,21,32,,,,,,,,,,4,1,1.09962457867,,,,,,2015_Dez_01_1536,P13,PLC_L_D1S1,NHG,60.0117827525,
stim/negf.jpg,stim/posf.jpg,stim/3.jpg,stim/1.jpg,stim/latef.jpg,AB,2,4,,,,,,,,,0,22,22,19,,,,,,,,,,2,0,1.06630632888,,,,,,2015_Dez_01_1536,P13,PLC_L_D1S1,NHG,60.0117827525,
stim/negf.jpg,stim/posf.jpg,stim/5.jpg,stim/6.jpg,stim/latef.jpg,EF,2,4,,,,,,,,,0,23,23,56,,,,,,,,,,2,0,1.26623623944,,,,,,2015_Dez_01_1536,P13,PLC_L_D1S1,NHG,60.0117827525,
stim/posf.jpg,stim/negf.jpg,stim/3.jpg,stim/1.jpg,stim/latef.jpg,AB,2,4,,,,,,,,,0,24,24,14,,,,,,,,,,4,1,0.916346811126,,,,,,2015_Dez_01_1536,P13,PLC_L_D1S1,NHG,60.0117827525,
stim/negf.jpg,stim/posf.jpg,stim/1.jpg,stim/3.jpg,stim/latef.jpg,AB,1,2,,,,,,,,,0,25,25,9,,,,,,,,,,4,0,0.999652178358,,,,,,2015_Dez_01_1536,P13,PLC_L_D1S1,NHG,60.0117827525,
stim/negf.jpg,stim/posf.jpg,stim/6.jpg,stim/5.jpg,stim/latef.jpg,EF,1,2,,,,,,,,,0,26,26,48,,,,,,,,,,4,0,1.04964679346,,,,,,2015_Dez_01_1536,P13,PLC_L_D1S1,NHG,60.0117827525,
stim/posf.jpg,stim/negf.jpg,stim/6.jpg,stim/5.jpg,stim/latef.jpg,EF,1,2,,,,,,,,,0,27,27,45,,,,,,,,,,4,0,1.03297083115,,,,,,2015_Dez_01_1536,P13,PLC_L_D1S1,NHG,60.0117827525,
stim/posf.jpg,stim/negf.jpg,stim/2.jpg,stim/4.jpg,stim/latef.jpg,CD,1,2,,,,,,,,,0,28,28,21,,,,,,,,,,2,1,0.633123533193,,,,,,2015_Dez_01_1536,P13,PLC_L_D1S1,NHG,60.0117827525,
stim/negf.jpg,stim/posf.jpg,stim/6.jpg,stim/5.jpg,stim/latef.jpg,EF,1,2,,,,,,,,,0,29,29,49,,,,,,,,,,4,0,0.76641079687,,,,,,2015_Dez_01_1536,P13,PLC_L_D1S1,NHG,60.0117827525,
stim/posf.jpg,stim/negf.jpg,stim/5.jpg,stim/6.jpg,stim/latef.jpg,EF,2,4,,,,,,,,,0,30,30,50,,,,,,,,,,4,1,0.849729348916,,,,,,2015_Dez_01_1536,P13,PLC_L_D1S1,NHG,60.0117827525,
stim/posf.jpg,stim/negf.jpg,stim/5.jpg,stim/6.jpg,stim/latef.jpg,EF,2,4,,,,,,,,,0,31,31,54,,,,,,,,,,4,1,0.699783707703,,,,,,2015_Dez_01_1536,P13,PLC_L_D1S1,NHG,60.0117827525,
stim/posf.jpg,stim/negf.jpg,stim/5.jpg,stim/6.jpg,stim/latef.jpg,EF,2,4,,,,,,,,,0,32,32,55,,,,,,,,,,2,0,0.799721654268,,,,,,2015_Dez_01_1536,P13,PLC_L_D1S1,NHG,60.0117827525,
stim/posf.jpg,stim/negf.jpg,stim/6.jpg,stim/5.jpg,stim/latef.jpg,EF,1,2,,,,,,,,,0,33,33,42,,,,,,,,,,2,1,0.749750720104,,,,,,2015_Dez_01_1536,P13,PLC_L_D1S1,NHG,60.0117827525,
stim/posf.jpg,stim/negf.jpg,stim/5.jpg,stim/6.jpg,stim/latef.jpg,EF,2,4,,,,,,,,,0,34,34,52,,,,,,,,,,4,1,0.599839150686,,,,,,2015_Dez_01_1536,P13,PLC_L_D1S1,NHG,60.0117827525,
stim/posf.jpg,stim/negf.jpg,stim/1.jpg,stim/3.jpg,stim/latef.jpg,AB,1,2,,,,,,,,,0,35,35,5,,,,,,,,,,2,1,0.716410593866,,,,,,2015_Dez_01_1536,P13,PLC_L_D1S1,NHG,60.0117827525,
stim/negf.jpg,stim/posf.jpg,stim/4.jpg,stim/2.jpg,stim/latef.jpg,CD,2,4,,,,,,,,,0,36,36,39,,,,,,,,,,4,1,0.483158262126,,,,,,2015_Dez_01_1536,P13,PLC_L_D1S1,NHG,60.0117827525,
stim/posf.jpg,stim/negf.jpg,stim/2.jpg,stim/4.jpg,stim/latef.jpg,CD,1,2,,,,,,,,,0,37,37,26,,,,,,,,,,4,0,0.549816608083,,,,,,2015_Dez_01_1536,P13,PLC_L_D1S1,NHG,60.0117827525,
stim/posf.jpg,stim/negf.jpg,stim/3.jpg,stim/1.jpg,stim/latef.jpg,AB,2,4,,,,,,,,,0,38,38,10,,,,,,,,,,2,0,0.749752536625,,,,,,2015_Dez_01_1536,P13,PLC_L_D1S1,NHG,60.0117827525,
stim/negf.jpg,stim/posf.jpg,stim/5.jpg,stim/6.jpg,stim/latef.jpg,EF,2,4,,,,,,,,,0,39,39,58,,,,,,,,,,4,1,0.816380413755,,,,,,2015_Dez_01_1536,P13,PLC_L_D1S1,NHG,60.0117827525,
stim/negf.jpg,stim/posf.jpg,stim/2.jpg,stim/4.jpg,stim/latef.jpg,CD,1,2,,,,,,,,,0,40,40,29,,,,,,,,,,2,1,1.11624138374,,,,,,2015_Dez_01_1536,P13,PLC_L_D1S1,NHG,60.0117827525,
stim/posf.jpg,stim/negf.jpg,stim/4.jpg,stim/2.jpg,stim/latef.jpg,CD,2,4,,,,,,,,,0,41,41,35,,,,,,,,,,2,0,0.716405980384,,,,,,2015_Dez_01_1536,P13,PLC_L_D1S1,NHG,60.0117827525,
stim/posf.jpg,stim/negf.jpg,stim/3.jpg,stim/1.jpg,stim/latef.jpg,AB,2,4,,,,,,,,,0,42,42,17,,,,,,,,,,4,1,0.616405306708,,,,,,2015_Dez_01_1536,P13,PLC_L_D1S1,NHG,60.0117827525,
stim/posf.jpg,stim/negf.jpg,stim/6.jpg,stim/5.jpg,stim/latef.jpg,EF,1,2,,,,,,,,,0,43,43,40,,,,,,,,,,2,1,0.766383831762,,,,,,2015_Dez_01_1536,P13,PLC_L_D1S1,NHG,60.0117827525,
stim/negf.jpg,stim/posf.jpg,stim/4.jpg,stim/2.jpg,stim/latef.jpg,CD,2,4,,,,,,,,,0,44,44,37,,,,,,,,,,2,0,0.749749766732,,,,,,2015_Dez_01_1536,P13,PLC_L_D1S1,NHG,60.0117827525,
stim/posf.jpg,stim/negf.jpg,stim/6.jpg,stim/5.jpg,stim/latef.jpg,EF,1,2,,,,,,,,,0,45,45,43,,,,,,,,,,4,0,0.799790832434,,,,,,2015_Dez_01_1536,P13,PLC_L_D1S1,NHG,60.0117827525,
stim/posf.jpg,stim/negf.jpg,stim/1.jpg,stim/3.jpg,stim/latef.jpg,AB,1,2,,,,,,,,,0,46,46,6,,,,,,,,,,2,1,1.03297867468,,,,,,2015_Dez_01_1536,P13,PLC_L_D1S1,NHG,60.0117827525,
stim/posf.jpg,stim/negf.jpg,stim/1.jpg,stim/3.jpg,stim/latef.jpg,AB,1,2,,,,,,,,,0,47,47,4,,,,,,,,,,2,1,0.59978927155,,,,,,2015_Dez_01_1536,P13,PLC_L_D1S1,NHG,60.0117827525,
stim/posf.jpg,stim/negf.jpg,stim/6.jpg,stim/5.jpg,stim/latef.jpg,EF,1,2,,,,,,,,,0,48,48,41,,,,,,,,,,4,0,0.533219002793,,,,,,2015_Dez_01_1536,P13,PLC_L_D1S1,NHG,60.0117827525,
stim/negf.jpg,stim/posf.jpg,stim/3.jpg,stim/1.jpg,stim/latef.jpg,AB,2,4,,,,,,,,,0,49,49,18,,,,,,,,,,2,0,0.6497109792,,,,,,2015_Dez_01_1536,P13,PLC_L_D1S1,NHG,60.0117827525,
stim/posf.jpg,stim/negf.jpg,stim/1.jpg,stim/3.jpg,stim/latef.jpg,AB,1,2,,,,,,,,,0,50,50,7,,,,,,,,,,2,1,0.61646048804,,,,,,2015_Dez_01_1536,P13,PLC_L_D1S1,NHG,60.0117827525,
stim/posf.jpg,stim/negf.jpg,stim/2.jpg,stim/4.jpg,stim/latef.jpg,CD,1,2,,,,,,,,,0,51,51,23,,,,,,,,,,4,0,0.383203028538,,,,,,2015_Dez_01_1536,P13,PLC_L_D1S1,NHG,60.0117827525,
stim/posf.jpg,stim/negf.jpg,stim/4.jpg,stim/2.jpg,stim/latef.jpg,CD,2,4,,,,,,,,,0,52,52,30,,,,,,,,,,2,0,0.599802510498,,,,,,2015_Dez_01_1536,P13,PLC_L_D1S1,NHG,60.0117827525,
stim/posf.jpg,stim/negf.jpg,stim/2.jpg,stim/4.jpg,stim/latef.jpg,CD,1,2,,,,,,,,,0,53,53,25,,,,,,,,,,4,0,0.666441686748,,,,,,2015_Dez_01_1536,P13,PLC_L_D1S1,NHG,60.0117827525,
stim/negf.jpg,stim/posf.jpg,stim/4.jpg,stim/2.jpg,stim/latef.jpg,CD,2,4,,,,,,,,,0,54,54,38,,,,,,,,,,4,1,0.733025774896,,,,,,2015_Dez_01_1536,P13,PLC_L_D1S1,NHG,60.0117827525,
stim/posf.jpg,stim/negf.jpg,stim/2.jpg,stim/4.jpg,stim/latef.jpg,CD,1,2,,,,,,,,,0,55,55,24,,,,,,,,,,2,1,0.733085025357,,,,,,2015_Dez_01_1536,P13,PLC_L_D1S1,NHG,60.0117827525,
stim/negf.jpg,stim/posf.jpg,stim/1.jpg,stim/3.jpg,stim/latef.jpg,AB,1,2,,,,,,,,,0,56,56,8,,,,,,,,,,4,0,0.633131530096,,,,,,2015_Dez_01_1536,P13,PLC_L_D1S1,NHG,60.0117827525,
stim/negf.jpg,stim/posf.jpg,stim/5.jpg,stim/6.jpg,stim/latef.jpg,EF,2,4,,,,,,,,,0,57,57,57,,,,,,,,,,4,1,0.749727881264,,,,,,2015_Dez_01_1536,P13,PLC_L_D1S1,NHG,60.0117827525,
stim/negf.jpg,stim/posf.jpg,stim/5.jpg,stim/6.jpg,stim/latef.jpg,EF,2,4,,,,,,,,,0,58,58,59,,,,,,,,,,4,1,0.933021546372,,,,,,2015_Dez_01_1536,P13,PLC_L_D1S1,NHG,60.0117827525,
stim/posf.jpg,stim/negf.jpg,stim/4.jpg,stim/2.jpg,stim/latef.jpg,CD,2,4,,,,,,,,,0,59,59,31,,,,,,,,,,4,1,0.783085297535,,,,,,2015_Dez_01_1536,P13,PLC_L_D1S1,NHG,60.0117827525,
,,,,,,,,,,,,,,,,,,,,,,,,,,,,,,,,0.9984375,1.0,1,0,0,2015_Dez_01_1536,P13,PLC_L_D1S1,NHG,60.0117827525,
stim/negf.jpg,stim/posf.jpg,stim/2.jpg,stim/4.jpg,stim/latef.jpg,CD,1,2,,,,,,,,,,,,,0,0,0,27,,,,,,2,1,1.08299943685,,,,,,2015_Dez_01_1536,P13,PLC_L_D1S1,NHG,60.0117827525,
stim/posf.jpg,stim/negf.jpg,stim/6.jpg,stim/5.jpg,stim/latef.jpg,EF,1,2,,,,,,,,,,,,,0,1,1,42,,,,,,4,0,1.13296645226,,,,,,2015_Dez_01_1536,P13,PLC_L_D1S1,NHG,60.0117827525,
stim/posf.jpg,stim/negf.jpg,stim/4.jpg,stim/2.jpg,stim/latef.jpg,CD,2,4,,,,,,,,,,,,,0,2,2,34,,,,,,2,0,0.983023917775,,,,,,2015_Dez_01_1536,P13,PLC_L_D1S1,NHG,60.0117827525,
stim/posf.jpg,stim/negf.jpg,stim/1.jpg,stim/3.jpg,stim/latef.jpg,AB,1,2,,,,,,,,,,,,,0,3,3,2,,,,,,2,1,0.916331118069,,,,,,2015_Dez_01_1536,P13,PLC_L_D1S1,NHG,60.0117827525,
stim/posf.jpg,stim/negf.jpg,stim/3.jpg,stim/1.jpg,stim/latef.jpg,AB,2,4,,,,,,,,,,,,,0,4,4,16,,,,,,4,1,0.983001202241,,,,,,2015_Dez_01_1536,P13,PLC_L_D1S1,NHG,60.0117827525,
stim/posf.jpg,stim/negf.jpg,stim/2.jpg,stim/4.jpg,stim/latef.jpg,CD,1,2,,,,,,,,,,,,,0,5,5,23,,,,,,2,1,0.949683307332,,,,,,2015_Dez_01_1536,P13,PLC_L_D1S1,NHG,60.0117827525,
stim/negf.jpg,stim/posf.jpg,stim/6.jpg,stim/5.jpg,stim/latef.jpg,EF,1,2,,,,,,,,,,,,,0,6,6,47,,,,,,4,0,0.799714147586,,,,,,2015_Dez_01_1536,P13,PLC_L_D1S1,NHG,60.0117827525,
stim/negf.jpg,stim/posf.jpg,stim/5.jpg,stim/6.jpg,stim/latef.jpg,EF,2,4,,,,,,,,,,,,,0,7,7,57,,,,,,2,0,0.916402795456,,,,,,2015_Dez_01_1536,P13,PLC_L_D1S1,NHG,60.0117827525,
stim/negf.jpg,stim/posf.jpg,stim/3.jpg,stim/1.jpg,stim/latef.jpg,AB,2,4,,,,,,,,,,,,,0,8,8,19,,,,,,2,0,0.949680471274,,,,,,2015_Dez_01_1536,P13,PLC_L_D1S1,NHG,60.0117827525,
stim/posf.jpg,stim/negf.jpg,stim/2.jpg,stim/4.jpg,stim/latef.jpg,CD,1,2,,,,,,,,,,,,,0,9,9,26,,,,,,4,0,0.766358875651,,,,,,2015_Dez_01_1536,P13,PLC_L_D1S1,NHG,60.0117827525,
stim/posf.jpg,stim/negf.jpg,stim/5.jpg,stim/6.jpg,stim/latef.jpg,EF,2,4,,,,,,,,,,,,,0,10,10,52,,,,,,4,1,0.833064472205,,,,,,2015_Dez_01_1536,P13,PLC_L_D1S1,NHG,60.0117827525,
stim/negf.jpg,stim/posf.jpg,stim/4.jpg,stim/2.jpg,stim/latef.jpg,CD,2,4,,,,,,,,,,,,,0,11,11,38,,,,,,2,0,0.983027905701,,,,,,2015_Dez_01_1536,P13,PLC_L_D1S1,NHG,60.0117827525,
stim/negf.jpg,stim/posf.jpg,stim/5.jpg,stim/6.jpg,stim/latef.jpg,EF,2,4,,,,,,,,,,,,,0,12,12,58,,,,,,4,1,0.833068553362,,,,,,2015_Dez_01_1536,P13,PLC_L_D1S1,NHG,60.0117827525,
stim/negf.jpg,stim/posf.jpg,stim/2.jpg,stim/4.jpg,stim/latef.jpg,CD,1,2,,,,,,,,,,,,,0,13,13,29,,,,,,4,0,0.933064351904,,,,,,2015_Dez_01_1536,P13,PLC_L_D1S1,NHG,60.0117827525,
stim/posf.jpg,stim/negf.jpg,stim/4.jpg,stim/2.jpg,stim/latef.jpg,CD,2,4,,,,,,,,,,,,,0,14,14,30,,,,,,2,0,0.866418065962,,,,,,2015_Dez_01_1536,P13,PLC_L_D1S1,NHG,60.0117827525,
stim/posf.jpg,stim/negf.jpg,stim/1.jpg,stim/3.jpg,stim/latef.jpg,AB,1,2,,,,,,,,,,,,,0,15,15,6,,,,,,4,0,0.93300840968,,,,,,2015_Dez_01_1536,P13,PLC_L_D1S1,NHG,60.0117827525,
stim/posf.jpg,stim/negf.jpg,stim/1.jpg,stim/3.jpg,stim/latef.jpg,AB,1,2,,,,,,,,,,,,,0,16,16,4,,,,,,4,0,1.13291469645,,,,,,2015_Dez_01_1536,P13,PLC_L_D1S1,NHG,60.0117827525,
stim/posf.jpg,stim/negf.jpg,stim/3.jpg,stim/1.jpg,stim/latef.jpg,AB,2,4,,,,,,,,,,,,,0,17,17,10,,,,,,4,1,1.14960996681,,,,,,2015_Dez_01_1536,P13,PLC_L_D1S1,NHG,60.0117827525,
stim/negf.jpg,stim/posf.jpg,stim/5.jpg,stim/6.jpg,stim/latef.jpg,EF,2,4,,,,,,,,,,,,,0,18,18,59,,,,,,2,0,0.93295397721,,,,,,2015_Dez_01_1536,P13,PLC_L_D1S1,NHG,60.0117827525,
stim/posf.jpg,stim/negf.jpg,stim/2.jpg,stim/4.jpg,stim/latef.jpg,CD,1,2,,,,,,,,,,,,,0,19,19,20,,,,,,4,0,0.899710294996,,,,,,2015_Dez_01_1536,P13,PLC_L_D1S1,NHG,60.0117827525,
stim/posf.jpg,stim/negf.jpg,stim/3.jpg,stim/1.jpg,stim/latef.jpg,AB,2,4,,,,,,,,,,,,,0,20,20,13,,,,,,4,1,0.766454886598,,,,,,2015_Dez_01_1536,P13,PLC_L_D1S1,NHG,60.0117827525,
stim/posf.jpg,stim/negf.jpg,stim/3.jpg,stim/1.jpg,stim/latef.jpg,AB,2,4,,,,,,,,,,,,,0,21,21,15,,,,,,2,0,0.949715186671,,,,,,2015_Dez_01_1536,P13,PLC_L_D1S1,NHG,60.0117827525,
stim/negf.jpg,stim/posf.jpg,stim/6.jpg,stim/5.jpg,stim/latef.jpg,EF,1,2,,,,,,,,,,,,,0,22,22,46,,,,,,4,0,0.36652762262,,,,,,2015_Dez_01_1536,P13,PLC_L_D1S1,NHG,60.0117827525,
stim/posf.jpg,stim/negf.jpg,stim/1.jpg,stim/3.jpg,stim/latef.jpg,AB,1,2,,,,,,,,,,,,,0,23,23,5,,,,,,4,0,1.19953220979,,,,,,2015_Dez_01_1536,P13,PLC_L_D1S1,NHG,60.0117827525,
stim/negf.jpg,stim/posf.jpg,stim/3.jpg,stim/1.jpg,stim/latef.jpg,AB,2,4,,,,,,,,,,,,,0,24,24,18,,,,,,4,1,1.01633192408,,,,,,2015_Dez_01_1536,P13,PLC_L_D1S1,NHG,60.0117827525,
stim/posf.jpg,stim/negf.jpg,stim/6.jpg,stim/5.jpg,stim/latef.jpg,EF,1,2,,,,,,,,,,,,,0,25,25,41,,,,,,2,1,0.949590306876,,,,,,2015_Dez_01_1536,P13,PLC_L_D1S1,NHG,60.0117827525,
stim/negf.jpg,stim/posf.jpg,stim/5.jpg,stim/6.jpg,stim/latef.jpg,EF,2,4,,,,,,,,,,,,,0,26,26,56,,,,,,2,0,1.04968495543,,,,,,2015_Dez_01_1536,P13,PLC_L_D1S1,NHG,60.0117827525,
stim/posf.jpg,stim/negf.jpg,stim/5.jpg,stim/6.jpg,stim/latef.jpg,EF,2,4,,,,,,,,,,,,,0,27,27,50,,,,,,2,0,1.14964414386,,,,,,2015_Dez_01_1536,P13,PLC_L_D1S1,NHG,60.0117827525,
stim/negf.jpg,stim/posf.jpg,stim/4.jpg,stim/2.jpg,stim/latef.jpg,CD,2,4,,,,,,,,,,,,,0,28,28,39,,,,,,2,0,0.949659936166,,,,,,2015_Dez_01_1536,P13,PLC_L_D1S1,NHG,60.0117827525,
stim/negf.jpg,stim/posf.jpg,stim/2.jpg,stim/4.jpg,stim/latef.jpg,CD,1,2,,,,,,,,,,,,,0,29,29,28,,,,,,4,0,0.982994826374,,,,,,2015_Dez_01_1536,P13,PLC_L_D1S1,NHG,60.0117827525,
stim/posf.jpg,stim/negf.jpg,stim/2.jpg,stim/4.jpg,stim/latef.jpg,CD,1,2,,,,,,,,,,,,,0,30,30,21,,,,,,2,1,0.982945711139,,,,,,2015_Dez_01_1536,P13,PLC_L_D1S1,NHG,60.0117827525,
stim/posf.jpg,stim/negf.jpg,stim/2.jpg,stim/4.jpg,stim/latef.jpg,CD,1,2,,,,,,,,,,,,,0,31,31,22,,,,,,2,1,0.91630349733,,,,,,2015_Dez_01_1536,P13,PLC_L_D1S1,NHG,60.0117827525,
stim/posf.jpg,stim/negf.jpg,stim/3.jpg,stim/1.jpg,stim/latef.jpg,AB,2,4,,,,,,,,,,,,,0,32,32,14,,,,,,4,1,1.1829513622,,,,,,2015_Dez_01_1536,P13,PLC_L_D1S1,NHG,60.0117827525,
stim/negf.jpg,stim/posf.jpg,stim/1.jpg,stim/3.jpg,stim/latef.jpg,AB,1,2,,,,,,,,,,,,,0,33,33,9,,,,,,4,0,1.41615711702,,,,,,2015_Dez_01_1536,P13,PLC_L_D1S1,NHG,60.0117827525,
stim/posf.jpg,stim/negf.jpg,stim/1.jpg,stim/3.jpg,stim/latef.jpg,AB,1,2,,,,,,,,,,,,,0,34,34,7,,,,,,4,0,0.849720997132,,,,,,2015_Dez_01_1536,P13,PLC_L_D1S1,NHG,60.0117827525,
stim/posf.jpg,stim/negf.jpg,stim/4.jpg,stim/2.jpg,stim/latef.jpg,CD,2,4,,,,,,,,,,,,,0,35,35,36,,,,,,2,0,1.3162231644,,,,,,2015_Dez_01_1536,P13,PLC_L_D1S1,NHG,60.0117827525,
stim/negf.jpg,stim/posf.jpg,stim/4.jpg,stim/2.jpg,stim/latef.jpg,CD,2,4,,,,,,,,,,,,,0,36,36,37,,,,,,4,1,0.766415359225,,,,,,2015_Dez_01_1536,P13,PLC_L_D1S1,NHG,60.0117827525,
stim/negf.jpg,stim/posf.jpg,stim/6.jpg,stim/5.jpg,stim/latef.jpg,EF,1,2,,,,,,,,,,,,,0,37,37,48,,,,,,2,1,1.53286866389,,,,,,2015_Dez_01_1536,P13,PLC_L_D1S1,NHG,60.0117827525,
stim/negf.jpg,stim/posf.jpg,stim/6.jpg,stim/5.jpg,stim/latef.jpg,EF,1,2,,,,,,,,,,,,,0,38,38,49,,,,,,4,0,1.08292396702,,,,,,2015_Dez_01_1536,P13,PLC_L_D1S1,NHG,60.0117827525,
stim/posf.jpg,stim/negf.jpg,stim/5.jpg,stim/6.jpg,stim/latef.jpg,EF,2,4,,,,,,,,,,,,,0,39,39,51,,,,,,2,0,0.999634840209,,,,,,2015_Dez_01_1536,P13,PLC_L_D1S1,NHG,60.0117827525,
stim/posf.jpg,stim/negf.jpg,stim/1.jpg,stim/3.jpg,stim/latef.jpg,AB,1,2,,,,,,,,,,,,,0,40,40,3,,,,,,2,1,1.2328858246,,,,,,2015_Dez_01_1536,P13,PLC_L_D1S1,NHG,60.0117827525,
stim/posf.jpg,stim/negf.jpg,stim/4.jpg,stim/2.jpg,stim/latef.jpg,CD,2,4,,,,,,,,,,,,,0,41,41,35,,,,,,2,0,1.04965934369,,,,,,2015_Dez_01_1536,P13,PLC_L_D1S1,NHG,60.0117827525,
stim/posf.jpg,stim/negf.jpg,stim/5.jpg,stim/6.jpg,stim/latef.jpg,EF,2,4,,,,,,,,,,,,,0,42,42,53,,,,,,2,0,1.11630105225,,,,,,2015_Dez_01_1536,P13,PLC_L_D1S1,NHG,60.0117827525,
stim/posf.jpg,stim/negf.jpg,stim/5.jpg,stim/6.jpg,stim/latef.jpg,EF,2,4,,,,,,,,,,,,,0,43,43,55,,,,,,4,1,0.899698099645,,,,,,2015_Dez_01_1536,P13,PLC_L_D1S1,NHG,60.0117827525,
stim/posf.jpg,stim/negf.jpg,stim/2.jpg,stim/4.jpg,stim/latef.jpg,CD,1,2,,,,,,,,,,,,,0,44,44,24,,,,,,2,1,1.43290972809,,,,,,2015_Dez_01_1536,P13,PLC_L_D1S1,NHG,60.0117827525,
stim/posf.jpg,stim/negf.jpg,stim/4.jpg,stim/2.jpg,stim/latef.jpg,CD,2,4,,,,,,,,,,,,,0,45,45,32,,,,,,4,1,1.33285754221,,,,,,2015_Dez_01_1536,P13,PLC_L_D1S1,NHG,60.0117827525,
stim/posf.jpg,stim/negf.jpg,stim/1.jpg,stim/3.jpg,stim/latef.jpg,AB,1,2,,,,,,,,,,,,,0,46,46,0,,,,,,2,1,0.999698755279,,,,,,2015_Dez_01_1536,P13,PLC_L_D1S1,NHG,60.0117827525,
stim/posf.jpg,stim/negf.jpg,stim/5.jpg,stim/6.jpg,stim/latef.jpg,EF,2,4,,,,,,,,,,,,,0,47,47,54,,,,,,4,1,1.3328994064,,,,,,2015_Dez_01_1536,P13,PLC_L_D1S1,NHG,60.0117827525,
stim/posf.jpg,stim/negf.jpg,stim/2.jpg,stim/4.jpg,stim/latef.jpg,CD,1,2,,,,,,,,,,,,,0,48,48,25,,,,,,4,0,1.14962974703,,,,,,2015_Dez_01_1536,P13,PLC_L_D1S1,NHG,60.0117827525,
stim/negf.jpg,stim/posf.jpg,stim/1.jpg,stim/3.jpg,stim/latef.jpg,AB,1,2,,,,,,,,,,,,,0,49,49,8,,,,,,2,1,1.04962565385,,,,,,2015_Dez_01_1536,P13,PLC_L_D1S1,NHG,60.0117827525,
stim/posf.jpg,stim/negf.jpg,stim/4.jpg,stim/2.jpg,stim/latef.jpg,CD,2,4,,,,,,,,,,,,,0,50,50,33,,,,,,4,1,0.966356595978,,,,,,2015_Dez_01_1536,P13,PLC_L_D1S1,NHG,60.0117827525,
stim/posf.jpg,stim/negf.jpg,stim/6.jpg,stim/5.jpg,stim/latef.jpg,EF,1,2,,,,,,,,,,,,,0,51,51,43,,,,,,2,1,1.0996736127,,,,,,2015_Dez_01_1536,P13,PLC_L_D1S1,NHG,60.0117827525,
stim/posf.jpg,stim/negf.jpg,stim/6.jpg,stim/5.jpg,stim/latef.jpg,EF,1,2,,,,,,,,,,,,,0,52,52,44,,,,,,4,0,1.0162944057,,,,,,2015_Dez_01_1536,P13,PLC_L_D1S1,NHG,60.0117827525,
stim/posf.jpg,stim/negf.jpg,stim/6.jpg,stim/5.jpg,stim/latef.jpg,EF,1,2,,,,,,,,,,,,,0,53,53,40,,,,,,2,1,0.916345054755,,,,,,2015_Dez_01_1536,P13,PLC_L_D1S1,NHG,60.0117827525,
stim/posf.jpg,stim/negf.jpg,stim/3.jpg,stim/1.jpg,stim/latef.jpg,AB,2,4,,,,,,,,,,,,,0,54,54,12,,,,,,4,1,0.949693406466,,,,,,2015_Dez_01_1536,P13,PLC_L_D1S1,NHG,60.0117827525,
stim/posf.jpg,stim/negf.jpg,stim/4.jpg,stim/2.jpg,stim/latef.jpg,CD,2,4,,,,,,,,,,,,,0,55,55,31,,,,,,4,1,0.983013707364,,,,,,2015_Dez_01_1536,P13,PLC_L_D1S1,NHG,60.0117827525,
stim/posf.jpg,stim/negf.jpg,stim/3.jpg,stim/1.jpg,stim/latef.jpg,AB,2,4,,,,,,,,,,,,,0,56,56,17,,,,,,4,1,1.3829125085,,,,,,2015_Dez_01_1536,P13,PLC_L_D1S1,NHG,60.0117827525,
stim/posf.jpg,stim/negf.jpg,stim/3.jpg,stim/1.jpg,stim/latef.jpg,AB,2,4,,,,,,,,,,,,,0,57,57,11,,,,,,4,1,1.03300809389,,,,,,2015_Dez_01_1536,P13,PLC_L_D1S1,NHG,60.0117827525,
stim/posf.jpg,stim/negf.jpg,stim/1.jpg,stim/3.jpg,stim/latef.jpg,AB,1,2,,,,,,,,,,,,,0,58,58,1,,,,,,2,1,0.949683063725,,,,,,2015_Dez_01_1536,P13,PLC_L_D1S1,NHG,60.0117827525,
stim/posf.jpg,stim/negf.jpg,stim/6.jpg,stim/5.jpg,stim/latef.jpg,EF,1,2,,,,,,,,,,,,,0,59,59,45,,,,,,2,1,1.13296155306,,,,,,2015_Dez_01_1536,P13,PLC_L_D1S1,NHG,60.0117827525,
