fb_corr,fb_incorr,symbol2,symbol1,fb_late,pair,position,correct,block_01.thisRepN,block_01.thisTrialN,block_01.thisN,block_01.thisIndex,block_02.thisRepN,block_02.thisTrialN,block_02.thisN,block_02.thisIndex,block_03.thisRepN,block_03.thisTrialN,block_03.thisN,block_03.thisIndex,block_04.thisRepN,block_04.thisTrialN,block_04.thisN,block_04.thisIndex,mouse.x,mouse.y,mouse.leftButton,mouse.midButton,mouse.rightButton,buttonBox_2.keys,buttonBox_2.corr,buttonBox_2.rt,mouse_2.x,mouse_2.y,mouse_2.leftButton,mouse_2.midButton,mouse_2.rightButton,date,Participant,expName,Group,frameRate,
,,,,,,,,,,,,,,,,,,,,,,,,0.99375,1.0,1,0,0,,,,,,,,,2015_Dez_03_1626,P15,PLC_L_D1S1,NHG,60.0180435443,
stim/posf.jpg,stim/negf.jpg,stim/6.jpg,stim/4.jpg,stim/latef.jpg,EF,1,2,0,0,0,42,,,,,,,,,,,,,,,,,,4,0,1.14968854069,,,,,,2015_Dez_03_1626,P15,PLC_L_D1S1,NHG,60.0180435443,
stim/posf.jpg,stim/negf.jpg,stim/5.jpg,stim/3.jpg,stim/latef.jpg,CD,1,2,0,1,1,26,,,,,,,,,,,,,,,,,,4,0,1.2829229675,,,,,,2015_Dez_03_1626,P15,PLC_L_D1S1,NHG,60.0180435443,
stim/negf.jpg,stim/posf.jpg,stim/5.jpg,stim/3.jpg,stim/latef.jpg,CD,1,2,0,2,2,29,,,,,,,,,,,,,,,,,,2,1,1.56615574319,,,,,,2015_Dez_03_1626,P15,PLC_L_D1S1,NHG,60.0180435443,
stim/posf.jpg,stim/negf.jpg,stim/1.jpg,stim/2.jpg,stim/latef.jpg,AB,2,4,0,3,3,15,,,,,,,,,,,,,,,,,,2,0,1.33287716935,,,,,,2015_Dez_03_1626,P15,PLC_L_D1S1,NHG,60.0180435443,
stim/posf.jpg,stim/negf.jpg,stim/2.jpg,stim/1.jpg,stim/latef.jpg,AB,1,2,0,4,4,2,,,,,,,,,,,,,,,,,,2,1,1.41621240442,,,,,,2015_Dez_03_1626,P15,PLC_L_D1S1,NHG,60.0180435443,
stim/posf.jpg,stim/negf.jpg,stim/2.jpg,stim/1.jpg,stim/latef.jpg,AB,1,2,0,5,5,7,,,,,,,,,,,,,,,,,,2,1,1.16629964887,,,,,,2015_Dez_03_1626,P15,PLC_L_D1S1,NHG,60.0180435443,
stim/posf.jpg,stim/negf.jpg,stim/5.jpg,stim/3.jpg,stim/latef.jpg,CD,1,2,0,6,6,25,,,,,,,,,,,,,,,,,,2,1,1.3995263404,,,,,,2015_Dez_03_1626,P15,PLC_L_D1S1,NHG,60.0180435443,
stim/negf.jpg,stim/posf.jpg,stim/3.jpg,stim/5.jpg,stim/latef.jpg,CD,2,4,0,7,7,37,,,,,,,,,,,,,,,,,,None,0,,,,,,,2015_Dez_03_1626,P15,PLC_L_D1S1,NHG,60.0180435443,
stim/posf.jpg,stim/negf.jpg,stim/6.jpg,stim/4.jpg,stim/latef.jpg,EF,1,2,0,8,8,43,,,,,,,,,,,,,,,,,,4,0,0.866330039624,,,,,,2015_Dez_03_1626,P15,PLC_L_D1S1,NHG,60.0180435443,
stim/negf.jpg,stim/posf.jpg,stim/4.jpg,stim/6.jpg,stim/latef.jpg,EF,2,4,0,9,9,56,,,,,,,,,,,,,,,,,,4,1,0.866396878219,,,,,,2015_Dez_03_1626,P15,PLC_L_D1S1,NHG,60.0180435443,
stim/negf.jpg,stim/posf.jpg,stim/5.jpg,stim/3.jpg,stim/latef.jpg,CD,1,2,0,10,10,27,,,,,,,,,,,,,,,,,,4,0,1.36622063293,,,,,,2015_Dez_03_1626,P15,PLC_L_D1S1,NHG,60.0180435443,
stim/posf.jpg,stim/negf.jpg,stim/4.jpg,stim/6.jpg,stim/latef.jpg,EF,2,4,0,11,11,53,,,,,,,,,,,,,,,,,,4,1,1.18295429057,,,,,,2015_Dez_03_1626,P15,PLC_L_D1S1,NHG,60.0180435443,
stim/posf.jpg,stim/negf.jpg,stim/6.jpg,stim/4.jpg,stim/latef.jpg,EF,1,2,0,12,12,45,,,,,,,,,,,,,,,,,,2,1,0.999669473162,,,,,,2015_Dez_03_1626,P15,PLC_L_D1S1,NHG,60.0180435443,
stim/negf.jpg,stim/posf.jpg,stim/1.jpg,stim/2.jpg,stim/latef.jpg,AB,2,4,0,13,13,18,,,,,,,,,,,,,,,,,,4,1,1.46630326689,,,,,,2015_Dez_03_1626,P15,PLC_L_D1S1,NHG,60.0180435443,
stim/posf.jpg,stim/negf.jpg,stim/5.jpg,stim/3.jpg,stim/latef.jpg,CD,1,2,0,14,14,21,,,,,,,,,,,,,,,,,,2,1,1.36622065097,,,,,,2015_Dez_03_1626,P15,PLC_L_D1S1,NHG,60.0180435443,
stim/posf.jpg,stim/negf.jpg,stim/3.jpg,stim/5.jpg,stim/latef.jpg,CD,2,4,0,15,15,35,,,,,,,,,,,,,,,,,,2,0,1.43284993346,,,,,,2015_Dez_03_1626,P15,PLC_L_D1S1,NHG,60.0180435443,
stim/posf.jpg,stim/negf.jpg,stim/5.jpg,stim/3.jpg,stim/latef.jpg,CD,1,2,0,16,16,24,,,,,,,,,,,,,,,,,,4,0,1.59949255118,,,,,,2015_Dez_03_1626,P15,PLC_L_D1S1,NHG,60.0180435443,
stim/posf.jpg,stim/negf.jpg,stim/1.jpg,stim/2.jpg,stim/latef.jpg,AB,2,4,0,17,17,10,,,,,,,,,,,,,,,,,,4,1,1.53283100428,,,,,,2015_Dez_03_1626,P15,PLC_L_D1S1,NHG,60.0180435443,
stim/posf.jpg,stim/negf.jpg,stim/1.jpg,stim/2.jpg,stim/latef.jpg,AB,2,4,0,18,18,11,,,,,,,,,,,,,,,,,,4,1,1.24961078488,,,,,,2015_Dez_03_1626,P15,PLC_L_D1S1,NHG,60.0180435443,
stim/posf.jpg,stim/negf.jpg,stim/2.jpg,stim/1.jpg,stim/latef.jpg,AB,1,2,0,19,19,0,,,,,,,,,,,,,,,,,,2,1,1.63281526605,,,,,,2015_Dez_03_1626,P15,PLC_L_D1S1,NHG,60.0180435443,
stim/negf.jpg,stim/posf.jpg,stim/6.jpg,stim/4.jpg,stim/latef.jpg,EF,1,2,0,20,20,48,,,,,,,,,,,,,,,,,,2,1,1.29957291449,,,,,,2015_Dez_03_1626,P15,PLC_L_D1S1,NHG,60.0180435443,
stim/posf.jpg,stim/negf.jpg,stim/3.jpg,stim/5.jpg,stim/latef.jpg,CD,2,4,0,21,21,34,,,,,,,,,,,,,,,,,,4,1,1.56616847693,,,,,,2015_Dez_03_1626,P15,PLC_L_D1S1,NHG,60.0180435443,
stim/posf.jpg,stim/negf.jpg,stim/5.jpg,stim/3.jpg,stim/latef.jpg,CD,1,2,0,22,22,20,,,,,,,,,,,,,,,,,,2,1,1.18294059443,,,,,,2015_Dez_03_1626,P15,PLC_L_D1S1,NHG,60.0180435443,
stim/posf.jpg,stim/negf.jpg,stim/3.jpg,stim/5.jpg,stim/latef.jpg,CD,2,4,0,23,23,32,,,,,,,,,,,,,,,,,,4,1,1.09960792174,,,,,,2015_Dez_03_1626,P15,PLC_L_D1S1,NHG,60.0180435443,
stim/negf.jpg,stim/posf.jpg,stim/3.jpg,stim/5.jpg,stim/latef.jpg,CD,2,4,0,24,24,38,,,,,,,,,,,,,,,,,,4,1,1.61613268772,,,,,,2015_Dez_03_1626,P15,PLC_L_D1S1,NHG,60.0180435443,
stim/posf.jpg,stim/negf.jpg,stim/4.jpg,stim/6.jpg,stim/latef.jpg,EF,2,4,0,25,25,51,,,,,,,,,,,,,,,,,,2,0,1.16631579913,,,,,,2015_Dez_03_1626,P15,PLC_L_D1S1,NHG,60.0180435443,
stim/posf.jpg,stim/negf.jpg,stim/4.jpg,stim/6.jpg,stim/latef.jpg,EF,2,4,0,26,26,55,,,,,,,,,,,,,,,,,,4,1,0.999680495635,,,,,,2015_Dez_03_1626,P15,PLC_L_D1S1,NHG,60.0180435443,
stim/negf.jpg,stim/posf.jpg,stim/5.jpg,stim/3.jpg,stim/latef.jpg,CD,1,2,0,27,27,28,,,,,,,,,,,,,,,,,,2,1,1.64947267464,,,,,,2015_Dez_03_1626,P15,PLC_L_D1S1,NHG,60.0180435443,
stim/negf.jpg,stim/posf.jpg,stim/2.jpg,stim/1.jpg,stim/latef.jpg,AB,1,2,0,28,28,8,,,,,,,,,,,,,,,,,,4,0,1.5994846535,,,,,,2015_Dez_03_1626,P15,PLC_L_D1S1,NHG,60.0180435443,
stim/negf.jpg,stim/posf.jpg,stim/2.jpg,stim/1.jpg,stim/latef.jpg,AB,1,2,0,29,29,9,,,,,,,,,,,,,,,,,,4,0,0.816322701333,,,,,,2015_Dez_03_1626,P15,PLC_L_D1S1,NHG,60.0180435443,
stim/posf.jpg,stim/negf.jpg,stim/4.jpg,stim/6.jpg,stim/latef.jpg,EF,2,4,0,30,30,54,,,,,,,,,,,,,,,,,,4,1,1.13294286509,,,,,,2015_Dez_03_1626,P15,PLC_L_D1S1,NHG,60.0180435443,
stim/posf.jpg,stim/negf.jpg,stim/2.jpg,stim/1.jpg,stim/latef.jpg,AB,1,2,0,31,31,4,,,,,,,,,,,,,,,,,,4,0,1.09964564778,,,,,,2015_Dez_03_1626,P15,PLC_L_D1S1,NHG,60.0180435443,
stim/posf.jpg,stim/negf.jpg,stim/2.jpg,stim/1.jpg,stim/latef.jpg,AB,1,2,0,32,32,1,,,,,,,,,,,,,,,,,,4,0,0.583119910376,,,,,,2015_Dez_03_1626,P15,PLC_L_D1S1,NHG,60.0180435443,
stim/negf.jpg,stim/posf.jpg,stim/3.jpg,stim/5.jpg,stim/latef.jpg,CD,2,4,0,33,33,39,,,,,,,,,,,,,,,,,,4,1,1.28292444718,,,,,,2015_Dez_03_1626,P15,PLC_L_D1S1,NHG,60.0180435443,
stim/posf.jpg,stim/negf.jpg,stim/6.jpg,stim/4.jpg,stim/latef.jpg,EF,1,2,0,34,34,44,,,,,,,,,,,,,,,,,,2,1,1.38288607153,,,,,,2015_Dez_03_1626,P15,PLC_L_D1S1,NHG,60.0180435443,
stim/negf.jpg,stim/posf.jpg,stim/6.jpg,stim/4.jpg,stim/latef.jpg,EF,1,2,0,35,35,46,,,,,,,,,,,,,,,,,,2,1,1.01632710732,,,,,,2015_Dez_03_1626,P15,PLC_L_D1S1,NHG,60.0180435443,
stim/posf.jpg,stim/negf.jpg,stim/6.jpg,stim/4.jpg,stim/latef.jpg,EF,1,2,0,36,36,40,,,,,,,,,,,,,,,,,,2,1,0.666490573755,,,,,,2015_Dez_03_1626,P15,PLC_L_D1S1,NHG,60.0180435443,
stim/negf.jpg,stim/posf.jpg,stim/4.jpg,stim/6.jpg,stim/latef.jpg,EF,2,4,0,37,37,59,,,,,,,,,,,,,,,,,,4,1,0.983004230044,,,,,,2015_Dez_03_1626,P15,PLC_L_D1S1,NHG,60.0180435443,
stim/posf.jpg,stim/negf.jpg,stim/6.jpg,stim/4.jpg,stim/latef.jpg,EF,1,2,0,38,38,41,,,,,,,,,,,,,,,,,,2,1,0.949694585755,,,,,,2015_Dez_03_1626,P15,PLC_L_D1S1,NHG,60.0180435443,
stim/posf.jpg,stim/negf.jpg,stim/3.jpg,stim/5.jpg,stim/latef.jpg,CD,2,4,0,39,39,31,,,,,,,,,,,,,,,,,,4,1,1.5661551868,,,,,,2015_Dez_03_1626,P15,PLC_L_D1S1,NHG,60.0180435443,
stim/posf.jpg,stim/negf.jpg,stim/1.jpg,stim/2.jpg,stim/latef.jpg,AB,2,4,0,40,40,16,,,,,,,,,,,,,,,,,,4,1,1.56615625146,,,,,,2015_Dez_03_1626,P15,PLC_L_D1S1,NHG,60.0180435443,
stim/negf.jpg,stim/posf.jpg,stim/4.jpg,stim/6.jpg,stim/latef.jpg,EF,2,4,0,41,41,57,,,,,,,,,,,,,,,,,,4,1,1.13302737874,,,,,,2015_Dez_03_1626,P15,PLC_L_D1S1,NHG,60.0180435443,
stim/posf.jpg,stim/negf.jpg,stim/3.jpg,stim/5.jpg,stim/latef.jpg,CD,2,4,0,42,42,33,,,,,,,,,,,,,,,,,,4,1,1.14962348554,,,,,,2015_Dez_03_1626,P15,PLC_L_D1S1,NHG,60.0180435443,
stim/posf.jpg,stim/negf.jpg,stim/3.jpg,stim/5.jpg,stim/latef.jpg,CD,2,4,0,43,43,36,,,,,,,,,,,,,,,,,,4,1,1.54929272111,,,,,,2015_Dez_03_1626,P15,PLC_L_D1S1,NHG,60.0180435443,
stim/posf.jpg,stim/negf.jpg,stim/3.jpg,stim/5.jpg,stim/latef.jpg,CD,2,4,0,44,44,30,,,,,,,,,,,,,,,,,,4,1,1.21626231081,,,,,,2015_Dez_03_1626,P15,PLC_L_D1S1,NHG,60.0180435443,
stim/posf.jpg,stim/negf.jpg,stim/1.jpg,stim/2.jpg,stim/latef.jpg,AB,2,4,0,45,45,14,,,,,,,,,,,,,,,,,,4,1,1.16623006143,,,,,,2015_Dez_03_1626,P15,PLC_L_D1S1,NHG,60.0180435443,
stim/posf.jpg,stim/negf.jpg,stim/2.jpg,stim/1.jpg,stim/latef.jpg,AB,1,2,0,46,46,6,,,,,,,,,,,,,,,,,,2,1,1.18295058233,,,,,,2015_Dez_03_1626,P15,PLC_L_D1S1,NHG,60.0180435443,
stim/negf.jpg,stim/posf.jpg,stim/6.jpg,stim/4.jpg,stim/latef.jpg,EF,1,2,0,47,47,47,,,,,,,,,,,,,,,,,,2,1,1.18292666371,,,,,,2015_Dez_03_1626,P15,PLC_L_D1S1,NHG,60.0180435443,
stim/posf.jpg,stim/negf.jpg,stim/5.jpg,stim/3.jpg,stim/latef.jpg,CD,1,2,0,48,48,22,,,,,,,,,,,,,,,,,,2,1,1.11630225637,,,,,,2015_Dez_03_1626,P15,PLC_L_D1S1,NHG,60.0180435443,
stim/posf.jpg,stim/negf.jpg,stim/5.jpg,stim/3.jpg,stim/latef.jpg,CD,1,2,0,49,49,23,,,,,,,,,,,,,,,,,,2,1,1.13294460944,,,,,,2015_Dez_03_1626,P15,PLC_L_D1S1,NHG,60.0180435443,
stim/posf.jpg,stim/negf.jpg,stim/4.jpg,stim/6.jpg,stim/latef.jpg,EF,2,4,0,50,50,52,,,,,,,,,,,,,,,,,,4,1,0.93308384749,,,,,,2015_Dez_03_1626,P15,PLC_L_D1S1,NHG,60.0180435443,
stim/negf.jpg,stim/posf.jpg,stim/1.jpg,stim/2.jpg,stim/latef.jpg,AB,2,4,0,51,51,19,,,,,,,,,,,,,,,,,,4,1,1.03297667236,,,,,,2015_Dez_03_1626,P15,PLC_L_D1S1,NHG,60.0180435443,
stim/posf.jpg,stim/negf.jpg,stim/4.jpg,stim/6.jpg,stim/latef.jpg,EF,2,4,0,52,52,50,,,,,,,,,,,,,,,,,,4,1,0.999656411605,,,,,,2015_Dez_03_1626,P15,PLC_L_D1S1,NHG,60.0180435443,
stim/posf.jpg,stim/negf.jpg,stim/1.jpg,stim/2.jpg,stim/latef.jpg,AB,2,4,0,53,53,12,,,,,,,,,,,,,,,,,,4,1,0.91637860768,,,,,,2015_Dez_03_1626,P15,PLC_L_D1S1,NHG,60.0180435443,
stim/negf.jpg,stim/posf.jpg,stim/6.jpg,stim/4.jpg,stim/latef.jpg,EF,1,2,0,54,54,49,,,,,,,,,,,,,,,,,,2,1,0.84971161119,,,,,,2015_Dez_03_1626,P15,PLC_L_D1S1,NHG,60.0180435443,
stim/negf.jpg,stim/posf.jpg,stim/4.jpg,stim/6.jpg,stim/latef.jpg,EF,2,4,0,55,55,58,,,,,,,,,,,,,,,,,,4,1,0.916411269088,,,,,,2015_Dez_03_1626,P15,PLC_L_D1S1,NHG,60.0180435443,
stim/posf.jpg,stim/negf.jpg,stim/1.jpg,stim/2.jpg,stim/latef.jpg,AB,2,4,0,56,56,17,,,,,,,,,,,,,,,,,,4,1,0.999688976774,,,,,,2015_Dez_03_1626,P15,PLC_L_D1S1,NHG,60.0180435443,
stim/posf.jpg,stim/negf.jpg,stim/1.jpg,stim/2.jpg,stim/latef.jpg,AB,2,4,0,57,57,13,,,,,,,,,,,,,,,,,,4,1,1.24958752491,,,,,,2015_Dez_03_1626,P15,PLC_L_D1S1,NHG,60.0180435443,
stim/posf.jpg,stim/negf.jpg,stim/2.jpg,stim/1.jpg,stim/latef.jpg,AB,1,2,0,58,58,5,,,,,,,,,,,,,,,,,,2,1,1.54941644649,,,,,,2015_Dez_03_1626,P15,PLC_L_D1S1,NHG,60.0180435443,
stim/posf.jpg,stim/negf.jpg,stim/2.jpg,stim/1.jpg,stim/latef.jpg,AB,1,2,0,59,59,3,,,,,,,,,,,,,,,,,,2,1,1.249567904,,,,,,2015_Dez_03_1626,P15,PLC_L_D1S1,NHG,60.0180435443,
,,,,,,,,,,,,,,,,,,,,,,,,,,,,,,,,0.99375,1.0,1,0,0,2015_Dez_03_1626,P15,PLC_L_D1S1,NHG,60.0180435443,
stim/posf.jpg,stim/negf.jpg,stim/2.jpg,stim/1.jpg,stim/latef.jpg,AB,1,2,,,,,0,0,0,1,,,,,,,,,,,,,,2,1,1.03295838678,,,,,,2015_Dez_03_1626,P15,PLC_L_D1S1,NHG,60.0180435443,
stim/posf.jpg,stim/negf.jpg,stim/4.jpg,stim/6.jpg,stim/latef.jpg,EF,2,4,,,,,0,1,1,54,,,,,,,,,,,,,,4,1,0.916367055886,,,,,,2015_Dez_03_1626,P15,PLC_L_D1S1,NHG,60.0180435443,
stim/negf.jpg,stim/posf.jpg,stim/2.jpg,stim/1.jpg,stim/latef.jpg,AB,1,2,,,,,0,2,2,9,,,,,,,,,,,,,,2,1,0.949698850385,,,,,,2015_Dez_03_1626,P15,PLC_L_D1S1,NHG,60.0180435443,
stim/posf.jpg,stim/negf.jpg,stim/5.jpg,stim/3.jpg,stim/latef.jpg,CD,1,2,,,,,0,3,3,20,,,,,,,,,,,,,,None,0,,,,,,,2015_Dez_03_1626,P15,PLC_L_D1S1,NHG,60.0180435443,
stim/negf.jpg,stim/posf.jpg,stim/6.jpg,stim/4.jpg,stim/latef.jpg,EF,1,2,,,,,0,4,4,46,,,,,,,,,,,,,,2,1,0.94969827896,,,,,,2015_Dez_03_1626,P15,PLC_L_D1S1,NHG,60.0180435443,
stim/negf.jpg,stim/posf.jpg,stim/3.jpg,stim/5.jpg,stim/latef.jpg,CD,2,4,,,,,0,5,5,37,,,,,,,,,,,,,,4,1,0.949676336268,,,,,,2015_Dez_03_1626,P15,PLC_L_D1S1,NHG,60.0180435443,
stim/posf.jpg,stim/negf.jpg,stim/1.jpg,stim/2.jpg,stim/latef.jpg,AB,2,4,,,,,0,6,6,13,,,,,,,,,,,,,,4,1,0.966344298163,,,,,,2015_Dez_03_1626,P15,PLC_L_D1S1,NHG,60.0180435443,
stim/negf.jpg,stim/posf.jpg,stim/3.jpg,stim/5.jpg,stim/latef.jpg,CD,2,4,,,,,0,7,7,39,,,,,,,,,,,,,,4,1,0.982979553537,,,,,,2015_Dez_03_1626,P15,PLC_L_D1S1,NHG,60.0180435443,
stim/posf.jpg,stim/negf.jpg,stim/6.jpg,stim/4.jpg,stim/latef.jpg,EF,1,2,,,,,0,8,8,42,,,,,,,,,,,,,,2,1,1.14965202668,,,,,,2015_Dez_03_1626,P15,PLC_L_D1S1,NHG,60.0180435443,
stim/negf.jpg,stim/posf.jpg,stim/5.jpg,stim/3.jpg,stim/latef.jpg,CD,1,2,,,,,0,9,9,27,,,,,,,,,,,,,,4,0,0.966344562823,,,,,,2015_Dez_03_1626,P15,PLC_L_D1S1,NHG,60.0180435443,
stim/posf.jpg,stim/negf.jpg,stim/5.jpg,stim/3.jpg,stim/latef.jpg,CD,1,2,,,,,0,10,10,24,,,,,,,,,,,,,,4,0,1.08297863024,,,,,,2015_Dez_03_1626,P15,PLC_L_D1S1,NHG,60.0180435443,
stim/posf.jpg,stim/negf.jpg,stim/1.jpg,stim/2.jpg,stim/latef.jpg,AB,2,4,,,,,0,11,11,16,,,,,,,,,,,,,,4,1,1.31620029624,,,,,,2015_Dez_03_1626,P15,PLC_L_D1S1,NHG,60.0180435443,
stim/posf.jpg,stim/negf.jpg,stim/2.jpg,stim/1.jpg,stim/latef.jpg,AB,1,2,,,,,0,12,12,2,,,,,,,,,,,,,,2,1,1.16628510462,,,,,,2015_Dez_03_1626,P15,PLC_L_D1S1,NHG,60.0180435443,
stim/posf.jpg,stim/negf.jpg,stim/2.jpg,stim/1.jpg,stim/latef.jpg,AB,1,2,,,,,0,13,13,0,,,,,,,,,,,,,,2,1,1.16628966399,,,,,,2015_Dez_03_1626,P15,PLC_L_D1S1,NHG,60.0180435443,
stim/negf.jpg,stim/posf.jpg,stim/6.jpg,stim/4.jpg,stim/latef.jpg,EF,1,2,,,,,0,14,14,48,,,,,,,,,,,,,,2,1,1.4495409418,,,,,,2015_Dez_03_1626,P15,PLC_L_D1S1,NHG,60.0180435443,
stim/posf.jpg,stim/negf.jpg,stim/4.jpg,stim/6.jpg,stim/latef.jpg,EF,2,4,,,,,0,15,15,51,,,,,,,,,,,,,,4,1,1.28291023075,,,,,,2015_Dez_03_1626,P15,PLC_L_D1S1,NHG,60.0180435443,
stim/negf.jpg,stim/posf.jpg,stim/5.jpg,stim/3.jpg,stim/latef.jpg,CD,1,2,,,,,0,16,16,28,,,,,,,,,,,,,,4,0,1.0162873813,,,,,,2015_Dez_03_1626,P15,PLC_L_D1S1,NHG,60.0180435443,
stim/negf.jpg,stim/posf.jpg,stim/3.jpg,stim/5.jpg,stim/latef.jpg,CD,2,4,,,,,0,17,17,38,,,,,,,,,,,,,,2,0,0.899721752468,,,,,,2015_Dez_03_1626,P15,PLC_L_D1S1,NHG,60.0180435443,
stim/posf.jpg,stim/negf.jpg,stim/4.jpg,stim/6.jpg,stim/latef.jpg,EF,2,4,,,,,0,18,18,55,,,,,,,,,,,,,,4,1,1.19961654123,,,,,,2015_Dez_03_1626,P15,PLC_L_D1S1,NHG,60.0180435443,
stim/posf.jpg,stim/negf.jpg,stim/3.jpg,stim/5.jpg,stim/latef.jpg,CD,2,4,,,,,0,19,19,34,,,,,,,,,,,,,,2,0,1.03297257615,,,,,,2015_Dez_03_1626,P15,PLC_L_D1S1,NHG,60.0180435443,
stim/negf.jpg,stim/posf.jpg,stim/4.jpg,stim/6.jpg,stim/latef.jpg,EF,2,4,,,,,0,20,20,58,,,,,,,,,,,,,,4,1,1.08297636258,,,,,,2015_Dez_03_1626,P15,PLC_L_D1S1,NHG,60.0180435443,
stim/negf.jpg,stim/posf.jpg,stim/6.jpg,stim/4.jpg,stim/latef.jpg,EF,1,2,,,,,0,21,21,49,,,,,,,,,,,,,,2,1,0.78306801603,,,,,,2015_Dez_03_1626,P15,PLC_L_D1S1,NHG,60.0180435443,
stim/posf.jpg,stim/negf.jpg,stim/5.jpg,stim/3.jpg,stim/latef.jpg,CD,1,2,,,,,0,22,22,25,,,,,,,,,,,,,,4,0,0.983007508215,,,,,,2015_Dez_03_1626,P15,PLC_L_D1S1,NHG,60.0180435443,
stim/negf.jpg,stim/posf.jpg,stim/4.jpg,stim/6.jpg,stim/latef.jpg,EF,2,4,,,,,0,23,23,56,,,,,,,,,,,,,,4,1,1.26626937241,,,,,,2015_Dez_03_1626,P15,PLC_L_D1S1,NHG,60.0180435443,
stim/negf.jpg,stim/posf.jpg,stim/4.jpg,stim/6.jpg,stim/latef.jpg,EF,2,4,,,,,0,24,24,59,,,,,,,,,,,,,,4,1,1.58278985572,,,,,,2015_Dez_03_1626,P15,PLC_L_D1S1,NHG,60.0180435443,
stim/posf.jpg,stim/negf.jpg,stim/6.jpg,stim/4.jpg,stim/latef.jpg,EF,1,2,,,,,0,25,25,45,,,,,,,,,,,,,,4,0,1.03302512613,,,,,,2015_Dez_03_1626,P15,PLC_L_D1S1,NHG,60.0180435443,
stim/posf.jpg,stim/negf.jpg,stim/5.jpg,stim/3.jpg,stim/latef.jpg,CD,1,2,,,,,0,26,26,22,,,,,,,,,,,,,,4,0,1.39953451478,,,,,,2015_Dez_03_1626,P15,PLC_L_D1S1,NHG,60.0180435443,
stim/posf.jpg,stim/negf.jpg,stim/2.jpg,stim/1.jpg,stim/latef.jpg,AB,1,2,,,,,0,27,27,3,,,,,,,,,,,,,,2,1,1.39952815392,,,,,,2015_Dez_03_1626,P15,PLC_L_D1S1,NHG,60.0180435443,
stim/posf.jpg,stim/negf.jpg,stim/3.jpg,stim/5.jpg,stim/latef.jpg,CD,2,4,,,,,0,28,28,35,,,,,,,,,,,,,,2,0,1.11626484011,,,,,,2015_Dez_03_1626,P15,PLC_L_D1S1,NHG,60.0180435443,
stim/posf.jpg,stim/negf.jpg,stim/1.jpg,stim/2.jpg,stim/latef.jpg,AB,2,4,,,,,0,29,29,10,,,,,,,,,,,,,,4,1,1.04965885971,,,,,,2015_Dez_03_1626,P15,PLC_L_D1S1,NHG,60.0180435443,
stim/posf.jpg,stim/negf.jpg,stim/5.jpg,stim/3.jpg,stim/latef.jpg,CD,1,2,,,,,0,30,30,26,,,,,,,,,,,,,,4,0,1.34954766054,,,,,,2015_Dez_03_1626,P15,PLC_L_D1S1,NHG,60.0180435443,
stim/posf.jpg,stim/negf.jpg,stim/1.jpg,stim/2.jpg,stim/latef.jpg,AB,2,4,,,,,0,31,31,12,,,,,,,,,,,,,,4,1,1.03298340915,,,,,,2015_Dez_03_1626,P15,PLC_L_D1S1,NHG,60.0180435443,
stim/posf.jpg,stim/negf.jpg,stim/6.jpg,stim/4.jpg,stim/latef.jpg,EF,1,2,,,,,0,32,32,40,,,,,,,,,,,,,,4,0,1.34955366651,,,,,,2015_Dez_03_1626,P15,PLC_L_D1S1,NHG,60.0180435443,
stim/posf.jpg,stim/negf.jpg,stim/6.jpg,stim/4.jpg,stim/latef.jpg,EF,1,2,,,,,0,33,33,41,,,,,,,,,,,,,,2,1,1.23293289524,,,,,,2015_Dez_03_1626,P15,PLC_L_D1S1,NHG,60.0180435443,
stim/posf.jpg,stim/negf.jpg,stim/6.jpg,stim/4.jpg,stim/latef.jpg,EF,1,2,,,,,0,34,34,43,,,,,,,,,,,,,,2,1,0.81638227081,,,,,,2015_Dez_03_1626,P15,PLC_L_D1S1,NHG,60.0180435443,
stim/posf.jpg,stim/negf.jpg,stim/1.jpg,stim/2.jpg,stim/latef.jpg,AB,2,4,,,,,0,35,35,14,,,,,,,,,,,,,,4,1,1.01631258111,,,,,,2015_Dez_03_1626,P15,PLC_L_D1S1,NHG,60.0180435443,
stim/posf.jpg,stim/negf.jpg,stim/4.jpg,stim/6.jpg,stim/latef.jpg,EF,2,4,,,,,0,36,36,50,,,,,,,,,,,,,,4,1,0.999619780303,,,,,,2015_Dez_03_1626,P15,PLC_L_D1S1,NHG,60.0180435443,
stim/posf.jpg,stim/negf.jpg,stim/5.jpg,stim/3.jpg,stim/latef.jpg,CD,1,2,,,,,0,37,37,23,,,,,,,,,,,,,,2,1,1.06636278524,,,,,,2015_Dez_03_1626,P15,PLC_L_D1S1,NHG,60.0180435443,
stim/posf.jpg,stim/negf.jpg,stim/3.jpg,stim/5.jpg,stim/latef.jpg,CD,2,4,,,,,0,38,38,31,,,,,,,,,,,,,,4,1,1.28290866685,,,,,,2015_Dez_03_1626,P15,PLC_L_D1S1,NHG,60.0180435443,
stim/posf.jpg,stim/negf.jpg,stim/3.jpg,stim/5.jpg,stim/latef.jpg,CD,2,4,,,,,0,39,39,33,,,,,,,,,,,,,,4,1,1.04966136195,,,,,,2015_Dez_03_1626,P15,PLC_L_D1S1,NHG,60.0180435443,
stim/posf.jpg,stim/negf.jpg,stim/3.jpg,stim/5.jpg,stim/latef.jpg,CD,2,4,,,,,0,40,40,32,,,,,,,,,,,,,,4,1,1.26622758626,,,,,,2015_Dez_03_1626,P15,PLC_L_D1S1,NHG,60.0180435443,
stim/posf.jpg,stim/negf.jpg,stim/2.jpg,stim/1.jpg,stim/latef.jpg,AB,1,2,,,,,0,41,41,5,,,,,,,,,,,,,,2,1,0.916363898016,,,,,,2015_Dez_03_1626,P15,PLC_L_D1S1,NHG,60.0180435443,
stim/negf.jpg,stim/posf.jpg,stim/5.jpg,stim/3.jpg,stim/latef.jpg,CD,1,2,,,,,0,42,42,29,,,,,,,,,,,,,,2,1,1.03292165924,,,,,,2015_Dez_03_1626,P15,PLC_L_D1S1,NHG,60.0180435443,
stim/posf.jpg,stim/negf.jpg,stim/4.jpg,stim/6.jpg,stim/latef.jpg,EF,2,4,,,,,0,43,43,52,,,,,,,,,,,,,,4,1,1.03299123465,,,,,,2015_Dez_03_1626,P15,PLC_L_D1S1,NHG,60.0180435443,
stim/posf.jpg,stim/negf.jpg,stim/1.jpg,stim/2.jpg,stim/latef.jpg,AB,2,4,,,,,0,44,44,15,,,,,,,,,,,,,,4,1,0.699758858956,,,,,,2015_Dez_03_1626,P15,PLC_L_D1S1,NHG,60.0180435443,
stim/posf.jpg,stim/negf.jpg,stim/6.jpg,stim/4.jpg,stim/latef.jpg,EF,1,2,,,,,0,45,45,44,,,,,,,,,,,,,,2,1,0.766421915625,,,,,,2015_Dez_03_1626,P15,PLC_L_D1S1,NHG,60.0180435443,
stim/posf.jpg,stim/negf.jpg,stim/1.jpg,stim/2.jpg,stim/latef.jpg,AB,2,4,,,,,0,46,46,11,,,,,,,,,,,,,,4,1,0.799731487733,,,,,,2015_Dez_03_1626,P15,PLC_L_D1S1,NHG,60.0180435443,
stim/posf.jpg,stim/negf.jpg,stim/4.jpg,stim/6.jpg,stim/latef.jpg,EF,2,4,,,,,0,47,47,53,,,,,,,,,,,,,,4,1,1.11630634958,,,,,,2015_Dez_03_1626,P15,PLC_L_D1S1,NHG,60.0180435443,
stim/posf.jpg,stim/negf.jpg,stim/5.jpg,stim/3.jpg,stim/latef.jpg,CD,1,2,,,,,0,48,48,21,,,,,,,,,,,,,,2,1,0.94967856783,,,,,,2015_Dez_03_1626,P15,PLC_L_D1S1,NHG,60.0180435443,
stim/negf.jpg,stim/posf.jpg,stim/1.jpg,stim/2.jpg,stim/latef.jpg,AB,2,4,,,,,0,49,49,18,,,,,,,,,,,,,,4,1,1.18288340088,,,,,,2015_Dez_03_1626,P15,PLC_L_D1S1,NHG,60.0180435443,
stim/posf.jpg,stim/negf.jpg,stim/3.jpg,stim/5.jpg,stim/latef.jpg,CD,2,4,,,,,0,50,50,30,,,,,,,,,,,,,,4,1,0.999675821986,,,,,,2015_Dez_03_1626,P15,PLC_L_D1S1,NHG,60.0180435443,
stim/posf.jpg,stim/negf.jpg,stim/2.jpg,stim/1.jpg,stim/latef.jpg,AB,1,2,,,,,0,51,51,6,,,,,,,,,,,,,,2,1,0.833129332862,,,,,,2015_Dez_03_1626,P15,PLC_L_D1S1,NHG,60.0180435443,
stim/posf.jpg,stim/negf.jpg,stim/3.jpg,stim/5.jpg,stim/latef.jpg,CD,2,4,,,,,0,52,52,36,,,,,,,,,,,,,,4,1,0.899695590258,,,,,,2015_Dez_03_1626,P15,PLC_L_D1S1,NHG,60.0180435443,
stim/negf.jpg,stim/posf.jpg,stim/1.jpg,stim/2.jpg,stim/latef.jpg,AB,2,4,,,,,0,53,53,19,,,,,,,,,,,,,,4,1,0.816411572845,,,,,,2015_Dez_03_1626,P15,PLC_L_D1S1,NHG,60.0180435443,
stim/negf.jpg,stim/posf.jpg,stim/4.jpg,stim/6.jpg,stim/latef.jpg,EF,2,4,,,,,0,54,54,57,,,,,,,,,,,,,,4,1,1.26626051233,,,,,,2015_Dez_03_1626,P15,PLC_L_D1S1,NHG,60.0180435443,
stim/negf.jpg,stim/posf.jpg,stim/2.jpg,stim/1.jpg,stim/latef.jpg,AB,1,2,,,,,0,55,55,8,,,,,,,,,,,,,,2,1,0.799719472786,,,,,,2015_Dez_03_1626,P15,PLC_L_D1S1,NHG,60.0180435443,
stim/posf.jpg,stim/negf.jpg,stim/2.jpg,stim/1.jpg,stim/latef.jpg,AB,1,2,,,,,0,56,56,4,,,,,,,,,,,,,,2,1,1.04959819851,,,,,,2015_Dez_03_1626,P15,PLC_L_D1S1,NHG,60.0180435443,
stim/negf.jpg,stim/posf.jpg,stim/6.jpg,stim/4.jpg,stim/latef.jpg,EF,1,2,,,,,0,57,57,47,,,,,,,,,,,,,,2,1,0.916363131105,,,,,,2015_Dez_03_1626,P15,PLC_L_D1S1,NHG,60.0180435443,
stim/posf.jpg,stim/negf.jpg,stim/1.jpg,stim/2.jpg,stim/latef.jpg,AB,2,4,,,,,0,58,58,17,,,,,,,,,,,,,,4,1,0.899698239863,,,,,,2015_Dez_03_1626,P15,PLC_L_D1S1,NHG,60.0180435443,
stim/posf.jpg,stim/negf.jpg,stim/2.jpg,stim/1.jpg,stim/latef.jpg,AB,1,2,,,,,0,59,59,7,,,,,,,,,,,,,,2,1,1.04970469094,,,,,,2015_Dez_03_1626,P15,PLC_L_D1S1,NHG,60.0180435443,
,,,,,,,,,,,,,,,,,,,,,,,,,,,,,,,,0.99375,1.0,1,0,0,2015_Dez_03_1626,P15,PLC_L_D1S1,NHG,60.0180435443,
stim/negf.jpg,stim/posf.jpg,stim/6.jpg,stim/4.jpg,stim/latef.jpg,EF,1,2,,,,,,,,,0,0,0,48,,,,,,,,,,2,1,0.91638415651,,,,,,2015_Dez_03_1626,P15,PLC_L_D1S1,NHG,60.0180435443,
stim/posf.jpg,stim/negf.jpg,stim/1.jpg,stim/2.jpg,stim/latef.jpg,AB,2,4,,,,,,,,,0,1,1,12,,,,,,,,,,4,1,0.815371884422,,,,,,2015_Dez_03_1626,P15,PLC_L_D1S1,NHG,60.0180435443,
stim/negf.jpg,stim/posf.jpg,stim/1.jpg,stim/2.jpg,stim/latef.jpg,AB,2,4,,,,,,,,,0,2,2,19,,,,,,,,,,4,1,0.83307014233,,,,,,2015_Dez_03_1626,P15,PLC_L_D1S1,NHG,60.0180435443,
stim/posf.jpg,stim/negf.jpg,stim/3.jpg,stim/5.jpg,stim/latef.jpg,CD,2,4,,,,,,,,,0,3,3,31,,,,,,,,,,4,1,1.5661559477,,,,,,2015_Dez_03_1626,P15,PLC_L_D1S1,NHG,60.0180435443,
stim/negf.jpg,stim/posf.jpg,stim/4.jpg,stim/6.jpg,stim/latef.jpg,EF,2,4,,,,,,,,,0,4,4,58,,,,,,,,,,4,1,1.09961193976,,,,,,2015_Dez_03_1626,P15,PLC_L_D1S1,NHG,60.0180435443,
stim/negf.jpg,stim/posf.jpg,stim/2.jpg,stim/1.jpg,stim/latef.jpg,AB,1,2,,,,,,,,,0,5,5,9,,,,,,,,,,2,1,1.03298958955,,,,,,2015_Dez_03_1626,P15,PLC_L_D1S1,NHG,60.0180435443,
stim/posf.jpg,stim/negf.jpg,stim/1.jpg,stim/2.jpg,stim/latef.jpg,AB,2,4,,,,,,,,,0,6,6,11,,,,,,,,,,4,1,1.14962259231,,,,,,2015_Dez_03_1626,P15,PLC_L_D1S1,NHG,60.0180435443,
stim/negf.jpg,stim/posf.jpg,stim/2.jpg,stim/1.jpg,stim/latef.jpg,AB,1,2,,,,,,,,,0,7,7,8,,,,,,,,,,2,1,1.19959929625,,,,,,2015_Dez_03_1626,P15,PLC_L_D1S1,NHG,60.0180435443,
stim/negf.jpg,stim/posf.jpg,stim/4.jpg,stim/6.jpg,stim/latef.jpg,EF,2,4,,,,,,,,,0,8,8,57,,,,,,,,,,4,1,0.883030593754,,,,,,2015_Dez_03_1626,P15,PLC_L_D1S1,NHG,60.0180435443,
stim/posf.jpg,stim/negf.jpg,stim/5.jpg,stim/3.jpg,stim/latef.jpg,CD,1,2,,,,,,,,,0,9,9,24,,,,,,,,,,2,1,1.26624367035,,,,,,2015_Dez_03_1626,P15,PLC_L_D1S1,NHG,60.0180435443,
stim/posf.jpg,stim/negf.jpg,stim/4.jpg,stim/6.jpg,stim/latef.jpg,EF,2,4,,,,,,,,,0,10,10,54,,,,,,,,,,4,1,0.849708811212,,,,,,2015_Dez_03_1626,P15,PLC_L_D1S1,NHG,60.0180435443,
stim/posf.jpg,stim/negf.jpg,stim/6.jpg,stim/4.jpg,stim/latef.jpg,EF,1,2,,,,,,,,,0,11,11,40,,,,,,,,,,2,1,0.966341453072,,,,,,2015_Dez_03_1626,P15,PLC_L_D1S1,NHG,60.0180435443,
stim/negf.jpg,stim/posf.jpg,stim/5.jpg,stim/3.jpg,stim/latef.jpg,CD,1,2,,,,,,,,,0,12,12,28,,,,,,,,,,2,1,0.949702327051,,,,,,2015_Dez_03_1626,P15,PLC_L_D1S1,NHG,60.0180435443,
stim/posf.jpg,stim/negf.jpg,stim/1.jpg,stim/2.jpg,stim/latef.jpg,AB,2,4,,,,,,,,,0,13,13,17,,,,,,,,,,4,1,1.2329120142,,,,,,2015_Dez_03_1626,P15,PLC_L_D1S1,NHG,60.0180435443,
stim/posf.jpg,stim/negf.jpg,stim/2.jpg,stim/1.jpg,stim/latef.jpg,AB,1,2,,,,,,,,,0,14,14,6,,,,,,,,,,2,1,0.916406983406,,,,,,2015_Dez_03_1626,P15,PLC_L_D1S1,NHG,60.0180435443,
stim/posf.jpg,stim/negf.jpg,stim/3.jpg,stim/5.jpg,stim/latef.jpg,CD,2,4,,,,,,,,,0,15,15,35,,,,,,,,,,4,1,1.48282874866,,,,,,2015_Dez_03_1626,P15,PLC_L_D1S1,NHG,60.0180435443,
stim/posf.jpg,stim/negf.jpg,stim/5.jpg,stim/3.jpg,stim/latef.jpg,CD,1,2,,,,,,,,,0,16,16,22,,,,,,,,,,2,1,1.18297989038,,,,,,2015_Dez_03_1626,P15,PLC_L_D1S1,NHG,60.0180435443,
stim/posf.jpg,stim/negf.jpg,stim/6.jpg,stim/4.jpg,stim/latef.jpg,EF,1,2,,,,,,,,,0,17,17,45,,,,,,,,,,2,1,0.84969019481,,,,,,2015_Dez_03_1626,P15,PLC_L_D1S1,NHG,60.0180435443,
stim/posf.jpg,stim/negf.jpg,stim/3.jpg,stim/5.jpg,stim/latef.jpg,CD,2,4,,,,,,,,,0,18,18,34,,,,,,,,,,4,1,0.816360797287,,,,,,2015_Dez_03_1626,P15,PLC_L_D1S1,NHG,60.0180435443,
stim/posf.jpg,stim/negf.jpg,stim/2.jpg,stim/1.jpg,stim/latef.jpg,AB,1,2,,,,,,,,,0,19,19,1,,,,,,,,,,2,1,0.98303122533,,,,,,2015_Dez_03_1626,P15,PLC_L_D1S1,NHG,60.0180435443,
stim/posf.jpg,stim/negf.jpg,stim/4.jpg,stim/6.jpg,stim/latef.jpg,EF,2,4,,,,,,,,,0,20,20,50,,,,,,,,,,4,1,0.949681879084,,,,,,2015_Dez_03_1626,P15,PLC_L_D1S1,NHG,60.0180435443,
stim/negf.jpg,stim/posf.jpg,stim/1.jpg,stim/2.jpg,stim/latef.jpg,AB,2,4,,,,,,,,,0,21,21,18,,,,,,,,,,4,1,0.849746579349,,,,,,2015_Dez_03_1626,P15,PLC_L_D1S1,NHG,60.0180435443,
stim/posf.jpg,stim/negf.jpg,stim/1.jpg,stim/2.jpg,stim/latef.jpg,AB,2,4,,,,,,,,,0,22,22,14,,,,,,,,,,4,1,0.966355546198,,,,,,2015_Dez_03_1626,P15,PLC_L_D1S1,NHG,60.0180435443,
stim/posf.jpg,stim/negf.jpg,stim/3.jpg,stim/5.jpg,stim/latef.jpg,CD,2,4,,,,,,,,,0,23,23,33,,,,,,,,,,4,1,0.949680387365,,,,,,2015_Dez_03_1626,P15,PLC_L_D1S1,NHG,60.0180435443,
stim/negf.jpg,stim/posf.jpg,stim/3.jpg,stim/5.jpg,stim/latef.jpg,CD,2,4,,,,,,,,,0,24,24,39,,,,,,,,,,4,1,0.833000627063,,,,,,2015_Dez_03_1626,P15,PLC_L_D1S1,NHG,60.0180435443,
stim/negf.jpg,stim/posf.jpg,stim/4.jpg,stim/6.jpg,stim/latef.jpg,EF,2,4,,,,,,,,,0,25,25,56,,,,,,,,,,4,1,0.84972880204,,,,,,2015_Dez_03_1626,P15,PLC_L_D1S1,NHG,60.0180435443,
stim/negf.jpg,stim/posf.jpg,stim/3.jpg,stim/5.jpg,stim/latef.jpg,CD,2,4,,,,,,,,,0,26,26,38,,,,,,,,,,4,1,1.06634079744,,,,,,2015_Dez_03_1626,P15,PLC_L_D1S1,NHG,60.0180435443,
stim/posf.jpg,stim/negf.jpg,stim/2.jpg,stim/1.jpg,stim/latef.jpg,AB,1,2,,,,,,,,,0,27,27,0,,,,,,,,,,2,1,0.766468038586,,,,,,2015_Dez_03_1626,P15,PLC_L_D1S1,NHG,60.0180435443,
stim/posf.jpg,stim/negf.jpg,stim/4.jpg,stim/6.jpg,stim/latef.jpg,EF,2,4,,,,,,,,,0,28,28,52,,,,,,,,,,4,1,1.11629199781,,,,,,2015_Dez_03_1626,P15,PLC_L_D1S1,NHG,60.0180435443,
stim/posf.jpg,stim/negf.jpg,stim/4.jpg,stim/6.jpg,stim/latef.jpg,EF,2,4,,,,,,,,,0,29,29,51,,,,,,,,,,4,1,0.649750889092,,,,,,2015_Dez_03_1626,P15,PLC_L_D1S1,NHG,60.0180435443,
stim/posf.jpg,stim/negf.jpg,stim/6.jpg,stim/4.jpg,stim/latef.jpg,EF,1,2,,,,,,,,,0,30,30,44,,,,,,,,,,2,1,0.949680285111,,,,,,2015_Dez_03_1626,P15,PLC_L_D1S1,NHG,60.0180435443,
stim/posf.jpg,stim/negf.jpg,stim/4.jpg,stim/6.jpg,stim/latef.jpg,EF,2,4,,,,,,,,,0,31,31,53,,,,,,,,,,4,1,1.06624149292,,,,,,2015_Dez_03_1626,P15,PLC_L_D1S1,NHG,60.0180435443,
stim/posf.jpg,stim/negf.jpg,stim/5.jpg,stim/3.jpg,stim/latef.jpg,CD,1,2,,,,,,,,,0,32,32,23,,,,,,,,,,2,1,1.08303929444,,,,,,2015_Dez_03_1626,P15,PLC_L_D1S1,NHG,60.0180435443,
stim/posf.jpg,stim/negf.jpg,stim/1.jpg,stim/2.jpg,stim/latef.jpg,AB,2,4,,,,,,,,,0,33,33,10,,,,,,,,,,4,1,0.833080030977,,,,,,2015_Dez_03_1626,P15,PLC_L_D1S1,NHG,60.0180435443,
stim/posf.jpg,stim/negf.jpg,stim/1.jpg,stim/2.jpg,stim/latef.jpg,AB,2,4,,,,,,,,,0,34,34,16,,,,,,,,,,4,1,0.699748612416,,,,,,2015_Dez_03_1626,P15,PLC_L_D1S1,NHG,60.0180435443,
stim/negf.jpg,stim/posf.jpg,stim/6.jpg,stim/4.jpg,stim/latef.jpg,EF,1,2,,,,,,,,,0,35,35,47,,,,,,,,,,2,1,0.783065324321,,,,,,2015_Dez_03_1626,P15,PLC_L_D1S1,NHG,60.0180435443,
stim/posf.jpg,stim/negf.jpg,stim/5.jpg,stim/3.jpg,stim/latef.jpg,CD,1,2,,,,,,,,,0,36,36,26,,,,,,,,,,2,1,0.999633001255,,,,,,2015_Dez_03_1626,P15,PLC_L_D1S1,NHG,60.0180435443,
stim/posf.jpg,stim/negf.jpg,stim/2.jpg,stim/1.jpg,stim/latef.jpg,AB,1,2,,,,,,,,,0,37,37,4,,,,,,,,,,2,1,0.949689109104,,,,,,2015_Dez_03_1626,P15,PLC_L_D1S1,NHG,60.0180435443,
stim/posf.jpg,stim/negf.jpg,stim/3.jpg,stim/5.jpg,stim/latef.jpg,CD,2,4,,,,,,,,,0,38,38,32,,,,,,,,,,4,1,1.09958787979,,,,,,2015_Dez_03_1626,P15,PLC_L_D1S1,NHG,60.0180435443,
stim/posf.jpg,stim/negf.jpg,stim/3.jpg,stim/5.jpg,stim/latef.jpg,CD,2,4,,,,,,,,,0,39,39,30,,,,,,,,,,4,1,0.883039258351,,,,,,2015_Dez_03_1626,P15,PLC_L_D1S1,NHG,60.0180435443,
stim/negf.jpg,stim/posf.jpg,stim/6.jpg,stim/4.jpg,stim/latef.jpg,EF,1,2,,,,,,,,,0,40,40,46,,,,,,,,,,2,1,0.91634648762,,,,,,2015_Dez_03_1626,P15,PLC_L_D1S1,NHG,60.0180435443,
stim/posf.jpg,stim/negf.jpg,stim/5.jpg,stim/3.jpg,stim/latef.jpg,CD,1,2,,,,,,,,,0,41,41,21,,,,,,,,,,2,1,1.18290669093,,,,,,2015_Dez_03_1626,P15,PLC_L_D1S1,NHG,60.0180435443,
stim/negf.jpg,stim/posf.jpg,stim/6.jpg,stim/4.jpg,stim/latef.jpg,EF,1,2,,,,,,,,,0,42,42,49,,,,,,,,,,2,1,1.39956104992,,,,,,2015_Dez_03_1626,P15,PLC_L_D1S1,NHG,60.0180435443,
stim/posf.jpg,stim/negf.jpg,stim/2.jpg,stim/1.jpg,stim/latef.jpg,AB,1,2,,,,,,,,,0,43,43,2,,,,,,,,,,2,1,1.0163549056,,,,,,2015_Dez_03_1626,P15,PLC_L_D1S1,NHG,60.0180435443,
stim/posf.jpg,stim/negf.jpg,stim/2.jpg,stim/1.jpg,stim/latef.jpg,AB,1,2,,,,,,,,,0,44,44,5,,,,,,,,,,2,1,0.999711123976,,,,,,2015_Dez_03_1626,P15,PLC_L_D1S1,NHG,60.0180435443,
stim/negf.jpg,stim/posf.jpg,stim/4.jpg,stim/6.jpg,stim/latef.jpg,EF,2,4,,,,,,,,,0,45,45,59,,,,,,,,,,2,0,0.983038178661,,,,,,2015_Dez_03_1626,P15,PLC_L_D1S1,NHG,60.0180435443,
stim/posf.jpg,stim/negf.jpg,stim/6.jpg,stim/4.jpg,stim/latef.jpg,EF,1,2,,,,,,,,,0,46,46,43,,,,,,,,,,4,0,1.06630294509,,,,,,2015_Dez_03_1626,P15,PLC_L_D1S1,NHG,60.0180435443,
stim/posf.jpg,stim/negf.jpg,stim/6.jpg,stim/4.jpg,stim/latef.jpg,EF,1,2,,,,,,,,,0,47,47,42,,,,,,,,,,4,0,1.38290653454,,,,,,2015_Dez_03_1626,P15,PLC_L_D1S1,NHG,60.0180435443,
stim/posf.jpg,stim/negf.jpg,stim/4.jpg,stim/6.jpg,stim/latef.jpg,EF,2,4,,,,,,,,,0,48,48,55,,,,,,,,,,4,1,1.18294971617,,,,,,2015_Dez_03_1626,P15,PLC_L_D1S1,NHG,60.0180435443,
stim/negf.jpg,stim/posf.jpg,stim/5.jpg,stim/3.jpg,stim/latef.jpg,CD,1,2,,,,,,,,,0,49,49,29,,,,,,,,,,2,1,1.0496276449,,,,,,2015_Dez_03_1626,P15,PLC_L_D1S1,NHG,60.0180435443,
stim/posf.jpg,stim/negf.jpg,stim/5.jpg,stim/3.jpg,stim/latef.jpg,CD,1,2,,,,,,,,,0,50,50,20,,,,,,,,,,2,1,0.933011270592,,,,,,2015_Dez_03_1626,P15,PLC_L_D1S1,NHG,60.0180435443,
stim/posf.jpg,stim/negf.jpg,stim/5.jpg,stim/3.jpg,stim/latef.jpg,CD,1,2,,,,,,,,,0,51,51,25,,,,,,,,,,2,1,1.19959915189,,,,,,2015_Dez_03_1626,P15,PLC_L_D1S1,NHG,60.0180435443,
stim/posf.jpg,stim/negf.jpg,stim/3.jpg,stim/5.jpg,stim/latef.jpg,CD,2,4,,,,,,,,,0,52,52,36,,,,,,,,,,4,1,1.16623957113,,,,,,2015_Dez_03_1626,P15,PLC_L_D1S1,NHG,60.0180435443,
stim/posf.jpg,stim/negf.jpg,stim/1.jpg,stim/2.jpg,stim/latef.jpg,AB,2,4,,,,,,,,,0,53,53,13,,,,,,,,,,4,1,0.899708543545,,,,,,2015_Dez_03_1626,P15,PLC_L_D1S1,NHG,60.0180435443,
stim/posf.jpg,stim/negf.jpg,stim/1.jpg,stim/2.jpg,stim/latef.jpg,AB,2,4,,,,,,,,,0,54,54,15,,,,,,,,,,4,1,0.899711259313,,,,,,2015_Dez_03_1626,P15,PLC_L_D1S1,NHG,60.0180435443,
stim/negf.jpg,stim/posf.jpg,stim/5.jpg,stim/3.jpg,stim/latef.jpg,CD,1,2,,,,,,,,,0,55,55,27,,,,,,,,,,2,1,0.999665388982,,,,,,2015_Dez_03_1626,P15,PLC_L_D1S1,NHG,60.0180435443,
stim/posf.jpg,stim/negf.jpg,stim/2.jpg,stim/1.jpg,stim/latef.jpg,AB,1,2,,,,,,,,,0,56,56,3,,,,,,,,,,2,1,0.866348965797,,,,,,2015_Dez_03_1626,P15,PLC_L_D1S1,NHG,60.0180435443,
stim/negf.jpg,stim/posf.jpg,stim/3.jpg,stim/5.jpg,stim/latef.jpg,CD,2,4,,,,,,,,,0,57,57,37,,,,,,,,,,4,1,0.999659710829,,,,,,2015_Dez_03_1626,P15,PLC_L_D1S1,NHG,60.0180435443,
stim/posf.jpg,stim/negf.jpg,stim/2.jpg,stim/1.jpg,stim/latef.jpg,AB,1,2,,,,,,,,,0,58,58,7,,,,,,,,,,2,1,0.966347425959,,,,,,2015_Dez_03_1626,P15,PLC_L_D1S1,NHG,60.0180435443,
stim/posf.jpg,stim/negf.jpg,stim/6.jpg,stim/4.jpg,stim/latef.jpg,EF,1,2,,,,,,,,,0,59,59,41,,,,,,,,,,4,0,1.13288933767,,,,,,2015_Dez_03_1626,P15,PLC_L_D1S1,NHG,60.0180435443,
,,,,,,,,,,,,,,,,,,,,,,,,,,,,,,,,0.99375,1.0,1,0,0,2015_Dez_03_1626,P15,PLC_L_D1S1,NHG,60.0180435443,
stim/posf.jpg,stim/negf.jpg,stim/5.jpg,stim/3.jpg,stim/latef.jpg,CD,1,2,,,,,,,,,,,,,0,0,0,23,,,,,,2,1,1.29956068902,,,,,,2015_Dez_03_1626,P15,PLC_L_D1S1,NHG,60.0180435443,
stim/posf.jpg,stim/negf.jpg,stim/6.jpg,stim/4.jpg,stim/latef.jpg,EF,1,2,,,,,,,,,,,,,0,1,1,44,,,,,,2,1,0.916354917632,,,,,,2015_Dez_03_1626,P15,PLC_L_D1S1,NHG,60.0180435443,
stim/posf.jpg,stim/negf.jpg,stim/2.jpg,stim/1.jpg,stim/latef.jpg,AB,1,2,,,,,,,,,,,,,0,2,2,4,,,,,,2,1,0.899683033962,,,,,,2015_Dez_03_1626,P15,PLC_L_D1S1,NHG,60.0180435443,
stim/posf.jpg,stim/negf.jpg,stim/4.jpg,stim/6.jpg,stim/latef.jpg,EF,2,4,,,,,,,,,,,,,0,3,3,50,,,,,,4,1,0.799728952414,,,,,,2015_Dez_03_1626,P15,PLC_L_D1S1,NHG,60.0180435443,
stim/posf.jpg,stim/negf.jpg,stim/4.jpg,stim/6.jpg,stim/latef.jpg,EF,2,4,,,,,,,,,,,,,0,4,4,51,,,,,,2,0,1.21633213886,,,,,,2015_Dez_03_1626,P15,PLC_L_D1S1,NHG,60.0180435443,
stim/negf.jpg,stim/posf.jpg,stim/4.jpg,stim/6.jpg,stim/latef.jpg,EF,2,4,,,,,,,,,,,,,0,5,5,56,,,,,,4,1,0.649661295779,,,,,,2015_Dez_03_1626,P15,PLC_L_D1S1,NHG,60.0180435443,
stim/posf.jpg,stim/negf.jpg,stim/6.jpg,stim/4.jpg,stim/latef.jpg,EF,1,2,,,,,,,,,,,,,0,6,6,45,,,,,,2,1,0.866417434456,,,,,,2015_Dez_03_1626,P15,PLC_L_D1S1,NHG,60.0180435443,
stim/negf.jpg,stim/posf.jpg,stim/6.jpg,stim/4.jpg,stim/latef.jpg,EF,1,2,,,,,,,,,,,,,0,7,7,49,,,,,,2,1,0.716423031407,,,,,,2015_Dez_03_1626,P15,PLC_L_D1S1,NHG,60.0180435443,
stim/posf.jpg,stim/negf.jpg,stim/5.jpg,stim/3.jpg,stim/latef.jpg,CD,1,2,,,,,,,,,,,,,0,8,8,22,,,,,,2,1,1.19960159999,,,,,,2015_Dez_03_1626,P15,PLC_L_D1S1,NHG,60.0180435443,
stim/posf.jpg,stim/negf.jpg,stim/3.jpg,stim/5.jpg,stim/latef.jpg,CD,2,4,,,,,,,,,,,,,0,9,9,33,,,,,,4,1,0.966332731333,,,,,,2015_Dez_03_1626,P15,PLC_L_D1S1,NHG,60.0180435443,
stim/posf.jpg,stim/negf.jpg,stim/6.jpg,stim/4.jpg,stim/latef.jpg,EF,1,2,,,,,,,,,,,,,0,10,10,43,,,,,,2,1,1.13296386343,,,,,,2015_Dez_03_1626,P15,PLC_L_D1S1,NHG,60.0180435443,
stim/posf.jpg,stim/negf.jpg,stim/5.jpg,stim/3.jpg,stim/latef.jpg,CD,1,2,,,,,,,,,,,,,0,11,11,25,,,,,,2,1,1.24958498658,,,,,,2015_Dez_03_1626,P15,PLC_L_D1S1,NHG,60.0180435443,
stim/negf.jpg,stim/posf.jpg,stim/4.jpg,stim/6.jpg,stim/latef.jpg,EF,2,4,,,,,,,,,,,,,0,12,12,58,,,,,,4,1,1.13291445328,,,,,,2015_Dez_03_1626,P15,PLC_L_D1S1,NHG,60.0180435443,
stim/posf.jpg,stim/negf.jpg,stim/4.jpg,stim/6.jpg,stim/latef.jpg,EF,2,4,,,,,,,,,,,,,0,13,13,52,,,,,,4,1,0.783051664273,,,,,,2015_Dez_03_1626,P15,PLC_L_D1S1,NHG,60.0180435443,
stim/posf.jpg,stim/negf.jpg,stim/1.jpg,stim/2.jpg,stim/latef.jpg,AB,2,4,,,,,,,,,,,,,0,14,14,16,,,,,,4,1,1.11628619334,,,,,,2015_Dez_03_1626,P15,PLC_L_D1S1,NHG,60.0180435443,
stim/negf.jpg,stim/posf.jpg,stim/2.jpg,stim/1.jpg,stim/latef.jpg,AB,1,2,,,,,,,,,,,,,0,15,15,9,,,,,,2,1,0.816405891685,,,,,,2015_Dez_03_1626,P15,PLC_L_D1S1,NHG,60.0180435443,
stim/posf.jpg,stim/negf.jpg,stim/2.jpg,stim/1.jpg,stim/latef.jpg,AB,1,2,,,,,,,,,,,,,0,16,16,7,,,,,,2,1,0.966341786903,,,,,,2015_Dez_03_1626,P15,PLC_L_D1S1,NHG,60.0180435443,
stim/negf.jpg,stim/posf.jpg,stim/5.jpg,stim/3.jpg,stim/latef.jpg,CD,1,2,,,,,,,,,,,,,0,17,17,29,,,,,,2,1,1.16628925798,,,,,,2015_Dez_03_1626,P15,PLC_L_D1S1,NHG,60.0180435443,
stim/posf.jpg,stim/negf.jpg,stim/4.jpg,stim/6.jpg,stim/latef.jpg,EF,2,4,,,,,,,,,,,,,0,18,18,54,,,,,,4,1,0.933075745295,,,,,,2015_Dez_03_1626,P15,PLC_L_D1S1,NHG,60.0180435443,
stim/posf.jpg,stim/negf.jpg,stim/3.jpg,stim/5.jpg,stim/latef.jpg,CD,2,4,,,,,,,,,,,,,0,19,19,34,,,,,,4,1,0.932964558162,,,,,,2015_Dez_03_1626,P15,PLC_L_D1S1,NHG,60.0180435443,
stim/posf.jpg,stim/negf.jpg,stim/2.jpg,stim/1.jpg,stim/latef.jpg,AB,1,2,,,,,,,,,,,,,0,20,20,6,,,,,,4,0,1.18294291321,,,,,,2015_Dez_03_1626,P15,PLC_L_D1S1,NHG,60.0180435443,
stim/negf.jpg,stim/posf.jpg,stim/2.jpg,stim/1.jpg,stim/latef.jpg,AB,1,2,,,,,,,,,,,,,0,21,21,8,,,,,,2,1,0.966366688972,,,,,,2015_Dez_03_1626,P15,PLC_L_D1S1,NHG,60.0180435443,
stim/posf.jpg,stim/negf.jpg,stim/5.jpg,stim/3.jpg,stim/latef.jpg,CD,1,2,,,,,,,,,,,,,0,22,22,20,,,,,,2,1,0.849682297126,,,,,,2015_Dez_03_1626,P15,PLC_L_D1S1,NHG,60.0180435443,
stim/posf.jpg,stim/negf.jpg,stim/1.jpg,stim/2.jpg,stim/latef.jpg,AB,2,4,,,,,,,,,,,,,0,23,23,17,,,,,,4,1,0.833051865776,,,,,,2015_Dez_03_1626,P15,PLC_L_D1S1,NHG,60.0180435443,
stim/negf.jpg,stim/posf.jpg,stim/4.jpg,stim/6.jpg,stim/latef.jpg,EF,2,4,,,,,,,,,,,,,0,24,24,57,,,,,,4,1,1.31617100924,,,,,,2015_Dez_03_1626,P15,PLC_L_D1S1,NHG,60.0180435443,
stim/posf.jpg,stim/negf.jpg,stim/2.jpg,stim/1.jpg,stim/latef.jpg,AB,1,2,,,,,,,,,,,,,0,25,25,3,,,,,,2,1,1.03298325877,,,,,,2015_Dez_03_1626,P15,PLC_L_D1S1,NHG,60.0180435443,
stim/posf.jpg,stim/negf.jpg,stim/2.jpg,stim/1.jpg,stim/latef.jpg,AB,1,2,,,,,,,,,,,,,0,26,26,2,,,,,,2,1,0.833033486966,,,,,,2015_Dez_03_1626,P15,PLC_L_D1S1,NHG,60.0180435443,
stim/negf.jpg,stim/posf.jpg,stim/4.jpg,stim/6.jpg,stim/latef.jpg,EF,2,4,,,,,,,,,,,,,0,27,27,59,,,,,,4,1,0.834047539493,,,,,,2015_Dez_03_1626,P15,PLC_L_D1S1,NHG,60.0180435443,
stim/posf.jpg,stim/negf.jpg,stim/5.jpg,stim/3.jpg,stim/latef.jpg,CD,1,2,,,,,,,,,,,,,0,28,28,21,,,,,,2,1,1.19957553101,,,,,,2015_Dez_03_1626,P15,PLC_L_D1S1,NHG,60.0180435443,
stim/negf.jpg,stim/posf.jpg,stim/1.jpg,stim/2.jpg,stim/latef.jpg,AB,2,4,,,,,,,,,,,,,0,29,29,19,,,,,,4,1,1.18294349667,,,,,,2015_Dez_03_1626,P15,PLC_L_D1S1,NHG,60.0180435443,
stim/posf.jpg,stim/negf.jpg,stim/3.jpg,stim/5.jpg,stim/latef.jpg,CD,2,4,,,,,,,,,,,,,0,30,30,31,,,,,,4,1,1.49951360666,,,,,,2015_Dez_03_1626,P15,PLC_L_D1S1,NHG,60.0180435443,
stim/negf.jpg,stim/posf.jpg,stim/6.jpg,stim/4.jpg,stim/latef.jpg,EF,1,2,,,,,,,,,,,,,0,31,31,48,,,,,,2,1,0.833074340794,,,,,,2015_Dez_03_1626,P15,PLC_L_D1S1,NHG,60.0180435443,
stim/posf.jpg,stim/negf.jpg,stim/3.jpg,stim/5.jpg,stim/latef.jpg,CD,2,4,,,,,,,,,,,,,0,32,32,30,,,,,,4,1,1.66612740656,,,,,,2015_Dez_03_1626,P15,PLC_L_D1S1,NHG,60.0180435443,
stim/posf.jpg,stim/negf.jpg,stim/6.jpg,stim/4.jpg,stim/latef.jpg,EF,1,2,,,,,,,,,,,,,0,33,33,41,,,,,,2,1,0.799717147992,,,,,,2015_Dez_03_1626,P15,PLC_L_D1S1,NHG,60.0180435443,
stim/negf.jpg,stim/posf.jpg,stim/5.jpg,stim/3.jpg,stim/latef.jpg,CD,1,2,,,,,,,,,,,,,0,34,34,28,,,,,,2,1,1.38287993323,,,,,,2015_Dez_03_1626,P15,PLC_L_D1S1,NHG,60.0180435443,
stim/posf.jpg,stim/negf.jpg,stim/1.jpg,stim/2.jpg,stim/latef.jpg,AB,2,4,,,,,,,,,,,,,0,35,35,12,,,,,,4,1,0.81637574755,,,,,,2015_Dez_03_1626,P15,PLC_L_D1S1,NHG,60.0180435443,
stim/posf.jpg,stim/negf.jpg,stim/2.jpg,stim/1.jpg,stim/latef.jpg,AB,1,2,,,,,,,,,,,,,0,36,36,0,,,,,,2,1,0.71642939226,,,,,,2015_Dez_03_1626,P15,PLC_L_D1S1,NHG,60.0180435443,
stim/negf.jpg,stim/posf.jpg,stim/1.jpg,stim/2.jpg,stim/latef.jpg,AB,2,4,,,,,,,,,,,,,0,37,37,18,,,,,,4,1,0.799705692439,,,,,,2015_Dez_03_1626,P15,PLC_L_D1S1,NHG,60.0180435443,
stim/posf.jpg,stim/negf.jpg,stim/3.jpg,stim/5.jpg,stim/latef.jpg,CD,2,4,,,,,,,,,,,,,0,38,38,32,,,,,,4,1,1.13295745446,,,,,,2015_Dez_03_1626,P15,PLC_L_D1S1,NHG,60.0180435443,
stim/posf.jpg,stim/negf.jpg,stim/2.jpg,stim/1.jpg,stim/latef.jpg,AB,1,2,,,,,,,,,,,,,0,39,39,5,,,,,,2,1,0.799726898294,,,,,,2015_Dez_03_1626,P15,PLC_L_D1S1,NHG,60.0180435443,
stim/posf.jpg,stim/negf.jpg,stim/6.jpg,stim/4.jpg,stim/latef.jpg,EF,1,2,,,,,,,,,,,,,0,40,40,40,,,,,,2,1,1.44947346561,,,,,,2015_Dez_03_1626,P15,PLC_L_D1S1,NHG,60.0180435443,
stim/posf.jpg,stim/negf.jpg,stim/1.jpg,stim/2.jpg,stim/latef.jpg,AB,2,4,,,,,,,,,,,,,0,41,41,11,,,,,,4,1,0.849700056391,,,,,,2015_Dez_03_1626,P15,PLC_L_D1S1,NHG,60.0180435443,
stim/posf.jpg,stim/negf.jpg,stim/1.jpg,stim/2.jpg,stim/latef.jpg,AB,2,4,,,,,,,,,,,,,0,42,42,10,,,,,,4,1,0.74972983361,,,,,,2015_Dez_03_1626,P15,PLC_L_D1S1,NHG,60.0180435443,
stim/negf.jpg,stim/posf.jpg,stim/3.jpg,stim/5.jpg,stim/latef.jpg,CD,2,4,,,,,,,,,,,,,0,43,43,38,,,,,,4,1,0.833112893888,,,,,,2015_Dez_03_1626,P15,PLC_L_D1S1,NHG,60.0180435443,
stim/posf.jpg,stim/negf.jpg,stim/5.jpg,stim/3.jpg,stim/latef.jpg,CD,1,2,,,,,,,,,,,,,0,44,44,26,,,,,,2,1,0.966346192885,,,,,,2015_Dez_03_1626,P15,PLC_L_D1S1,NHG,60.0180435443,
stim/negf.jpg,stim/posf.jpg,stim/6.jpg,stim/4.jpg,stim/latef.jpg,EF,1,2,,,,,,,,,,,,,0,45,45,46,,,,,,2,1,1.09963621025,,,,,,2015_Dez_03_1626,P15,PLC_L_D1S1,NHG,60.0180435443,
stim/posf.jpg,stim/negf.jpg,stim/1.jpg,stim/2.jpg,stim/latef.jpg,AB,2,4,,,,,,,,,,,,,0,46,46,15,,,,,,4,1,0.766395284246,,,,,,2015_Dez_03_1626,P15,PLC_L_D1S1,NHG,60.0180435443,
stim/posf.jpg,stim/negf.jpg,stim/1.jpg,stim/2.jpg,stim/latef.jpg,AB,2,4,,,,,,,,,,,,,0,47,47,14,,,,,,4,1,0.816332965918,,,,,,2015_Dez_03_1626,P15,PLC_L_D1S1,NHG,60.0180435443,
stim/posf.jpg,stim/negf.jpg,stim/4.jpg,stim/6.jpg,stim/latef.jpg,EF,2,4,,,,,,,,,,,,,0,48,48,53,,,,,,4,1,1.16628154375,,,,,,2015_Dez_03_1626,P15,PLC_L_D1S1,NHG,60.0180435443,
stim/negf.jpg,stim/posf.jpg,stim/3.jpg,stim/5.jpg,stim/latef.jpg,CD,2,4,,,,,,,,,,,,,0,49,49,37,,,,,,4,1,1.29957786182,,,,,,2015_Dez_03_1626,P15,PLC_L_D1S1,NHG,60.0180435443,
stim/negf.jpg,stim/posf.jpg,stim/3.jpg,stim/5.jpg,stim/latef.jpg,CD,2,4,,,,,,,,,,,,,0,50,50,39,,,,,,4,1,0.766411488636,,,,,,2015_Dez_03_1626,P15,PLC_L_D1S1,NHG,60.0180435443,
stim/posf.jpg,stim/negf.jpg,stim/3.jpg,stim/5.jpg,stim/latef.jpg,CD,2,4,,,,,,,,,,,,,0,51,51,35,,,,,,4,1,0.833059928873,,,,,,2015_Dez_03_1626,P15,PLC_L_D1S1,NHG,60.0180435443,
stim/posf.jpg,stim/negf.jpg,stim/1.jpg,stim/2.jpg,stim/latef.jpg,AB,2,4,,,,,,,,,,,,,0,52,52,13,,,,,,4,1,1.23291189991,,,,,,2015_Dez_03_1626,P15,PLC_L_D1S1,NHG,60.0180435443,
stim/posf.jpg,stim/negf.jpg,stim/4.jpg,stim/6.jpg,stim/latef.jpg,EF,2,4,,,,,,,,,,,,,0,53,53,55,,,,,,4,1,1.08300995632,,,,,,2015_Dez_03_1626,P15,PLC_L_D1S1,NHG,60.0180435443,
stim/negf.jpg,stim/posf.jpg,stim/6.jpg,stim/4.jpg,stim/latef.jpg,EF,1,2,,,,,,,,,,,,,0,54,54,47,,,,,,2,1,1.04961307058,,,,,,2015_Dez_03_1626,P15,PLC_L_D1S1,NHG,60.0180435443,
stim/posf.jpg,stim/negf.jpg,stim/6.jpg,stim/4.jpg,stim/latef.jpg,EF,1,2,,,,,,,,,,,,,0,55,55,42,,,,,,2,1,0.783001439087,,,,,,2015_Dez_03_1626,P15,PLC_L_D1S1,NHG,60.0180435443,
stim/posf.jpg,stim/negf.jpg,stim/3.jpg,stim/5.jpg,stim/latef.jpg,CD,2,4,,,,,,,,,,,,,0,56,56,36,,,,,,4,1,0.849725848678,,,,,,2015_Dez_03_1626,P15,PLC_L_D1S1,NHG,60.0180435443,
stim/posf.jpg,stim/negf.jpg,stim/5.jpg,stim/3.jpg,stim/latef.jpg,CD,1,2,,,,,,,,,,,,,0,57,57,24,,,,,,2,1,0.93298140014,,,,,,2015_Dez_03_1626,P15,PLC_L_D1S1,NHG,60.0180435443,
stim/posf.jpg,stim/negf.jpg,stim/2.jpg,stim/1.jpg,stim/latef.jpg,AB,1,2,,,,,,,,,,,,,0,58,58,1,,,,,,2,1,1.01633653281,,,,,,2015_Dez_03_1626,P15,PLC_L_D1S1,NHG,60.0180435443,
stim/negf.jpg,stim/posf.jpg,stim/5.jpg,stim/3.jpg,stim/latef.jpg,CD,1,2,,,,,,,,,,,,,0,59,59,27,,,,,,2,1,1.08297013707,,,,,,2015_Dez_03_1626,P15,PLC_L_D1S1,NHG,60.0180435443,
