fb_corr,fb_incorr,symbol2,symbol1,fb_late,pair,position,correct,block_01.thisRepN,block_01.thisTrialN,block_01.thisN,block_01.thisIndex,block_02.thisRepN,block_02.thisTrialN,block_02.thisN,block_02.thisIndex,block_03.thisRepN,block_03.thisTrialN,block_03.thisN,block_03.thisIndex,block_04.thisRepN,block_04.thisTrialN,block_04.thisN,block_04.thisIndex,mouse.x,mouse.y,mouse.leftButton,mouse.midButton,mouse.rightButton,buttonBox_2.keys,buttonBox_2.corr,buttonBox_2.rt,mouse_2.x,mouse_2.y,mouse_2.leftButton,mouse_2.midButton,mouse_2.rightButton,date,Participant,expName,Group,frameRate,
,,,,,,,,,,,,,,,,,,,,,,,,0.9984375,1.0,1,0,0,,,,,,,,,2015_Dez_08_1520,P16,PLC_L_D1S1,NHG,60.014512338,
stim/negf.jpg,stim/posf.jpg,stim/4.jpg,stim/5.jpg,stim/latef.jpg,CD,2,4,0,0,0,38,,,,,,,,,,,,,,,,,,4,1,1.09966951651,,,,,,2015_Dez_08_1520,P16,PLC_L_D1S1,NHG,60.014512338,
stim/posf.jpg,stim/negf.jpg,stim/5.jpg,stim/4.jpg,stim/latef.jpg,CD,1,2,0,1,1,24,,,,,,,,,,,,,,,,,,2,1,0.799703768755,,,,,,2015_Dez_08_1520,P16,PLC_L_D1S1,NHG,60.014512338,
stim/negf.jpg,stim/posf.jpg,stim/3.jpg,stim/6.jpg,stim/latef.jpg,AB,1,2,0,2,2,9,,,,,,,,,,,,,,,,,,2,1,1.13295719823,,,,,,2015_Dez_08_1520,P16,PLC_L_D1S1,NHG,60.014512338,
stim/posf.jpg,stim/negf.jpg,stim/5.jpg,stim/4.jpg,stim/latef.jpg,CD,1,2,0,3,3,22,,,,,,,,,,,,,,,,,,2,1,0.916375150657,,,,,,2015_Dez_08_1520,P16,PLC_L_D1S1,NHG,60.014512338,
stim/posf.jpg,stim/negf.jpg,stim/1.jpg,stim/2.jpg,stim/latef.jpg,EF,2,4,0,4,4,50,,,,,,,,,,,,,,,,,,4,1,1.24961159686,,,,,,2015_Dez_08_1520,P16,PLC_L_D1S1,NHG,60.014512338,
stim/posf.jpg,stim/negf.jpg,stim/4.jpg,stim/5.jpg,stim/latef.jpg,CD,2,4,0,5,5,31,,,,,,,,,,,,,,,,,,4,1,0.8997137115,,,,,,2015_Dez_08_1520,P16,PLC_L_D1S1,NHG,60.014512338,
stim/posf.jpg,stim/negf.jpg,stim/1.jpg,stim/2.jpg,stim/latef.jpg,EF,2,4,0,6,6,52,,,,,,,,,,,,,,,,,,4,1,0.933017200558,,,,,,2015_Dez_08_1520,P16,PLC_L_D1S1,NHG,60.014512338,
stim/posf.jpg,stim/negf.jpg,stim/5.jpg,stim/4.jpg,stim/latef.jpg,CD,1,2,0,7,7,23,,,,,,,,,,,,,,,,,,2,1,1.23287133153,,,,,,2015_Dez_08_1520,P16,PLC_L_D1S1,NHG,60.014512338,
stim/negf.jpg,stim/posf.jpg,stim/2.jpg,stim/1.jpg,stim/latef.jpg,EF,1,2,0,8,8,49,,,,,,,,,,,,,,,,,,2,1,0.883008008181,,,,,,2015_Dez_08_1520,P16,PLC_L_D1S1,NHG,60.014512338,
stim/posf.jpg,stim/negf.jpg,stim/3.jpg,stim/6.jpg,stim/latef.jpg,AB,1,2,0,9,9,1,,,,,,,,,,,,,,,,,,None,0,,,,,,,2015_Dez_08_1520,P16,PLC_L_D1S1,NHG,60.014512338,
stim/negf.jpg,stim/posf.jpg,stim/6.jpg,stim/3.jpg,stim/latef.jpg,AB,2,4,0,10,10,18,,,,,,,,,,,,,,,,,,4,1,1.01633324436,,,,,,2015_Dez_08_1520,P16,PLC_L_D1S1,NHG,60.014512338,
stim/posf.jpg,stim/negf.jpg,stim/2.jpg,stim/1.jpg,stim/latef.jpg,EF,1,2,0,11,11,45,,,,,,,,,,,,,,,,,,2,1,0.916362916208,,,,,,2015_Dez_08_1520,P16,PLC_L_D1S1,NHG,60.014512338,
stim/negf.jpg,stim/posf.jpg,stim/1.jpg,stim/2.jpg,stim/latef.jpg,EF,2,4,0,12,12,59,,,,,,,,,,,,,,,,,,4,1,0.999669089446,,,,,,2015_Dez_08_1520,P16,PLC_L_D1S1,NHG,60.014512338,
stim/posf.jpg,stim/negf.jpg,stim/6.jpg,stim/3.jpg,stim/latef.jpg,AB,2,4,0,13,13,16,,,,,,,,,,,,,,,,,,4,1,1.01633594508,,,,,,2015_Dez_08_1520,P16,PLC_L_D1S1,NHG,60.014512338,
stim/negf.jpg,stim/posf.jpg,stim/1.jpg,stim/2.jpg,stim/latef.jpg,EF,2,4,0,14,14,56,,,,,,,,,,,,,,,,,,4,1,1.0163128867,,,,,,2015_Dez_08_1520,P16,PLC_L_D1S1,NHG,60.014512338,
stim/posf.jpg,stim/negf.jpg,stim/1.jpg,stim/2.jpg,stim/latef.jpg,EF,2,4,0,15,15,51,,,,,,,,,,,,,,,,,,2,0,1.08295589749,,,,,,2015_Dez_08_1520,P16,PLC_L_D1S1,NHG,60.014512338,
stim/negf.jpg,stim/posf.jpg,stim/2.jpg,stim/1.jpg,stim/latef.jpg,EF,1,2,0,16,16,48,,,,,,,,,,,,,,,,,,2,1,1.18297748221,,,,,,2015_Dez_08_1520,P16,PLC_L_D1S1,NHG,60.014512338,
stim/posf.jpg,stim/negf.jpg,stim/4.jpg,stim/5.jpg,stim/latef.jpg,CD,2,4,0,17,17,34,,,,,,,,,,,,,,,,,,4,1,0.966372159712,,,,,,2015_Dez_08_1520,P16,PLC_L_D1S1,NHG,60.014512338,
stim/negf.jpg,stim/posf.jpg,stim/6.jpg,stim/3.jpg,stim/latef.jpg,AB,2,4,0,18,18,19,,,,,,,,,,,,,,,,,,2,0,1.1329348857,,,,,,2015_Dez_08_1520,P16,PLC_L_D1S1,NHG,60.014512338,
stim/posf.jpg,stim/negf.jpg,stim/5.jpg,stim/4.jpg,stim/latef.jpg,CD,1,2,0,19,19,26,,,,,,,,,,,,,,,,,,2,1,0.916370525144,,,,,,2015_Dez_08_1520,P16,PLC_L_D1S1,NHG,60.014512338,
stim/posf.jpg,stim/negf.jpg,stim/6.jpg,stim/3.jpg,stim/latef.jpg,AB,2,4,0,20,20,11,,,,,,,,,,,,,,,,,,2,0,0.966345465276,,,,,,2015_Dez_08_1520,P16,PLC_L_D1S1,NHG,60.014512338,
stim/posf.jpg,stim/negf.jpg,stim/3.jpg,stim/6.jpg,stim/latef.jpg,AB,1,2,0,21,21,7,,,,,,,,,,,,,,,,,,4,0,1.16623312369,,,,,,2015_Dez_08_1520,P16,PLC_L_D1S1,NHG,60.014512338,
stim/posf.jpg,stim/negf.jpg,stim/3.jpg,stim/6.jpg,stim/latef.jpg,AB,1,2,0,22,22,6,,,,,,,,,,,,,,,,,,2,1,0.816402663128,,,,,,2015_Dez_08_1520,P16,PLC_L_D1S1,NHG,60.014512338,
stim/negf.jpg,stim/posf.jpg,stim/4.jpg,stim/5.jpg,stim/latef.jpg,CD,2,4,0,23,23,39,,,,,,,,,,,,,,,,,,4,1,1.21626196697,,,,,,2015_Dez_08_1520,P16,PLC_L_D1S1,NHG,60.014512338,
stim/posf.jpg,stim/negf.jpg,stim/2.jpg,stim/1.jpg,stim/latef.jpg,EF,1,2,0,24,24,42,,,,,,,,,,,,,,,,,,2,1,0.799745187836,,,,,,2015_Dez_08_1520,P16,PLC_L_D1S1,NHG,60.014512338,
stim/posf.jpg,stim/negf.jpg,stim/6.jpg,stim/3.jpg,stim/latef.jpg,AB,2,4,0,25,25,13,,,,,,,,,,,,,,,,,,4,1,1.01636254027,,,,,,2015_Dez_08_1520,P16,PLC_L_D1S1,NHG,60.014512338,
stim/posf.jpg,stim/negf.jpg,stim/3.jpg,stim/6.jpg,stim/latef.jpg,AB,1,2,0,26,26,5,,,,,,,,,,,,,,,,,,2,1,1.28290261689,,,,,,2015_Dez_08_1520,P16,PLC_L_D1S1,NHG,60.014512338,
stim/negf.jpg,stim/posf.jpg,stim/1.jpg,stim/2.jpg,stim/latef.jpg,EF,2,4,0,27,27,57,,,,,,,,,,,,,,,,,,4,1,0.966345847228,,,,,,2015_Dez_08_1520,P16,PLC_L_D1S1,NHG,60.014512338,
stim/posf.jpg,stim/negf.jpg,stim/4.jpg,stim/5.jpg,stim/latef.jpg,CD,2,4,0,28,28,33,,,,,,,,,,,,,,,,,,4,1,0.666456907629,,,,,,2015_Dez_08_1520,P16,PLC_L_D1S1,NHG,60.014512338,
stim/posf.jpg,stim/negf.jpg,stim/4.jpg,stim/5.jpg,stim/latef.jpg,CD,2,4,0,29,29,30,,,,,,,,,,,,,,,,,,4,1,0.716419493013,,,,,,2015_Dez_08_1520,P16,PLC_L_D1S1,NHG,60.014512338,
stim/posf.jpg,stim/negf.jpg,stim/3.jpg,stim/6.jpg,stim/latef.jpg,AB,1,2,0,30,30,0,,,,,,,,,,,,,,,,,,2,1,0.83305994594,,,,,,2015_Dez_08_1520,P16,PLC_L_D1S1,NHG,60.014512338,
stim/posf.jpg,stim/negf.jpg,stim/3.jpg,stim/6.jpg,stim/latef.jpg,AB,1,2,0,31,31,4,,,,,,,,,,,,,,,,,,2,1,0.916352774969,,,,,,2015_Dez_08_1520,P16,PLC_L_D1S1,NHG,60.014512338,
stim/posf.jpg,stim/negf.jpg,stim/5.jpg,stim/4.jpg,stim/latef.jpg,CD,1,2,0,32,32,21,,,,,,,,,,,,,,,,,,2,1,0.799745220918,,,,,,2015_Dez_08_1520,P16,PLC_L_D1S1,NHG,60.014512338,
stim/posf.jpg,stim/negf.jpg,stim/2.jpg,stim/1.jpg,stim/latef.jpg,EF,1,2,0,33,33,41,,,,,,,,,,,,,,,,,,4,0,1.26631231979,,,,,,2015_Dez_08_1520,P16,PLC_L_D1S1,NHG,60.014512338,
stim/negf.jpg,stim/posf.jpg,stim/2.jpg,stim/1.jpg,stim/latef.jpg,EF,1,2,0,34,34,46,,,,,,,,,,,,,,,,,,2,1,0.816373514584,,,,,,2015_Dez_08_1520,P16,PLC_L_D1S1,NHG,60.014512338,
stim/posf.jpg,stim/negf.jpg,stim/6.jpg,stim/3.jpg,stim/latef.jpg,AB,2,4,0,35,35,12,,,,,,,,,,,,,,,,,,4,1,1.08296147938,,,,,,2015_Dez_08_1520,P16,PLC_L_D1S1,NHG,60.014512338,
stim/posf.jpg,stim/negf.jpg,stim/1.jpg,stim/2.jpg,stim/latef.jpg,EF,2,4,0,36,36,55,,,,,,,,,,,,,,,,,,4,1,1.04965527757,,,,,,2015_Dez_08_1520,P16,PLC_L_D1S1,NHG,60.014512338,
stim/posf.jpg,stim/negf.jpg,stim/1.jpg,stim/2.jpg,stim/latef.jpg,EF,2,4,0,37,37,53,,,,,,,,,,,,,,,,,,4,1,0.816373508569,,,,,,2015_Dez_08_1520,P16,PLC_L_D1S1,NHG,60.014512338,
stim/posf.jpg,stim/negf.jpg,stim/4.jpg,stim/5.jpg,stim/latef.jpg,CD,2,4,0,38,38,36,,,,,,,,,,,,,,,,,,4,1,0.649771216114,,,,,,2015_Dez_08_1520,P16,PLC_L_D1S1,NHG,60.014512338,
stim/posf.jpg,stim/negf.jpg,stim/4.jpg,stim/5.jpg,stim/latef.jpg,CD,2,4,0,39,39,35,,,,,,,,,,,,,,,,,,4,1,0.549823991459,,,,,,2015_Dez_08_1520,P16,PLC_L_D1S1,NHG,60.014512338,
stim/posf.jpg,stim/negf.jpg,stim/2.jpg,stim/1.jpg,stim/latef.jpg,EF,1,2,0,40,40,40,,,,,,,,,,,,,,,,,,2,1,0.883038816855,,,,,,2015_Dez_08_1520,P16,PLC_L_D1S1,NHG,60.014512338,
stim/posf.jpg,stim/negf.jpg,stim/2.jpg,stim/1.jpg,stim/latef.jpg,EF,1,2,0,41,41,44,,,,,,,,,,,,,,,,,,2,1,0.78309809739,,,,,,2015_Dez_08_1520,P16,PLC_L_D1S1,NHG,60.014512338,
stim/posf.jpg,stim/negf.jpg,stim/1.jpg,stim/2.jpg,stim/latef.jpg,EF,2,4,0,42,42,54,,,,,,,,,,,,,,,,,,4,1,1.06630993485,,,,,,2015_Dez_08_1520,P16,PLC_L_D1S1,NHG,60.014512338,
stim/negf.jpg,stim/posf.jpg,stim/3.jpg,stim/6.jpg,stim/latef.jpg,AB,1,2,0,43,43,8,,,,,,,,,,,,,,,,,,4,0,0.94966567144,,,,,,2015_Dez_08_1520,P16,PLC_L_D1S1,NHG,60.014512338,
stim/posf.jpg,stim/negf.jpg,stim/3.jpg,stim/6.jpg,stim/latef.jpg,AB,1,2,0,44,44,2,,,,,,,,,,,,,,,,,,4,0,0.999661988774,,,,,,2015_Dez_08_1520,P16,PLC_L_D1S1,NHG,60.014512338,
stim/posf.jpg,stim/negf.jpg,stim/3.jpg,stim/6.jpg,stim/latef.jpg,AB,1,2,0,45,45,3,,,,,,,,,,,,,,,,,,4,0,1.58279687071,,,,,,2015_Dez_08_1520,P16,PLC_L_D1S1,NHG,60.014512338,
stim/posf.jpg,stim/negf.jpg,stim/6.jpg,stim/3.jpg,stim/latef.jpg,AB,2,4,0,46,46,17,,,,,,,,,,,,,,,,,,2,0,1.03303345,,,,,,2015_Dez_08_1520,P16,PLC_L_D1S1,NHG,60.014512338,
stim/posf.jpg,stim/negf.jpg,stim/6.jpg,stim/3.jpg,stim/latef.jpg,AB,2,4,0,47,47,10,,,,,,,,,,,,,,,,,,4,1,0.866375540125,,,,,,2015_Dez_08_1520,P16,PLC_L_D1S1,NHG,60.014512338,
stim/posf.jpg,stim/negf.jpg,stim/2.jpg,stim/1.jpg,stim/latef.jpg,EF,1,2,0,48,48,43,,,,,,,,,,,,,,,,,,2,1,1.39952853765,,,,,,2015_Dez_08_1520,P16,PLC_L_D1S1,NHG,60.014512338,
stim/negf.jpg,stim/posf.jpg,stim/5.jpg,stim/4.jpg,stim/latef.jpg,CD,1,2,0,49,49,28,,,,,,,,,,,,,,,,,,2,1,0.649802262381,,,,,,2015_Dez_08_1520,P16,PLC_L_D1S1,NHG,60.014512338,
stim/negf.jpg,stim/posf.jpg,stim/5.jpg,stim/4.jpg,stim/latef.jpg,CD,1,2,0,50,50,27,,,,,,,,,,,,,,,,,,2,1,0.633041392766,,,,,,2015_Dez_08_1520,P16,PLC_L_D1S1,NHG,60.014512338,
stim/negf.jpg,stim/posf.jpg,stim/4.jpg,stim/5.jpg,stim/latef.jpg,CD,2,4,0,51,51,37,,,,,,,,,,,,,,,,,,4,1,0.816347102853,,,,,,2015_Dez_08_1520,P16,PLC_L_D1S1,NHG,60.014512338,
stim/posf.jpg,stim/negf.jpg,stim/6.jpg,stim/3.jpg,stim/latef.jpg,AB,2,4,0,52,52,15,,,,,,,,,,,,,,,,,,4,1,1.1329409127,,,,,,2015_Dez_08_1520,P16,PLC_L_D1S1,NHG,60.014512338,
stim/posf.jpg,stim/negf.jpg,stim/6.jpg,stim/3.jpg,stim/latef.jpg,AB,2,4,0,53,53,14,,,,,,,,,,,,,,,,,,4,1,0.583145266783,,,,,,2015_Dez_08_1520,P16,PLC_L_D1S1,NHG,60.014512338,
stim/negf.jpg,stim/posf.jpg,stim/1.jpg,stim/2.jpg,stim/latef.jpg,EF,2,4,0,54,54,58,,,,,,,,,,,,,,,,,,4,1,1.06631155588,,,,,,2015_Dez_08_1520,P16,PLC_L_D1S1,NHG,60.014512338,
stim/posf.jpg,stim/negf.jpg,stim/4.jpg,stim/5.jpg,stim/latef.jpg,CD,2,4,0,55,55,32,,,,,,,,,,,,,,,,,,4,1,0.516502920644,,,,,,2015_Dez_08_1520,P16,PLC_L_D1S1,NHG,60.014512338,
stim/negf.jpg,stim/posf.jpg,stim/2.jpg,stim/1.jpg,stim/latef.jpg,EF,1,2,0,56,56,47,,,,,,,,,,,,,,,,,,2,1,0.833037600328,,,,,,2015_Dez_08_1520,P16,PLC_L_D1S1,NHG,60.014512338,
stim/posf.jpg,stim/negf.jpg,stim/5.jpg,stim/4.jpg,stim/latef.jpg,CD,1,2,0,57,57,25,,,,,,,,,,,,,,,,,,2,1,0.699709819814,,,,,,2015_Dez_08_1520,P16,PLC_L_D1S1,NHG,60.014512338,
stim/negf.jpg,stim/posf.jpg,stim/5.jpg,stim/4.jpg,stim/latef.jpg,CD,1,2,0,58,58,29,,,,,,,,,,,,,,,,,,2,1,0.516508505543,,,,,,2015_Dez_08_1520,P16,PLC_L_D1S1,NHG,60.014512338,
stim/posf.jpg,stim/negf.jpg,stim/5.jpg,stim/4.jpg,stim/latef.jpg,CD,1,2,0,59,59,20,,,,,,,,,,,,,,,,,,2,1,0.649789748236,,,,,,2015_Dez_08_1520,P16,PLC_L_D1S1,NHG,60.014512338,
,,,,,,,,,,,,,,,,,,,,,,,,,,,,,,,,0.9984375,1.0,1,0,0,2015_Dez_08_1520,P16,PLC_L_D1S1,NHG,60.014512338,
stim/posf.jpg,stim/negf.jpg,stim/3.jpg,stim/6.jpg,stim/latef.jpg,AB,1,2,,,,,0,0,0,5,,,,,,,,,,,,,,2,1,0.916376943117,,,,,,2015_Dez_08_1520,P16,PLC_L_D1S1,NHG,60.014512338,
stim/negf.jpg,stim/posf.jpg,stim/1.jpg,stim/2.jpg,stim/latef.jpg,EF,2,4,,,,,0,1,1,58,,,,,,,,,,,,,,4,1,1.04960197592,,,,,,2015_Dez_08_1520,P16,PLC_L_D1S1,NHG,60.014512338,
stim/negf.jpg,stim/posf.jpg,stim/3.jpg,stim/6.jpg,stim/latef.jpg,AB,1,2,,,,,0,2,2,8,,,,,,,,,,,,,,2,1,0.766439226625,,,,,,2015_Dez_08_1520,P16,PLC_L_D1S1,NHG,60.014512338,
stim/posf.jpg,stim/negf.jpg,stim/3.jpg,stim/6.jpg,stim/latef.jpg,AB,1,2,,,,,0,3,3,1,,,,,,,,,,,,,,2,1,1.44951794679,,,,,,2015_Dez_08_1520,P16,PLC_L_D1S1,NHG,60.014512338,
stim/negf.jpg,stim/posf.jpg,stim/5.jpg,stim/4.jpg,stim/latef.jpg,CD,1,2,,,,,0,4,4,29,,,,,,,,,,,,,,2,1,0.699761795167,,,,,,2015_Dez_08_1520,P16,PLC_L_D1S1,NHG,60.014512338,
stim/posf.jpg,stim/negf.jpg,stim/3.jpg,stim/6.jpg,stim/latef.jpg,AB,1,2,,,,,0,5,5,7,,,,,,,,,,,,,,2,1,1.13296491243,,,,,,2015_Dez_08_1520,P16,PLC_L_D1S1,NHG,60.014512338,
stim/negf.jpg,stim/posf.jpg,stim/2.jpg,stim/1.jpg,stim/latef.jpg,EF,1,2,,,,,0,6,6,49,,,,,,,,,,,,,,4,0,1.08296947628,,,,,,2015_Dez_08_1520,P16,PLC_L_D1S1,NHG,60.014512338,
stim/negf.jpg,stim/posf.jpg,stim/1.jpg,stim/2.jpg,stim/latef.jpg,EF,2,4,,,,,0,7,7,56,,,,,,,,,,,,,,4,1,1.64946157149,,,,,,2015_Dez_08_1520,P16,PLC_L_D1S1,NHG,60.014512338,
stim/negf.jpg,stim/posf.jpg,stim/2.jpg,stim/1.jpg,stim/latef.jpg,EF,1,2,,,,,0,8,8,46,,,,,,,,,,,,,,2,1,0.999629562073,,,,,,2015_Dez_08_1520,P16,PLC_L_D1S1,NHG,60.014512338,
stim/posf.jpg,stim/negf.jpg,stim/2.jpg,stim/1.jpg,stim/latef.jpg,EF,1,2,,,,,0,9,9,44,,,,,,,,,,,,,,2,1,1.39954180366,,,,,,2015_Dez_08_1520,P16,PLC_L_D1S1,NHG,60.014512338,
stim/negf.jpg,stim/posf.jpg,stim/4.jpg,stim/5.jpg,stim/latef.jpg,CD,2,4,,,,,0,10,10,39,,,,,,,,,,,,,,4,1,0.599774210065,,,,,,2015_Dez_08_1520,P16,PLC_L_D1S1,NHG,60.014512338,
stim/negf.jpg,stim/posf.jpg,stim/2.jpg,stim/1.jpg,stim/latef.jpg,EF,1,2,,,,,0,11,11,48,,,,,,,,,,,,,,2,1,0.883049926505,,,,,,2015_Dez_08_1520,P16,PLC_L_D1S1,NHG,60.014512338,
stim/posf.jpg,stim/negf.jpg,stim/6.jpg,stim/3.jpg,stim/latef.jpg,AB,2,4,,,,,0,12,12,17,,,,,,,,,,,,,,4,1,0.716466217298,,,,,,2015_Dez_08_1520,P16,PLC_L_D1S1,NHG,60.014512338,
stim/posf.jpg,stim/negf.jpg,stim/4.jpg,stim/5.jpg,stim/latef.jpg,CD,2,4,,,,,0,13,13,32,,,,,,,,,,,,,,4,1,0.633119557298,,,,,,2015_Dez_08_1520,P16,PLC_L_D1S1,NHG,60.014512338,
stim/posf.jpg,stim/negf.jpg,stim/2.jpg,stim/1.jpg,stim/latef.jpg,EF,1,2,,,,,0,14,14,41,,,,,,,,,,,,,,2,1,1.2162467491,,,,,,2015_Dez_08_1520,P16,PLC_L_D1S1,NHG,60.014512338,
stim/posf.jpg,stim/negf.jpg,stim/6.jpg,stim/3.jpg,stim/latef.jpg,AB,2,4,,,,,0,15,15,12,,,,,,,,,,,,,,4,1,1.13294043451,,,,,,2015_Dez_08_1520,P16,PLC_L_D1S1,NHG,60.014512338,
stim/posf.jpg,stim/negf.jpg,stim/3.jpg,stim/6.jpg,stim/latef.jpg,AB,1,2,,,,,0,16,16,2,,,,,,,,,,,,,,2,1,0.716445916776,,,,,,2015_Dez_08_1520,P16,PLC_L_D1S1,NHG,60.014512338,
stim/posf.jpg,stim/negf.jpg,stim/2.jpg,stim/1.jpg,stim/latef.jpg,EF,1,2,,,,,0,17,17,42,,,,,,,,,,,,,,2,1,1.11628672158,,,,,,2015_Dez_08_1520,P16,PLC_L_D1S1,NHG,60.014512338,
stim/posf.jpg,stim/negf.jpg,stim/1.jpg,stim/2.jpg,stim/latef.jpg,EF,2,4,,,,,0,18,18,52,,,,,,,,,,,,,,4,1,1.04966162637,,,,,,2015_Dez_08_1520,P16,PLC_L_D1S1,NHG,60.014512338,
stim/negf.jpg,stim/posf.jpg,stim/6.jpg,stim/3.jpg,stim/latef.jpg,AB,2,4,,,,,0,19,19,18,,,,,,,,,,,,,,4,1,1.03296191096,,,,,,2015_Dez_08_1520,P16,PLC_L_D1S1,NHG,60.014512338,
stim/posf.jpg,stim/negf.jpg,stim/3.jpg,stim/6.jpg,stim/latef.jpg,AB,1,2,,,,,0,20,20,3,,,,,,,,,,,,,,2,1,0.899700752248,,,,,,2015_Dez_08_1520,P16,PLC_L_D1S1,NHG,60.014512338,
stim/posf.jpg,stim/negf.jpg,stim/2.jpg,stim/1.jpg,stim/latef.jpg,EF,1,2,,,,,0,21,21,40,,,,,,,,,,,,,,2,1,1.34954187735,,,,,,2015_Dez_08_1520,P16,PLC_L_D1S1,NHG,60.014512338,
stim/posf.jpg,stim/negf.jpg,stim/5.jpg,stim/4.jpg,stim/latef.jpg,CD,1,2,,,,,0,22,22,25,,,,,,,,,,,,,,2,1,0.916344047248,,,,,,2015_Dez_08_1520,P16,PLC_L_D1S1,NHG,60.014512338,
stim/posf.jpg,stim/negf.jpg,stim/5.jpg,stim/4.jpg,stim/latef.jpg,CD,1,2,,,,,0,23,23,26,,,,,,,,,,,,,,2,1,0.683075586366,,,,,,2015_Dez_08_1520,P16,PLC_L_D1S1,NHG,60.014512338,
stim/posf.jpg,stim/negf.jpg,stim/4.jpg,stim/5.jpg,stim/latef.jpg,CD,2,4,,,,,0,24,24,35,,,,,,,,,,,,,,4,1,0.799717720477,,,,,,2015_Dez_08_1520,P16,PLC_L_D1S1,NHG,60.014512338,
stim/posf.jpg,stim/negf.jpg,stim/4.jpg,stim/5.jpg,stim/latef.jpg,CD,2,4,,,,,0,25,25,36,,,,,,,,,,,,,,4,1,0.616453209926,,,,,,2015_Dez_08_1520,P16,PLC_L_D1S1,NHG,60.014512338,
stim/negf.jpg,stim/posf.jpg,stim/4.jpg,stim/5.jpg,stim/latef.jpg,CD,2,4,,,,,0,26,26,38,,,,,,,,,,,,,,4,1,0.683108497273,,,,,,2015_Dez_08_1520,P16,PLC_L_D1S1,NHG,60.014512338,
stim/posf.jpg,stim/negf.jpg,stim/6.jpg,stim/3.jpg,stim/latef.jpg,AB,2,4,,,,,0,27,27,13,,,,,,,,,,,,,,4,1,1.43285611666,,,,,,2015_Dez_08_1520,P16,PLC_L_D1S1,NHG,60.014512338,
stim/posf.jpg,stim/negf.jpg,stim/6.jpg,stim/3.jpg,stim/latef.jpg,AB,2,4,,,,,0,28,28,11,,,,,,,,,,,,,,4,1,0.716440334883,,,,,,2015_Dez_08_1520,P16,PLC_L_D1S1,NHG,60.014512338,
stim/posf.jpg,stim/negf.jpg,stim/6.jpg,stim/3.jpg,stim/latef.jpg,AB,2,4,,,,,0,29,29,16,,,,,,,,,,,,,,4,1,0.616457113641,,,,,,2015_Dez_08_1520,P16,PLC_L_D1S1,NHG,60.014512338,
stim/negf.jpg,stim/posf.jpg,stim/3.jpg,stim/6.jpg,stim/latef.jpg,AB,1,2,,,,,0,30,30,9,,,,,,,,,,,,,,2,1,0.649837101086,,,,,,2015_Dez_08_1520,P16,PLC_L_D1S1,NHG,60.014512338,
stim/posf.jpg,stim/negf.jpg,stim/2.jpg,stim/1.jpg,stim/latef.jpg,EF,1,2,,,,,0,31,31,45,,,,,,,,,,,,,,2,1,1.04964559648,,,,,,2015_Dez_08_1520,P16,PLC_L_D1S1,NHG,60.014512338,
stim/posf.jpg,stim/negf.jpg,stim/6.jpg,stim/3.jpg,stim/latef.jpg,AB,2,4,,,,,0,32,32,15,,,,,,,,,,,,,,4,1,1.09961863588,,,,,,2015_Dez_08_1520,P16,PLC_L_D1S1,NHG,60.014512338,
stim/posf.jpg,stim/negf.jpg,stim/5.jpg,stim/4.jpg,stim/latef.jpg,CD,1,2,,,,,0,33,33,24,,,,,,,,,,,,,,2,1,0.749741676597,,,,,,2015_Dez_08_1520,P16,PLC_L_D1S1,NHG,60.014512338,
stim/posf.jpg,stim/negf.jpg,stim/1.jpg,stim/2.jpg,stim/latef.jpg,EF,2,4,,,,,0,34,34,51,,,,,,,,,,,,,,4,1,1.2829141957,,,,,,2015_Dez_08_1520,P16,PLC_L_D1S1,NHG,60.014512338,
stim/negf.jpg,stim/posf.jpg,stim/5.jpg,stim/4.jpg,stim/latef.jpg,CD,1,2,,,,,0,35,35,27,,,,,,,,,,,,,,2,1,0.783083315602,,,,,,2015_Dez_08_1520,P16,PLC_L_D1S1,NHG,60.014512338,
stim/posf.jpg,stim/negf.jpg,stim/3.jpg,stim/6.jpg,stim/latef.jpg,AB,1,2,,,,,0,36,36,6,,,,,,,,,,,,,,2,1,1.49949018921,,,,,,2015_Dez_08_1520,P16,PLC_L_D1S1,NHG,60.014512338,
stim/negf.jpg,stim/posf.jpg,stim/1.jpg,stim/2.jpg,stim/latef.jpg,EF,2,4,,,,,0,37,37,59,,,,,,,,,,,,,,4,1,1.06630827773,,,,,,2015_Dez_08_1520,P16,PLC_L_D1S1,NHG,60.014512338,
stim/negf.jpg,stim/posf.jpg,stim/5.jpg,stim/4.jpg,stim/latef.jpg,CD,1,2,,,,,0,38,38,28,,,,,,,,,,,,,,2,1,0.616469456359,,,,,,2015_Dez_08_1520,P16,PLC_L_D1S1,NHG,60.014512338,
stim/posf.jpg,stim/negf.jpg,stim/5.jpg,stim/4.jpg,stim/latef.jpg,CD,1,2,,,,,0,39,39,23,,,,,,,,,,,,,,2,1,0.616457558749,,,,,,2015_Dez_08_1520,P16,PLC_L_D1S1,NHG,60.014512338,
stim/posf.jpg,stim/negf.jpg,stim/5.jpg,stim/4.jpg,stim/latef.jpg,CD,1,2,,,,,0,40,40,22,,,,,,,,,,,,,,2,1,0.533161066604,,,,,,2015_Dez_08_1520,P16,PLC_L_D1S1,NHG,60.014512338,
stim/posf.jpg,stim/negf.jpg,stim/3.jpg,stim/6.jpg,stim/latef.jpg,AB,1,2,,,,,0,41,41,4,,,,,,,,,,,,,,2,1,0.899696415454,,,,,,2015_Dez_08_1520,P16,PLC_L_D1S1,NHG,60.014512338,
stim/posf.jpg,stim/negf.jpg,stim/4.jpg,stim/5.jpg,stim/latef.jpg,CD,2,4,,,,,0,42,42,33,,,,,,,,,,,,,,4,1,0.683116049067,,,,,,2015_Dez_08_1520,P16,PLC_L_D1S1,NHG,60.014512338,
stim/posf.jpg,stim/negf.jpg,stim/1.jpg,stim/2.jpg,stim/latef.jpg,EF,2,4,,,,,0,43,43,55,,,,,,,,,,,,,,4,1,1.18294963591,,,,,,2015_Dez_08_1520,P16,PLC_L_D1S1,NHG,60.014512338,
stim/negf.jpg,stim/posf.jpg,stim/4.jpg,stim/5.jpg,stim/latef.jpg,CD,2,4,,,,,0,44,44,37,,,,,,,,,,,,,,4,1,0.616441357428,,,,,,2015_Dez_08_1520,P16,PLC_L_D1S1,NHG,60.014512338,
stim/posf.jpg,stim/negf.jpg,stim/4.jpg,stim/5.jpg,stim/latef.jpg,CD,2,4,,,,,0,45,45,30,,,,,,,,,,,,,,4,1,0.599771145438,,,,,,2015_Dez_08_1520,P16,PLC_L_D1S1,NHG,60.014512338,
stim/posf.jpg,stim/negf.jpg,stim/6.jpg,stim/3.jpg,stim/latef.jpg,AB,2,4,,,,,0,46,46,14,,,,,,,,,,,,,,4,1,0.983010919425,,,,,,2015_Dez_08_1520,P16,PLC_L_D1S1,NHG,60.014512338,
stim/posf.jpg,stim/negf.jpg,stim/1.jpg,stim/2.jpg,stim/latef.jpg,EF,2,4,,,,,0,47,47,54,,,,,,,,,,,,,,4,1,0.849726428649,,,,,,2015_Dez_08_1520,P16,PLC_L_D1S1,NHG,60.014512338,
stim/posf.jpg,stim/negf.jpg,stim/4.jpg,stim/5.jpg,stim/latef.jpg,CD,2,4,,,,,0,48,48,34,,,,,,,,,,,,,,4,1,0.983008820202,,,,,,2015_Dez_08_1520,P16,PLC_L_D1S1,NHG,60.014512338,
stim/negf.jpg,stim/posf.jpg,stim/1.jpg,stim/2.jpg,stim/latef.jpg,EF,2,4,,,,,0,49,49,57,,,,,,,,,,,,,,4,1,1.16628868998,,,,,,2015_Dez_08_1520,P16,PLC_L_D1S1,NHG,60.014512338,
stim/posf.jpg,stim/negf.jpg,stim/5.jpg,stim/4.jpg,stim/latef.jpg,CD,1,2,,,,,0,50,50,20,,,,,,,,,,,,,,2,1,0.649773754431,,,,,,2015_Dez_08_1520,P16,PLC_L_D1S1,NHG,60.014512338,
stim/posf.jpg,stim/negf.jpg,stim/6.jpg,stim/3.jpg,stim/latef.jpg,AB,2,4,,,,,0,51,51,10,,,,,,,,,,,,,,4,1,1.13295994105,,,,,,2015_Dez_08_1520,P16,PLC_L_D1S1,NHG,60.014512338,
stim/posf.jpg,stim/negf.jpg,stim/5.jpg,stim/4.jpg,stim/latef.jpg,CD,1,2,,,,,0,52,52,21,,,,,,,,,,,,,,2,1,1.01632607452,,,,,,2015_Dez_08_1520,P16,PLC_L_D1S1,NHG,60.014512338,
stim/posf.jpg,stim/negf.jpg,stim/3.jpg,stim/6.jpg,stim/latef.jpg,AB,1,2,,,,,0,53,53,0,,,,,,,,,,,,,,2,1,1.33288974636,,,,,,2015_Dez_08_1520,P16,PLC_L_D1S1,NHG,60.014512338,
stim/negf.jpg,stim/posf.jpg,stim/6.jpg,stim/3.jpg,stim/latef.jpg,AB,2,4,,,,,0,54,54,19,,,,,,,,,,,,,,4,1,0.983018684751,,,,,,2015_Dez_08_1520,P16,PLC_L_D1S1,NHG,60.014512338,
stim/posf.jpg,stim/negf.jpg,stim/1.jpg,stim/2.jpg,stim/latef.jpg,EF,2,4,,,,,0,55,55,53,,,,,,,,,,,,,,4,1,1.13298581144,,,,,,2015_Dez_08_1520,P16,PLC_L_D1S1,NHG,60.014512338,
stim/posf.jpg,stim/negf.jpg,stim/2.jpg,stim/1.jpg,stim/latef.jpg,EF,1,2,,,,,0,56,56,43,,,,,,,,,,,,,,2,1,1.4995179122,,,,,,2015_Dez_08_1520,P16,PLC_L_D1S1,NHG,60.014512338,
stim/posf.jpg,stim/negf.jpg,stim/1.jpg,stim/2.jpg,stim/latef.jpg,EF,2,4,,,,,0,57,57,50,,,,,,,,,,,,,,4,1,1.01632046556,,,,,,2015_Dez_08_1520,P16,PLC_L_D1S1,NHG,60.014512338,
stim/negf.jpg,stim/posf.jpg,stim/2.jpg,stim/1.jpg,stim/latef.jpg,EF,1,2,,,,,0,58,58,47,,,,,,,,,,,,,,2,1,1.16624890997,,,,,,2015_Dez_08_1520,P16,PLC_L_D1S1,NHG,60.014512338,
stim/posf.jpg,stim/negf.jpg,stim/4.jpg,stim/5.jpg,stim/latef.jpg,CD,2,4,,,,,0,59,59,31,,,,,,,,,,,,,,4,1,0.599792688053,,,,,,2015_Dez_08_1520,P16,PLC_L_D1S1,NHG,60.014512338,
,,,,,,,,,,,,,,,,,,,,,,,,,,,,,,,,0.9984375,1.0,1,0,0,2015_Dez_08_1520,P16,PLC_L_D1S1,NHG,60.014512338,
stim/posf.jpg,stim/negf.jpg,stim/4.jpg,stim/5.jpg,stim/latef.jpg,CD,2,4,,,,,,,,,0,0,0,32,,,,,,,,,,4,1,0.683098584602,,,,,,2015_Dez_08_1520,P16,PLC_L_D1S1,NHG,60.014512338,
stim/posf.jpg,stim/negf.jpg,stim/6.jpg,stim/3.jpg,stim/latef.jpg,AB,2,4,,,,,,,,,0,1,1,17,,,,,,,,,,4,1,0.966343600636,,,,,,2015_Dez_08_1520,P16,PLC_L_D1S1,NHG,60.014512338,
stim/posf.jpg,stim/negf.jpg,stim/6.jpg,stim/3.jpg,stim/latef.jpg,AB,2,4,,,,,,,,,0,2,2,11,,,,,,,,,,4,1,0.866358647083,,,,,,2015_Dez_08_1520,P16,PLC_L_D1S1,NHG,60.014512338,
stim/posf.jpg,stim/negf.jpg,stim/5.jpg,stim/4.jpg,stim/latef.jpg,CD,1,2,,,,,,,,,0,3,3,24,,,,,,,,,,2,1,0.683105456706,,,,,,2015_Dez_08_1520,P16,PLC_L_D1S1,NHG,60.014512338,
stim/posf.jpg,stim/negf.jpg,stim/3.jpg,stim/6.jpg,stim/latef.jpg,AB,1,2,,,,,,,,,0,4,4,2,,,,,,,,,,2,1,0.949691770394,,,,,,2015_Dez_08_1520,P16,PLC_L_D1S1,NHG,60.014512338,
stim/posf.jpg,stim/negf.jpg,stim/2.jpg,stim/1.jpg,stim/latef.jpg,EF,1,2,,,,,,,,,0,5,5,42,,,,,,,,,,2,1,1.39953708492,,,,,,2015_Dez_08_1520,P16,PLC_L_D1S1,NHG,60.014512338,
stim/negf.jpg,stim/posf.jpg,stim/1.jpg,stim/2.jpg,stim/latef.jpg,EF,2,4,,,,,,,,,0,6,6,57,,,,,,,,,,4,1,0.9663383225,,,,,,2015_Dez_08_1520,P16,PLC_L_D1S1,NHG,60.014512338,
stim/posf.jpg,stim/negf.jpg,stim/6.jpg,stim/3.jpg,stim/latef.jpg,AB,2,4,,,,,,,,,0,7,7,10,,,,,,,,,,2,0,1.31622897185,,,,,,2015_Dez_08_1520,P16,PLC_L_D1S1,NHG,60.014512338,
stim/posf.jpg,stim/negf.jpg,stim/1.jpg,stim/2.jpg,stim/latef.jpg,EF,2,4,,,,,,,,,0,8,8,52,,,,,,,,,,4,1,0.999639913836,,,,,,2015_Dez_08_1520,P16,PLC_L_D1S1,NHG,60.014512338,
stim/posf.jpg,stim/negf.jpg,stim/3.jpg,stim/6.jpg,stim/latef.jpg,AB,1,2,,,,,,,,,0,9,9,1,,,,,,,,,,2,1,0.649787691116,,,,,,2015_Dez_08_1520,P16,PLC_L_D1S1,NHG,60.014512338,
stim/posf.jpg,stim/negf.jpg,stim/4.jpg,stim/5.jpg,stim/latef.jpg,CD,2,4,,,,,,,,,0,10,10,36,,,,,,,,,,4,1,0.816382440799,,,,,,2015_Dez_08_1520,P16,PLC_L_D1S1,NHG,60.014512338,
stim/posf.jpg,stim/negf.jpg,stim/1.jpg,stim/2.jpg,stim/latef.jpg,EF,2,4,,,,,,,,,0,11,11,53,,,,,,,,,,4,1,1.14959257151,,,,,,2015_Dez_08_1520,P16,PLC_L_D1S1,NHG,60.014512338,
stim/negf.jpg,stim/posf.jpg,stim/4.jpg,stim/5.jpg,stim/latef.jpg,CD,2,4,,,,,,,,,0,12,12,38,,,,,,,,,,4,1,0.549803931535,,,,,,2015_Dez_08_1520,P16,PLC_L_D1S1,NHG,60.014512338,
stim/negf.jpg,stim/posf.jpg,stim/6.jpg,stim/3.jpg,stim/latef.jpg,AB,2,4,,,,,,,,,0,13,13,19,,,,,,,,,,4,1,0.716415246445,,,,,,2015_Dez_08_1520,P16,PLC_L_D1S1,NHG,60.014512338,
stim/negf.jpg,stim/posf.jpg,stim/2.jpg,stim/1.jpg,stim/latef.jpg,EF,1,2,,,,,,,,,0,14,14,46,,,,,,,,,,None,0,,,,,,,2015_Dez_08_1520,P16,PLC_L_D1S1,NHG,60.014512338,
stim/posf.jpg,stim/negf.jpg,stim/4.jpg,stim/5.jpg,stim/latef.jpg,CD,2,4,,,,,,,,,0,15,15,35,,,,,,,,,,4,1,0.566459506095,,,,,,2015_Dez_08_1520,P16,PLC_L_D1S1,NHG,60.014512338,
stim/posf.jpg,stim/negf.jpg,stim/3.jpg,stim/6.jpg,stim/latef.jpg,AB,1,2,,,,,,,,,0,16,16,5,,,,,,,,,,2,1,0.749766731954,,,,,,2015_Dez_08_1520,P16,PLC_L_D1S1,NHG,60.014512338,
stim/posf.jpg,stim/negf.jpg,stim/3.jpg,stim/6.jpg,stim/latef.jpg,AB,1,2,,,,,,,,,0,17,17,0,,,,,,,,,,4,0,0.633116814472,,,,,,2015_Dez_08_1520,P16,PLC_L_D1S1,NHG,60.014512338,
stim/negf.jpg,stim/posf.jpg,stim/5.jpg,stim/4.jpg,stim/latef.jpg,CD,1,2,,,,,,,,,0,18,18,29,,,,,,,,,,2,1,0.999660581271,,,,,,2015_Dez_08_1520,P16,PLC_L_D1S1,NHG,60.014512338,
stim/posf.jpg,stim/negf.jpg,stim/3.jpg,stim/6.jpg,stim/latef.jpg,AB,1,2,,,,,,,,,0,19,19,3,,,,,,,,,,2,1,0.749738287162,,,,,,2015_Dez_08_1520,P16,PLC_L_D1S1,NHG,60.014512338,
stim/posf.jpg,stim/negf.jpg,stim/1.jpg,stim/2.jpg,stim/latef.jpg,EF,2,4,,,,,,,,,0,20,20,51,,,,,,,,,,4,1,1.11627743146,,,,,,2015_Dez_08_1520,P16,PLC_L_D1S1,NHG,60.014512338,
stim/posf.jpg,stim/negf.jpg,stim/4.jpg,stim/5.jpg,stim/latef.jpg,CD,2,4,,,,,,,,,0,21,21,34,,,,,,,,,,4,1,0.733085735123,,,,,,2015_Dez_08_1520,P16,PLC_L_D1S1,NHG,60.014512338,
stim/negf.jpg,stim/posf.jpg,stim/1.jpg,stim/2.jpg,stim/latef.jpg,EF,2,4,,,,,,,,,0,22,22,56,,,,,,,,,,4,1,0.916346838193,,,,,,2015_Dez_08_1520,P16,PLC_L_D1S1,NHG,60.014512338,
stim/posf.jpg,stim/negf.jpg,stim/1.jpg,stim/2.jpg,stim/latef.jpg,EF,2,4,,,,,,,,,0,23,23,55,,,,,,,,,,4,1,1.14963618305,,,,,,2015_Dez_08_1520,P16,PLC_L_D1S1,NHG,60.014512338,
stim/negf.jpg,stim/posf.jpg,stim/6.jpg,stim/3.jpg,stim/latef.jpg,AB,2,4,,,,,,,,,0,24,24,18,,,,,,,,,,4,1,0.733082435913,,,,,,2015_Dez_08_1520,P16,PLC_L_D1S1,NHG,60.014512338,
stim/posf.jpg,stim/negf.jpg,stim/5.jpg,stim/4.jpg,stim/latef.jpg,CD,1,2,,,,,,,,,0,25,25,23,,,,,,,,,,2,1,0.599801539081,,,,,,2015_Dez_08_1520,P16,PLC_L_D1S1,NHG,60.014512338,
stim/posf.jpg,stim/negf.jpg,stim/2.jpg,stim/1.jpg,stim/latef.jpg,EF,1,2,,,,,,,,,0,26,26,41,,,,,,,,,,2,1,1.09964967914,,,,,,2015_Dez_08_1520,P16,PLC_L_D1S1,NHG,60.014512338,
stim/negf.jpg,stim/posf.jpg,stim/4.jpg,stim/5.jpg,stim/latef.jpg,CD,2,4,,,,,,,,,0,27,27,39,,,,,,,,,,4,1,0.816388576069,,,,,,2015_Dez_08_1520,P16,PLC_L_D1S1,NHG,60.014512338,
stim/posf.jpg,stim/negf.jpg,stim/5.jpg,stim/4.jpg,stim/latef.jpg,CD,1,2,,,,,,,,,0,28,28,20,,,,,,,,,,2,1,0.583089501998,,,,,,2015_Dez_08_1520,P16,PLC_L_D1S1,NHG,60.014512338,
stim/negf.jpg,stim/posf.jpg,stim/2.jpg,stim/1.jpg,stim/latef.jpg,EF,1,2,,,,,,,,,0,29,29,49,,,,,,,,,,2,1,0.783106545415,,,,,,2015_Dez_08_1520,P16,PLC_L_D1S1,NHG,60.014512338,
stim/posf.jpg,stim/negf.jpg,stim/2.jpg,stim/1.jpg,stim/latef.jpg,EF,1,2,,,,,,,,,0,30,30,43,,,,,,,,,,2,1,0.649769246212,,,,,,2015_Dez_08_1520,P16,PLC_L_D1S1,NHG,60.014512338,
stim/negf.jpg,stim/posf.jpg,stim/3.jpg,stim/6.jpg,stim/latef.jpg,AB,1,2,,,,,,,,,0,31,31,9,,,,,,,,,,2,1,0.883050663339,,,,,,2015_Dez_08_1520,P16,PLC_L_D1S1,NHG,60.014512338,
stim/negf.jpg,stim/posf.jpg,stim/4.jpg,stim/5.jpg,stim/latef.jpg,CD,2,4,,,,,,,,,0,32,32,37,,,,,,,,,,4,1,0.566475280354,,,,,,2015_Dez_08_1520,P16,PLC_L_D1S1,NHG,60.014512338,
stim/posf.jpg,stim/negf.jpg,stim/5.jpg,stim/4.jpg,stim/latef.jpg,CD,1,2,,,,,,,,,0,33,33,21,,,,,,,,,,2,1,0.716442680722,,,,,,2015_Dez_08_1520,P16,PLC_L_D1S1,NHG,60.014512338,
stim/posf.jpg,stim/negf.jpg,stim/5.jpg,stim/4.jpg,stim/latef.jpg,CD,1,2,,,,,,,,,0,34,34,26,,,,,,,,,,2,1,0.549851672349,,,,,,2015_Dez_08_1520,P16,PLC_L_D1S1,NHG,60.014512338,
stim/negf.jpg,stim/posf.jpg,stim/5.jpg,stim/4.jpg,stim/latef.jpg,CD,1,2,,,,,,,,,0,35,35,28,,,,,,,,,,2,1,0.516418341147,,,,,,2015_Dez_08_1520,P16,PLC_L_D1S1,NHG,60.014512338,
stim/negf.jpg,stim/posf.jpg,stim/1.jpg,stim/2.jpg,stim/latef.jpg,EF,2,4,,,,,,,,,0,36,36,59,,,,,,,,,,4,1,1.11622850569,,,,,,2015_Dez_08_1520,P16,PLC_L_D1S1,NHG,60.014512338,
stim/negf.jpg,stim/posf.jpg,stim/2.jpg,stim/1.jpg,stim/latef.jpg,EF,1,2,,,,,,,,,0,37,37,47,,,,,,,,,,2,1,0.699759040312,,,,,,2015_Dez_08_1520,P16,PLC_L_D1S1,NHG,60.014512338,
stim/posf.jpg,stim/negf.jpg,stim/3.jpg,stim/6.jpg,stim/latef.jpg,AB,1,2,,,,,,,,,0,38,38,4,,,,,,,,,,2,1,0.666470537551,,,,,,2015_Dez_08_1520,P16,PLC_L_D1S1,NHG,60.014512338,
stim/posf.jpg,stim/negf.jpg,stim/3.jpg,stim/6.jpg,stim/latef.jpg,AB,1,2,,,,,,,,,0,39,39,6,,,,,,,,,,2,1,0.566481382541,,,,,,2015_Dez_08_1520,P16,PLC_L_D1S1,NHG,60.014512338,
stim/posf.jpg,stim/negf.jpg,stim/1.jpg,stim/2.jpg,stim/latef.jpg,EF,2,4,,,,,,,,,0,40,40,50,,,,,,,,,,4,1,0.966339856318,,,,,,2015_Dez_08_1520,P16,PLC_L_D1S1,NHG,60.014512338,
stim/posf.jpg,stim/negf.jpg,stim/6.jpg,stim/3.jpg,stim/latef.jpg,AB,2,4,,,,,,,,,0,41,41,14,,,,,,,,,,4,1,0.599777479201,,,,,,2015_Dez_08_1520,P16,PLC_L_D1S1,NHG,60.014512338,
stim/posf.jpg,stim/negf.jpg,stim/3.jpg,stim/6.jpg,stim/latef.jpg,AB,1,2,,,,,,,,,0,42,42,7,,,,,,,,,,2,1,0.74976817254,,,,,,2015_Dez_08_1520,P16,PLC_L_D1S1,NHG,60.014512338,
stim/negf.jpg,stim/posf.jpg,stim/1.jpg,stim/2.jpg,stim/latef.jpg,EF,2,4,,,,,,,,,0,43,43,58,,,,,,,,,,2,0,0.599793259475,,,,,,2015_Dez_08_1520,P16,PLC_L_D1S1,NHG,60.014512338,
stim/posf.jpg,stim/negf.jpg,stim/6.jpg,stim/3.jpg,stim/latef.jpg,AB,2,4,,,,,,,,,0,44,44,15,,,,,,,,,,4,1,0.599811388593,,,,,,2015_Dez_08_1520,P16,PLC_L_D1S1,NHG,60.014512338,
stim/posf.jpg,stim/negf.jpg,stim/2.jpg,stim/1.jpg,stim/latef.jpg,EF,1,2,,,,,,,,,0,45,45,44,,,,,,,,,,4,0,1.2828993267,,,,,,2015_Dez_08_1520,P16,PLC_L_D1S1,NHG,60.014512338,
stim/negf.jpg,stim/posf.jpg,stim/2.jpg,stim/1.jpg,stim/latef.jpg,EF,1,2,,,,,,,,,0,46,46,48,,,,,,,,,,2,1,0.683112548355,,,,,,2015_Dez_08_1520,P16,PLC_L_D1S1,NHG,60.014512338,
stim/posf.jpg,stim/negf.jpg,stim/5.jpg,stim/4.jpg,stim/latef.jpg,CD,1,2,,,,,,,,,0,47,47,22,,,,,,,,,,2,1,0.683156884696,,,,,,2015_Dez_08_1520,P16,PLC_L_D1S1,NHG,60.014512338,
stim/posf.jpg,stim/negf.jpg,stim/4.jpg,stim/5.jpg,stim/latef.jpg,CD,2,4,,,,,,,,,0,48,48,30,,,,,,,,,,4,1,0.583153483231,,,,,,2015_Dez_08_1520,P16,PLC_L_D1S1,NHG,60.014512338,
stim/posf.jpg,stim/negf.jpg,stim/4.jpg,stim/5.jpg,stim/latef.jpg,CD,2,4,,,,,,,,,0,49,49,33,,,,,,,,,,4,1,0.499784218975,,,,,,2015_Dez_08_1520,P16,PLC_L_D1S1,NHG,60.014512338,
stim/negf.jpg,stim/posf.jpg,stim/3.jpg,stim/6.jpg,stim/latef.jpg,AB,1,2,,,,,,,,,0,50,50,8,,,,,,,,,,2,1,0.883027072627,,,,,,2015_Dez_08_1520,P16,PLC_L_D1S1,NHG,60.014512338,
stim/posf.jpg,stim/negf.jpg,stim/2.jpg,stim/1.jpg,stim/latef.jpg,EF,1,2,,,,,,,,,0,51,51,40,,,,,,,,,,2,1,1.13295970948,,,,,,2015_Dez_08_1520,P16,PLC_L_D1S1,NHG,60.014512338,
stim/posf.jpg,stim/negf.jpg,stim/5.jpg,stim/4.jpg,stim/latef.jpg,CD,1,2,,,,,,,,,0,52,52,25,,,,,,,,,,2,1,0.716443453645,,,,,,2015_Dez_08_1520,P16,PLC_L_D1S1,NHG,60.014512338,
stim/posf.jpg,stim/negf.jpg,stim/4.jpg,stim/5.jpg,stim/latef.jpg,CD,2,4,,,,,,,,,0,53,53,31,,,,,,,,,,4,1,0.51649135085,,,,,,2015_Dez_08_1520,P16,PLC_L_D1S1,NHG,60.014512338,
stim/posf.jpg,stim/negf.jpg,stim/1.jpg,stim/2.jpg,stim/latef.jpg,EF,2,4,,,,,,,,,0,54,54,54,,,,,,,,,,4,1,1.04963127183,,,,,,2015_Dez_08_1520,P16,PLC_L_D1S1,NHG,60.014512338,
stim/posf.jpg,stim/negf.jpg,stim/6.jpg,stim/3.jpg,stim/latef.jpg,AB,2,4,,,,,,,,,0,55,55,12,,,,,,,,,,4,1,0.766420438867,,,,,,2015_Dez_08_1520,P16,PLC_L_D1S1,NHG,60.014512338,
stim/posf.jpg,stim/negf.jpg,stim/2.jpg,stim/1.jpg,stim/latef.jpg,EF,1,2,,,,,,,,,0,56,56,45,,,,,,,,,,2,1,0.93292986019,,,,,,2015_Dez_08_1520,P16,PLC_L_D1S1,NHG,60.014512338,
stim/posf.jpg,stim/negf.jpg,stim/6.jpg,stim/3.jpg,stim/latef.jpg,AB,2,4,,,,,,,,,0,57,57,13,,,,,,,,,,4,1,1.01633226392,,,,,,2015_Dez_08_1520,P16,PLC_L_D1S1,NHG,60.014512338,
stim/posf.jpg,stim/negf.jpg,stim/6.jpg,stim/3.jpg,stim/latef.jpg,AB,2,4,,,,,,,,,0,58,58,16,,,,,,,,,,4,1,0.866387374578,,,,,,2015_Dez_08_1520,P16,PLC_L_D1S1,NHG,60.014512338,
stim/negf.jpg,stim/posf.jpg,stim/5.jpg,stim/4.jpg,stim/latef.jpg,CD,1,2,,,,,,,,,0,59,59,27,,,,,,,,,,2,1,0.9496815269,,,,,,2015_Dez_08_1520,P16,PLC_L_D1S1,NHG,60.014512338,
,,,,,,,,,,,,,,,,,,,,,,,,,,,,,,,,0.9984375,1.0,1,0,0,2015_Dez_08_1520,P16,PLC_L_D1S1,NHG,60.014512338,
stim/posf.jpg,stim/negf.jpg,stim/2.jpg,stim/1.jpg,stim/latef.jpg,EF,1,2,,,,,,,,,,,,,0,0,0,45,,,,,,2,1,1.19958980012,,,,,,2015_Dez_08_1520,P16,PLC_L_D1S1,NHG,60.014512338,
stim/posf.jpg,stim/negf.jpg,stim/6.jpg,stim/3.jpg,stim/latef.jpg,AB,2,4,,,,,,,,,,,,,0,1,1,13,,,,,,4,1,0.916358164382,,,,,,2015_Dez_08_1520,P16,PLC_L_D1S1,NHG,60.014512338,
stim/posf.jpg,stim/negf.jpg,stim/1.jpg,stim/2.jpg,stim/latef.jpg,EF,2,4,,,,,,,,,,,,,0,2,2,53,,,,,,4,1,1.11630439356,,,,,,2015_Dez_08_1520,P16,PLC_L_D1S1,NHG,60.014512338,
stim/negf.jpg,stim/posf.jpg,stim/6.jpg,stim/3.jpg,stim/latef.jpg,AB,2,4,,,,,,,,,,,,,0,3,3,18,,,,,,4,1,0.61645785649,,,,,,2015_Dez_08_1520,P16,PLC_L_D1S1,NHG,60.014512338,
stim/posf.jpg,stim/negf.jpg,stim/1.jpg,stim/2.jpg,stim/latef.jpg,EF,2,4,,,,,,,,,,,,,0,4,4,50,,,,,,4,1,1.06633323684,,,,,,2015_Dez_08_1520,P16,PLC_L_D1S1,NHG,60.014512338,
stim/posf.jpg,stim/negf.jpg,stim/6.jpg,stim/3.jpg,stim/latef.jpg,AB,2,4,,,,,,,,,,,,,0,5,5,10,,,,,,4,1,0.633109563427,,,,,,2015_Dez_08_1520,P16,PLC_L_D1S1,NHG,60.014512338,
stim/posf.jpg,stim/negf.jpg,stim/3.jpg,stim/6.jpg,stim/latef.jpg,AB,1,2,,,,,,,,,,,,,0,6,6,2,,,,,,2,1,1.11629876054,,,,,,2015_Dez_08_1520,P16,PLC_L_D1S1,NHG,60.014512338,
stim/posf.jpg,stim/negf.jpg,stim/3.jpg,stim/6.jpg,stim/latef.jpg,AB,1,2,,,,,,,,,,,,,0,7,7,6,,,,,,2,1,0.583129603801,,,,,,2015_Dez_08_1520,P16,PLC_L_D1S1,NHG,60.014512338,
stim/posf.jpg,stim/negf.jpg,stim/4.jpg,stim/5.jpg,stim/latef.jpg,CD,2,4,,,,,,,,,,,,,0,8,8,35,,,,,,4,1,0.849675764559,,,,,,2015_Dez_08_1520,P16,PLC_L_D1S1,NHG,60.014512338,
stim/posf.jpg,stim/negf.jpg,stim/6.jpg,stim/3.jpg,stim/latef.jpg,AB,2,4,,,,,,,,,,,,,0,9,9,14,,,,,,4,1,0.699739888648,,,,,,2015_Dez_08_1520,P16,PLC_L_D1S1,NHG,60.014512338,
stim/posf.jpg,stim/negf.jpg,stim/2.jpg,stim/1.jpg,stim/latef.jpg,EF,1,2,,,,,,,,,,,,,0,10,10,42,,,,,,2,1,1.24955200054,,,,,,2015_Dez_08_1520,P16,PLC_L_D1S1,NHG,60.014512338,
stim/posf.jpg,stim/negf.jpg,stim/3.jpg,stim/6.jpg,stim/latef.jpg,AB,1,2,,,,,,,,,,,,,0,11,11,0,,,,,,2,1,0.649792172268,,,,,,2015_Dez_08_1520,P16,PLC_L_D1S1,NHG,60.014512338,
stim/negf.jpg,stim/posf.jpg,stim/1.jpg,stim/2.jpg,stim/latef.jpg,EF,2,4,,,,,,,,,,,,,0,12,12,57,,,,,,4,1,1.03302873125,,,,,,2015_Dez_08_1520,P16,PLC_L_D1S1,NHG,60.014512338,
stim/posf.jpg,stim/negf.jpg,stim/3.jpg,stim/6.jpg,stim/latef.jpg,AB,1,2,,,,,,,,,,,,,0,13,13,3,,,,,,2,1,0.899682559972,,,,,,2015_Dez_08_1520,P16,PLC_L_D1S1,NHG,60.014512338,
stim/posf.jpg,stim/negf.jpg,stim/2.jpg,stim/1.jpg,stim/latef.jpg,EF,1,2,,,,,,,,,,,,,0,14,14,41,,,,,,2,1,0.949685932866,,,,,,2015_Dez_08_1520,P16,PLC_L_D1S1,NHG,60.014512338,
stim/posf.jpg,stim/negf.jpg,stim/4.jpg,stim/5.jpg,stim/latef.jpg,CD,2,4,,,,,,,,,,,,,0,15,15,33,,,,,,4,1,0.533134293974,,,,,,2015_Dez_08_1520,P16,PLC_L_D1S1,NHG,60.014512338,
stim/posf.jpg,stim/negf.jpg,stim/1.jpg,stim/2.jpg,stim/latef.jpg,EF,2,4,,,,,,,,,,,,,0,16,16,54,,,,,,4,1,1.11625027387,,,,,,2015_Dez_08_1520,P16,PLC_L_D1S1,NHG,60.014512338,
stim/negf.jpg,stim/posf.jpg,stim/4.jpg,stim/5.jpg,stim/latef.jpg,CD,2,4,,,,,,,,,,,,,0,17,17,38,,,,,,4,1,0.583131414307,,,,,,2015_Dez_08_1520,P16,PLC_L_D1S1,NHG,60.014512338,
stim/negf.jpg,stim/posf.jpg,stim/2.jpg,stim/1.jpg,stim/latef.jpg,EF,1,2,,,,,,,,,,,,,0,18,18,46,,,,,,2,1,0.733080661496,,,,,,2015_Dez_08_1520,P16,PLC_L_D1S1,NHG,60.014512338,
stim/negf.jpg,stim/posf.jpg,stim/4.jpg,stim/5.jpg,stim/latef.jpg,CD,2,4,,,,,,,,,,,,,0,19,19,37,,,,,,4,1,0.533150338906,,,,,,2015_Dez_08_1520,P16,PLC_L_D1S1,NHG,60.014512338,
stim/posf.jpg,stim/negf.jpg,stim/6.jpg,stim/3.jpg,stim/latef.jpg,AB,2,4,,,,,,,,,,,,,0,20,20,15,,,,,,4,1,0.816349187039,,,,,,2015_Dez_08_1520,P16,PLC_L_D1S1,NHG,60.014512338,
stim/negf.jpg,stim/posf.jpg,stim/6.jpg,stim/3.jpg,stim/latef.jpg,AB,2,4,,,,,,,,,,,,,0,21,21,19,,,,,,4,1,0.749766028203,,,,,,2015_Dez_08_1520,P16,PLC_L_D1S1,NHG,60.014512338,
stim/posf.jpg,stim/negf.jpg,stim/6.jpg,stim/3.jpg,stim/latef.jpg,AB,2,4,,,,,,,,,,,,,0,22,22,12,,,,,,4,1,0.566471151077,,,,,,2015_Dez_08_1520,P16,PLC_L_D1S1,NHG,60.014512338,
stim/posf.jpg,stim/negf.jpg,stim/6.jpg,stim/3.jpg,stim/latef.jpg,AB,2,4,,,,,,,,,,,,,0,23,23,11,,,,,,4,1,0.533110697248,,,,,,2015_Dez_08_1520,P16,PLC_L_D1S1,NHG,60.014512338,
stim/posf.jpg,stim/negf.jpg,stim/3.jpg,stim/6.jpg,stim/latef.jpg,AB,1,2,,,,,,,,,,,,,0,24,24,1,,,,,,2,1,0.566464339125,,,,,,2015_Dez_08_1520,P16,PLC_L_D1S1,NHG,60.014512338,
stim/posf.jpg,stim/negf.jpg,stim/5.jpg,stim/4.jpg,stim/latef.jpg,CD,1,2,,,,,,,,,,,,,0,25,25,23,,,,,,2,1,0.599830224472,,,,,,2015_Dez_08_1520,P16,PLC_L_D1S1,NHG,60.014512338,
stim/posf.jpg,stim/negf.jpg,stim/4.jpg,stim/5.jpg,stim/latef.jpg,CD,2,4,,,,,,,,,,,,,0,26,26,34,,,,,,4,1,0.58314541415,,,,,,2015_Dez_08_1520,P16,PLC_L_D1S1,NHG,60.014512338,
stim/posf.jpg,stim/negf.jpg,stim/6.jpg,stim/3.jpg,stim/latef.jpg,AB,2,4,,,,,,,,,,,,,0,27,27,17,,,,,,4,1,0.733085175732,,,,,,2015_Dez_08_1520,P16,PLC_L_D1S1,NHG,60.014512338,
stim/negf.jpg,stim/posf.jpg,stim/5.jpg,stim/4.jpg,stim/latef.jpg,CD,1,2,,,,,,,,,,,,,0,28,28,28,,,,,,2,1,0.533173926609,,,,,,2015_Dez_08_1520,P16,PLC_L_D1S1,NHG,60.014512338,
stim/posf.jpg,stim/negf.jpg,stim/5.jpg,stim/4.jpg,stim/latef.jpg,CD,1,2,,,,,,,,,,,,,0,29,29,26,,,,,,2,1,0.499830383867,,,,,,2015_Dez_08_1520,P16,PLC_L_D1S1,NHG,60.014512338,
stim/negf.jpg,stim/posf.jpg,stim/2.jpg,stim/1.jpg,stim/latef.jpg,EF,1,2,,,,,,,,,,,,,0,30,30,49,,,,,,2,1,0.999649194934,,,,,,2015_Dez_08_1520,P16,PLC_L_D1S1,NHG,60.014512338,
stim/posf.jpg,stim/negf.jpg,stim/2.jpg,stim/1.jpg,stim/latef.jpg,EF,1,2,,,,,,,,,,,,,0,31,31,43,,,,,,2,1,0.533232840232,,,,,,2015_Dez_08_1520,P16,PLC_L_D1S1,NHG,60.014512338,
stim/negf.jpg,stim/posf.jpg,stim/5.jpg,stim/4.jpg,stim/latef.jpg,CD,1,2,,,,,,,,,,,,,0,32,32,27,,,,,,2,1,0.649786319703,,,,,,2015_Dez_08_1520,P16,PLC_L_D1S1,NHG,60.014512338,
stim/posf.jpg,stim/negf.jpg,stim/1.jpg,stim/2.jpg,stim/latef.jpg,EF,2,4,,,,,,,,,,,,,0,33,33,55,,,,,,4,1,0.833064363936,,,,,,2015_Dez_08_1520,P16,PLC_L_D1S1,NHG,60.014512338,
stim/posf.jpg,stim/negf.jpg,stim/3.jpg,stim/6.jpg,stim/latef.jpg,AB,1,2,,,,,,,,,,,,,0,34,34,7,,,,,,2,1,0.549831471074,,,,,,2015_Dez_08_1520,P16,PLC_L_D1S1,NHG,60.014512338,
stim/posf.jpg,stim/negf.jpg,stim/3.jpg,stim/6.jpg,stim/latef.jpg,AB,1,2,,,,,,,,,,,,,0,35,35,4,,,,,,2,1,0.583143597629,,,,,,2015_Dez_08_1520,P16,PLC_L_D1S1,NHG,60.014512338,
stim/posf.jpg,stim/negf.jpg,stim/2.jpg,stim/1.jpg,stim/latef.jpg,EF,1,2,,,,,,,,,,,,,0,36,36,40,,,,,,2,1,0.716437571005,,,,,,2015_Dez_08_1520,P16,PLC_L_D1S1,NHG,60.014512338,
stim/posf.jpg,stim/negf.jpg,stim/1.jpg,stim/2.jpg,stim/latef.jpg,EF,2,4,,,,,,,,,,,,,0,37,37,52,,,,,,4,1,0.832949700567,,,,,,2015_Dez_08_1520,P16,PLC_L_D1S1,NHG,60.014512338,
stim/posf.jpg,stim/negf.jpg,stim/1.jpg,stim/2.jpg,stim/latef.jpg,EF,2,4,,,,,,,,,,,,,0,38,38,51,,,,,,4,1,0.6331078251,,,,,,2015_Dez_08_1520,P16,PLC_L_D1S1,NHG,60.014512338,
stim/posf.jpg,stim/negf.jpg,stim/2.jpg,stim/1.jpg,stim/latef.jpg,EF,1,2,,,,,,,,,,,,,0,39,39,44,,,,,,2,1,0.733080264507,,,,,,2015_Dez_08_1520,P16,PLC_L_D1S1,NHG,60.014512338,
stim/posf.jpg,stim/negf.jpg,stim/4.jpg,stim/5.jpg,stim/latef.jpg,CD,2,4,,,,,,,,,,,,,0,40,40,36,,,,,,4,1,0.549817919346,,,,,,2015_Dez_08_1520,P16,PLC_L_D1S1,NHG,60.014512338,
stim/negf.jpg,stim/posf.jpg,stim/3.jpg,stim/6.jpg,stim/latef.jpg,AB,1,2,,,,,,,,,,,,,0,41,41,8,,,,,,2,1,0.683083553193,,,,,,2015_Dez_08_1520,P16,PLC_L_D1S1,NHG,60.014512338,
stim/posf.jpg,stim/negf.jpg,stim/6.jpg,stim/3.jpg,stim/latef.jpg,AB,2,4,,,,,,,,,,,,,0,42,42,16,,,,,,4,1,0.666444607016,,,,,,2015_Dez_08_1520,P16,PLC_L_D1S1,NHG,60.014512338,
stim/negf.jpg,stim/posf.jpg,stim/1.jpg,stim/2.jpg,stim/latef.jpg,EF,2,4,,,,,,,,,,,,,0,43,43,59,,,,,,4,1,0.749734630061,,,,,,2015_Dez_08_1520,P16,PLC_L_D1S1,NHG,60.014512338,
stim/negf.jpg,stim/posf.jpg,stim/4.jpg,stim/5.jpg,stim/latef.jpg,CD,2,4,,,,,,,,,,,,,0,44,44,39,,,,,,4,1,0.599727894798,,,,,,2015_Dez_08_1520,P16,PLC_L_D1S1,NHG,60.014512338,
stim/posf.jpg,stim/negf.jpg,stim/5.jpg,stim/4.jpg,stim/latef.jpg,CD,1,2,,,,,,,,,,,,,0,45,45,22,,,,,,2,1,0.683096419213,,,,,,2015_Dez_08_1520,P16,PLC_L_D1S1,NHG,60.014512338,
stim/negf.jpg,stim/posf.jpg,stim/5.jpg,stim/4.jpg,stim/latef.jpg,CD,1,2,,,,,,,,,,,,,0,46,46,29,,,,,,2,1,0.683104813104,,,,,,2015_Dez_08_1520,P16,PLC_L_D1S1,NHG,60.014512338,
stim/posf.jpg,stim/negf.jpg,stim/5.jpg,stim/4.jpg,stim/latef.jpg,CD,1,2,,,,,,,,,,,,,0,47,47,20,,,,,,2,1,0.816444004015,,,,,,2015_Dez_08_1520,P16,PLC_L_D1S1,NHG,60.014512338,
stim/negf.jpg,stim/posf.jpg,stim/1.jpg,stim/2.jpg,stim/latef.jpg,EF,2,4,,,,,,,,,,,,,0,48,48,56,,,,,,4,1,1.11620994049,,,,,,2015_Dez_08_1520,P16,PLC_L_D1S1,NHG,60.014512338,
stim/posf.jpg,stim/negf.jpg,stim/5.jpg,stim/4.jpg,stim/latef.jpg,CD,1,2,,,,,,,,,,,,,0,49,49,21,,,,,,2,1,0.699774805547,,,,,,2015_Dez_08_1520,P16,PLC_L_D1S1,NHG,60.014512338,
stim/posf.jpg,stim/negf.jpg,stim/3.jpg,stim/6.jpg,stim/latef.jpg,AB,1,2,,,,,,,,,,,,,0,50,50,5,,,,,,2,1,0.78312900832,,,,,,2015_Dez_08_1520,P16,PLC_L_D1S1,NHG,60.014512338,
stim/posf.jpg,stim/negf.jpg,stim/4.jpg,stim/5.jpg,stim/latef.jpg,CD,2,4,,,,,,,,,,,,,0,51,51,31,,,,,,4,1,0.549767029695,,,,,,2015_Dez_08_1520,P16,PLC_L_D1S1,NHG,60.014512338,
stim/posf.jpg,stim/negf.jpg,stim/5.jpg,stim/4.jpg,stim/latef.jpg,CD,1,2,,,,,,,,,,,,,0,52,52,25,,,,,,2,1,0.633149307339,,,,,,2015_Dez_08_1520,P16,PLC_L_D1S1,NHG,60.014512338,
stim/negf.jpg,stim/posf.jpg,stim/2.jpg,stim/1.jpg,stim/latef.jpg,EF,1,2,,,,,,,,,,,,,0,53,53,48,,,,,,2,1,0.866370815366,,,,,,2015_Dez_08_1520,P16,PLC_L_D1S1,NHG,60.014512338,
stim/negf.jpg,stim/posf.jpg,stim/2.jpg,stim/1.jpg,stim/latef.jpg,EF,1,2,,,,,,,,,,,,,0,54,54,47,,,,,,2,1,0.799706135645,,,,,,2015_Dez_08_1520,P16,PLC_L_D1S1,NHG,60.014512338,
stim/posf.jpg,stim/negf.jpg,stim/5.jpg,stim/4.jpg,stim/latef.jpg,CD,1,2,,,,,,,,,,,,,0,55,55,24,,,,,,2,1,0.616451113709,,,,,,2015_Dez_08_1520,P16,PLC_L_D1S1,NHG,60.014512338,
stim/posf.jpg,stim/negf.jpg,stim/4.jpg,stim/5.jpg,stim/latef.jpg,CD,2,4,,,,,,,,,,,,,0,56,56,32,,,,,,4,1,0.716415733657,,,,,,2015_Dez_08_1520,P16,PLC_L_D1S1,NHG,60.014512338,
stim/negf.jpg,stim/posf.jpg,stim/3.jpg,stim/6.jpg,stim/latef.jpg,AB,1,2,,,,,,,,,,,,,0,57,57,9,,,,,,2,1,0.733085226859,,,,,,2015_Dez_08_1520,P16,PLC_L_D1S1,NHG,60.014512338,
stim/posf.jpg,stim/negf.jpg,stim/4.jpg,stim/5.jpg,stim/latef.jpg,CD,2,4,,,,,,,,,,,,,0,58,58,30,,,,,,4,1,0.533149430646,,,,,,2015_Dez_08_1520,P16,PLC_L_D1S1,NHG,60.014512338,
stim/negf.jpg,stim/posf.jpg,stim/1.jpg,stim/2.jpg,stim/latef.jpg,EF,2,4,,,,,,,,,,,,,0,59,59,58,,,,,,2,0,0.683164589873,,,,,,2015_Dez_08_1520,P16,PLC_L_D1S1,NHG,60.014512338,
