fb_corr,fb_incorr,symbol2,symbol1,fb_late,pair,position,correct,block_01.thisRepN,block_01.thisTrialN,block_01.thisN,block_01.thisIndex,block_02.thisRepN,block_02.thisTrialN,block_02.thisN,block_02.thisIndex,block_03.thisRepN,block_03.thisTrialN,block_03.thisN,block_03.thisIndex,block_04.thisRepN,block_04.thisTrialN,block_04.thisN,block_04.thisIndex,mouse.x,mouse.y,mouse.leftButton,mouse.midButton,mouse.rightButton,buttonBox_2.keys,buttonBox_2.corr,buttonBox_2.rt,mouse_2.x,mouse_2.y,mouse_2.leftButton,mouse_2.midButton,mouse_2.rightButton,date,Participant,expName,Group,frameRate,
,,,,,,,,,,,,,,,,,,,,,,,,0.9984375,1.0,1,0,0,,,,,,,,,2015_Nov_03_1335,P1,PLC_L_D1S1,NHG,60.0215099415,
stim/negf.jpg,stim/posf.jpg,stim/2.jpg,stim/1.jpg,stim/latef.jpg,CD,2,4,0,0,0,39,,,,,,,,,,,,,,,,,,2,0,0.94973065969,,,,,,2015_Nov_03_1335,P1,PLC_L_D1S1,NHG,60.0215099415,
stim/negf.jpg,stim/posf.jpg,stim/6.jpg,stim/3.jpg,stim/latef.jpg,EF,2,4,0,1,1,56,,,,,,,,,,,,,,,,,,4,1,0.866362358461,,,,,,2015_Nov_03_1335,P1,PLC_L_D1S1,NHG,60.0215099415,
stim/posf.jpg,stim/negf.jpg,stim/2.jpg,stim/1.jpg,stim/latef.jpg,CD,2,4,0,2,2,30,,,,,,,,,,,,,,,,,,2,0,0.816366517797,,,,,,2015_Nov_03_1335,P1,PLC_L_D1S1,NHG,60.0215099415,
stim/posf.jpg,stim/negf.jpg,stim/6.jpg,stim/3.jpg,stim/latef.jpg,EF,2,4,0,3,3,50,,,,,,,,,,,,,,,,,,2,0,1.14960976527,,,,,,2015_Nov_03_1335,P1,PLC_L_D1S1,NHG,60.0215099415,
stim/posf.jpg,stim/negf.jpg,stim/2.jpg,stim/1.jpg,stim/latef.jpg,CD,2,4,0,4,4,31,,,,,,,,,,,,,,,,,,2,0,0.983046733132,,,,,,2015_Nov_03_1335,P1,PLC_L_D1S1,NHG,60.0215099415,
stim/posf.jpg,stim/negf.jpg,stim/1.jpg,stim/2.jpg,stim/latef.jpg,CD,1,2,0,5,5,22,,,,,,,,,,,,,,,,,,4,0,0.933021921475,,,,,,2015_Nov_03_1335,P1,PLC_L_D1S1,NHG,60.0215099415,
stim/posf.jpg,stim/negf.jpg,stim/4.jpg,stim/5.jpg,stim/latef.jpg,AB,2,4,0,6,6,12,,,,,,,,,,,,,,,,,,4,1,0.982988730997,,,,,,2015_Nov_03_1335,P1,PLC_L_D1S1,NHG,60.0215099415,
stim/posf.jpg,stim/negf.jpg,stim/6.jpg,stim/3.jpg,stim/latef.jpg,EF,2,4,0,7,7,53,,,,,,,,,,,,,,,,,,2,0,0.883026874784,,,,,,2015_Nov_03_1335,P1,PLC_L_D1S1,NHG,60.0215099415,
stim/posf.jpg,stim/negf.jpg,stim/5.jpg,stim/4.jpg,stim/latef.jpg,AB,1,2,0,8,8,0,,,,,,,,,,,,,,,,,,2,1,0.999665695253,,,,,,2015_Nov_03_1335,P1,PLC_L_D1S1,NHG,60.0215099415,
stim/negf.jpg,stim/posf.jpg,stim/2.jpg,stim/1.jpg,stim/latef.jpg,CD,2,4,0,9,9,37,,,,,,,,,,,,,,,,,,4,1,1.06635481872,,,,,,2015_Nov_03_1335,P1,PLC_L_D1S1,NHG,60.0215099415,
stim/posf.jpg,stim/negf.jpg,stim/5.jpg,stim/4.jpg,stim/latef.jpg,AB,1,2,0,10,10,4,,,,,,,,,,,,,,,,,,2,1,0.749756668321,,,,,,2015_Nov_03_1335,P1,PLC_L_D1S1,NHG,60.0215099415,
stim/negf.jpg,stim/posf.jpg,stim/4.jpg,stim/5.jpg,stim/latef.jpg,AB,2,4,0,11,11,19,,,,,,,,,,,,,,,,,,4,1,0.716417040345,,,,,,2015_Nov_03_1335,P1,PLC_L_D1S1,NHG,60.0215099415,
stim/negf.jpg,stim/posf.jpg,stim/6.jpg,stim/3.jpg,stim/latef.jpg,EF,2,4,0,12,12,57,,,,,,,,,,,,,,,,,,2,0,1.09963363859,,,,,,2015_Nov_03_1335,P1,PLC_L_D1S1,NHG,60.0215099415,
stim/posf.jpg,stim/negf.jpg,stim/5.jpg,stim/4.jpg,stim/latef.jpg,AB,1,2,0,13,13,1,,,,,,,,,,,,,,,,,,2,1,0.933016898994,,,,,,2015_Nov_03_1335,P1,PLC_L_D1S1,NHG,60.0215099415,
stim/posf.jpg,stim/negf.jpg,stim/6.jpg,stim/3.jpg,stim/latef.jpg,EF,2,4,0,14,14,52,,,,,,,,,,,,,,,,,,2,0,1.06631862378,,,,,,2015_Nov_03_1335,P1,PLC_L_D1S1,NHG,60.0215099415,
stim/posf.jpg,stim/negf.jpg,stim/4.jpg,stim/5.jpg,stim/latef.jpg,AB,2,4,0,15,15,16,,,,,,,,,,,,,,,,,,4,1,0.866364376475,,,,,,2015_Nov_03_1335,P1,PLC_L_D1S1,NHG,60.0215099415,
stim/negf.jpg,stim/posf.jpg,stim/3.jpg,stim/6.jpg,stim/latef.jpg,EF,1,2,0,16,16,47,,,,,,,,,,,,,,,,,,4,0,1.29957544398,,,,,,2015_Nov_03_1335,P1,PLC_L_D1S1,NHG,60.0215099415,
stim/negf.jpg,stim/posf.jpg,stim/1.jpg,stim/2.jpg,stim/latef.jpg,CD,1,2,0,17,17,28,,,,,,,,,,,,,,,,,,2,1,1.06631062089,,,,,,2015_Nov_03_1335,P1,PLC_L_D1S1,NHG,60.0215099415,
stim/posf.jpg,stim/negf.jpg,stim/2.jpg,stim/1.jpg,stim/latef.jpg,CD,2,4,0,18,18,33,,,,,,,,,,,,,,,,,,4,1,1.08290338792,,,,,,2015_Nov_03_1335,P1,PLC_L_D1S1,NHG,60.0215099415,
stim/posf.jpg,stim/negf.jpg,stim/1.jpg,stim/2.jpg,stim/latef.jpg,CD,1,2,0,19,19,23,,,,,,,,,,,,,,,,,,2,1,1.28288936708,,,,,,2015_Nov_03_1335,P1,PLC_L_D1S1,NHG,60.0215099415,
stim/posf.jpg,stim/negf.jpg,stim/5.jpg,stim/4.jpg,stim/latef.jpg,AB,1,2,0,20,20,3,,,,,,,,,,,,,,,,,,2,1,0.99962734395,,,,,,2015_Nov_03_1335,P1,PLC_L_D1S1,NHG,60.0215099415,
stim/posf.jpg,stim/negf.jpg,stim/1.jpg,stim/2.jpg,stim/latef.jpg,CD,1,2,0,21,21,25,,,,,,,,,,,,,,,,,,2,1,1.11631425392,,,,,,2015_Nov_03_1335,P1,PLC_L_D1S1,NHG,60.0215099415,
stim/posf.jpg,stim/negf.jpg,stim/5.jpg,stim/4.jpg,stim/latef.jpg,AB,1,2,0,22,22,2,,,,,,,,,,,,,,,,,,2,1,0.649756120961,,,,,,2015_Nov_03_1335,P1,PLC_L_D1S1,NHG,60.0215099415,
stim/posf.jpg,stim/negf.jpg,stim/3.jpg,stim/6.jpg,stim/latef.jpg,EF,1,2,0,23,23,42,,,,,,,,,,,,,,,,,,4,0,1.19957606953,,,,,,2015_Nov_03_1335,P1,PLC_L_D1S1,NHG,60.0215099415,
stim/posf.jpg,stim/negf.jpg,stim/4.jpg,stim/5.jpg,stim/latef.jpg,AB,2,4,0,24,24,17,,,,,,,,,,,,,,,,,,4,1,0.899764358431,,,,,,2015_Nov_03_1335,P1,PLC_L_D1S1,NHG,60.0215099415,
stim/posf.jpg,stim/negf.jpg,stim/6.jpg,stim/3.jpg,stim/latef.jpg,EF,2,4,0,25,25,55,,,,,,,,,,,,,,,,,,2,0,0.849720644802,,,,,,2015_Nov_03_1335,P1,PLC_L_D1S1,NHG,60.0215099415,
stim/posf.jpg,stim/negf.jpg,stim/3.jpg,stim/6.jpg,stim/latef.jpg,EF,1,2,0,26,26,43,,,,,,,,,,,,,,,,,,4,0,0.866404198433,,,,,,2015_Nov_03_1335,P1,PLC_L_D1S1,NHG,60.0215099415,
stim/posf.jpg,stim/negf.jpg,stim/2.jpg,stim/1.jpg,stim/latef.jpg,CD,2,4,0,27,27,35,,,,,,,,,,,,,,,,,,4,1,0.866391576067,,,,,,2015_Nov_03_1335,P1,PLC_L_D1S1,NHG,60.0215099415,
stim/negf.jpg,stim/posf.jpg,stim/4.jpg,stim/5.jpg,stim/latef.jpg,AB,2,4,0,28,28,18,,,,,,,,,,,,,,,,,,4,1,0.666424670306,,,,,,2015_Nov_03_1335,P1,PLC_L_D1S1,NHG,60.0215099415,
stim/posf.jpg,stim/negf.jpg,stim/4.jpg,stim/5.jpg,stim/latef.jpg,AB,2,4,0,29,29,14,,,,,,,,,,,,,,,,,,4,1,0.699806078104,,,,,,2015_Nov_03_1335,P1,PLC_L_D1S1,NHG,60.0215099415,
stim/posf.jpg,stim/negf.jpg,stim/4.jpg,stim/5.jpg,stim/latef.jpg,AB,2,4,0,30,30,13,,,,,,,,,,,,,,,,,,4,1,0.533148716561,,,,,,2015_Nov_03_1335,P1,PLC_L_D1S1,NHG,60.0215099415,
stim/posf.jpg,stim/negf.jpg,stim/1.jpg,stim/2.jpg,stim/latef.jpg,CD,1,2,0,31,31,26,,,,,,,,,,,,,,,,,,2,1,0.816404553315,,,,,,2015_Nov_03_1335,P1,PLC_L_D1S1,NHG,60.0215099415,
stim/posf.jpg,stim/negf.jpg,stim/3.jpg,stim/6.jpg,stim/latef.jpg,EF,1,2,0,32,32,45,,,,,,,,,,,,,,,,,,2,1,0.666371636517,,,,,,2015_Nov_03_1335,P1,PLC_L_D1S1,NHG,60.0215099415,
stim/posf.jpg,stim/negf.jpg,stim/2.jpg,stim/1.jpg,stim/latef.jpg,CD,2,4,0,33,33,32,,,,,,,,,,,,,,,,,,4,1,0.91639828574,,,,,,2015_Nov_03_1335,P1,PLC_L_D1S1,NHG,60.0215099415,
stim/negf.jpg,stim/posf.jpg,stim/5.jpg,stim/4.jpg,stim/latef.jpg,AB,1,2,0,34,34,9,,,,,,,,,,,,,,,,,,4,0,0.816397744395,,,,,,2015_Nov_03_1335,P1,PLC_L_D1S1,NHG,60.0215099415,
stim/posf.jpg,stim/negf.jpg,stim/1.jpg,stim/2.jpg,stim/latef.jpg,CD,1,2,0,35,35,21,,,,,,,,,,,,,,,,,,2,1,0.63313250327,,,,,,2015_Nov_03_1335,P1,PLC_L_D1S1,NHG,60.0215099415,
stim/posf.jpg,stim/negf.jpg,stim/5.jpg,stim/4.jpg,stim/latef.jpg,AB,1,2,0,36,36,5,,,,,,,,,,,,,,,,,,4,0,0.76640478489,,,,,,2015_Nov_03_1335,P1,PLC_L_D1S1,NHG,60.0215099415,
stim/negf.jpg,stim/posf.jpg,stim/6.jpg,stim/3.jpg,stim/latef.jpg,EF,2,4,0,37,37,59,,,,,,,,,,,,,,,,,,4,1,0.649762175005,,,,,,2015_Nov_03_1335,P1,PLC_L_D1S1,NHG,60.0215099415,
stim/negf.jpg,stim/posf.jpg,stim/3.jpg,stim/6.jpg,stim/latef.jpg,EF,1,2,0,38,38,48,,,,,,,,,,,,,,,,,,4,0,0.816393401603,,,,,,2015_Nov_03_1335,P1,PLC_L_D1S1,NHG,60.0215099415,
stim/negf.jpg,stim/posf.jpg,stim/1.jpg,stim/2.jpg,stim/latef.jpg,CD,1,2,0,39,39,27,,,,,,,,,,,,,,,,,,4,0,0.999615891491,,,,,,2015_Nov_03_1335,P1,PLC_L_D1S1,NHG,60.0215099415,
stim/posf.jpg,stim/negf.jpg,stim/3.jpg,stim/6.jpg,stim/latef.jpg,EF,1,2,0,40,40,44,,,,,,,,,,,,,,,,,,4,0,0.799728536413,,,,,,2015_Nov_03_1335,P1,PLC_L_D1S1,NHG,60.0215099415,
stim/posf.jpg,stim/negf.jpg,stim/4.jpg,stim/5.jpg,stim/latef.jpg,AB,2,4,0,41,41,11,,,,,,,,,,,,,,,,,,2,0,0.61642620111,,,,,,2015_Nov_03_1335,P1,PLC_L_D1S1,NHG,60.0215099415,
stim/posf.jpg,stim/negf.jpg,stim/4.jpg,stim/5.jpg,stim/latef.jpg,AB,2,4,0,42,42,15,,,,,,,,,,,,,,,,,,4,1,0.716424703388,,,,,,2015_Nov_03_1335,P1,PLC_L_D1S1,NHG,60.0215099415,
stim/posf.jpg,stim/negf.jpg,stim/6.jpg,stim/3.jpg,stim/latef.jpg,EF,2,4,0,43,43,54,,,,,,,,,,,,,,,,,,4,1,0.549812878002,,,,,,2015_Nov_03_1335,P1,PLC_L_D1S1,NHG,60.0215099415,
stim/posf.jpg,stim/negf.jpg,stim/1.jpg,stim/2.jpg,stim/latef.jpg,CD,1,2,0,44,44,20,,,,,,,,,,,,,,,,,,4,0,0.633113905054,,,,,,2015_Nov_03_1335,P1,PLC_L_D1S1,NHG,60.0215099415,
stim/negf.jpg,stim/posf.jpg,stim/6.jpg,stim/3.jpg,stim/latef.jpg,EF,2,4,0,45,45,58,,,,,,,,,,,,,,,,,,2,0,0.666430838634,,,,,,2015_Nov_03_1335,P1,PLC_L_D1S1,NHG,60.0215099415,
stim/posf.jpg,stim/negf.jpg,stim/3.jpg,stim/6.jpg,stim/latef.jpg,EF,1,2,0,46,46,40,,,,,,,,,,,,,,,,,,2,1,0.699722882362,,,,,,2015_Nov_03_1335,P1,PLC_L_D1S1,NHG,60.0215099415,
stim/posf.jpg,stim/negf.jpg,stim/5.jpg,stim/4.jpg,stim/latef.jpg,AB,1,2,0,47,47,6,,,,,,,,,,,,,,,,,,2,1,0.61645881716,,,,,,2015_Nov_03_1335,P1,PLC_L_D1S1,NHG,60.0215099415,
stim/posf.jpg,stim/negf.jpg,stim/4.jpg,stim/5.jpg,stim/latef.jpg,AB,2,4,0,48,48,10,,,,,,,,,,,,,,,,,,4,1,0.699726810124,,,,,,2015_Nov_03_1335,P1,PLC_L_D1S1,NHG,60.0215099415,
stim/posf.jpg,stim/negf.jpg,stim/2.jpg,stim/1.jpg,stim/latef.jpg,CD,2,4,0,49,49,34,,,,,,,,,,,,,,,,,,4,1,0.799730810063,,,,,,2015_Nov_03_1335,P1,PLC_L_D1S1,NHG,60.0215099415,
stim/posf.jpg,stim/negf.jpg,stim/1.jpg,stim/2.jpg,stim/latef.jpg,CD,1,2,0,50,50,24,,,,,,,,,,,,,,,,,,4,0,0.549830613073,,,,,,2015_Nov_03_1335,P1,PLC_L_D1S1,NHG,60.0215099415,
stim/posf.jpg,stim/negf.jpg,stim/6.jpg,stim/3.jpg,stim/latef.jpg,EF,2,4,0,51,51,51,,,,,,,,,,,,,,,,,,2,0,0.866370689163,,,,,,2015_Nov_03_1335,P1,PLC_L_D1S1,NHG,60.0215099415,
stim/negf.jpg,stim/posf.jpg,stim/3.jpg,stim/6.jpg,stim/latef.jpg,EF,1,2,0,52,52,46,,,,,,,,,,,,,,,,,,4,0,0.416478401828,,,,,,2015_Nov_03_1335,P1,PLC_L_D1S1,NHG,60.0215099415,
stim/negf.jpg,stim/posf.jpg,stim/3.jpg,stim/6.jpg,stim/latef.jpg,EF,1,2,0,53,53,49,,,,,,,,,,,,,,,,,,4,0,0.699729516849,,,,,,2015_Nov_03_1335,P1,PLC_L_D1S1,NHG,60.0215099415,
stim/negf.jpg,stim/posf.jpg,stim/2.jpg,stim/1.jpg,stim/latef.jpg,CD,2,4,0,54,54,38,,,,,,,,,,,,,,,,,,4,1,0.516502765372,,,,,,2015_Nov_03_1335,P1,PLC_L_D1S1,NHG,60.0215099415,
stim/negf.jpg,stim/posf.jpg,stim/1.jpg,stim/2.jpg,stim/latef.jpg,CD,1,2,0,55,55,29,,,,,,,,,,,,,,,,,,2,1,0.683115724576,,,,,,2015_Nov_03_1335,P1,PLC_L_D1S1,NHG,60.0215099415,
stim/posf.jpg,stim/negf.jpg,stim/2.jpg,stim/1.jpg,stim/latef.jpg,CD,2,4,0,56,56,36,,,,,,,,,,,,,,,,,,4,1,0.349822790635,,,,,,2015_Nov_03_1335,P1,PLC_L_D1S1,NHG,60.0215099415,
stim/negf.jpg,stim/posf.jpg,stim/5.jpg,stim/4.jpg,stim/latef.jpg,AB,1,2,0,57,57,8,,,,,,,,,,,,,,,,,,4,0,1.0839669208,,,,,,2015_Nov_03_1335,P1,PLC_L_D1S1,NHG,60.0215099415,
stim/posf.jpg,stim/negf.jpg,stim/5.jpg,stim/4.jpg,stim/latef.jpg,AB,1,2,0,58,58,7,,,,,,,,,,,,,,,,,,4,0,0.833065677208,,,,,,2015_Nov_03_1335,P1,PLC_L_D1S1,NHG,60.0215099415,
stim/posf.jpg,stim/negf.jpg,stim/3.jpg,stim/6.jpg,stim/latef.jpg,EF,1,2,0,59,59,41,,,,,,,,,,,,,,,,,,4,0,0.766408616412,,,,,,2015_Nov_03_1335,P1,PLC_L_D1S1,NHG,60.0215099415,
,,,,,,,,,,,,,,,,,,,,,,,,,,,,,,,,0.9984375,1.0,1,0,0,2015_Nov_03_1335,P1,PLC_L_D1S1,NHG,60.0215099415,
stim/posf.jpg,stim/negf.jpg,stim/4.jpg,stim/5.jpg,stim/latef.jpg,AB,2,4,,,,,0,0,0,12,,,,,,,,,,,,,,4,1,0.683096037653,,,,,,2015_Nov_03_1335,P1,PLC_L_D1S1,NHG,60.0215099415,
stim/negf.jpg,stim/posf.jpg,stim/5.jpg,stim/4.jpg,stim/latef.jpg,AB,1,2,,,,,0,1,1,8,,,,,,,,,,,,,,4,0,0.583108208899,,,,,,2015_Nov_03_1335,P1,PLC_L_D1S1,NHG,60.0215099415,
stim/negf.jpg,stim/posf.jpg,stim/6.jpg,stim/3.jpg,stim/latef.jpg,EF,2,4,,,,,0,2,2,57,,,,,,,,,,,,,,4,1,0.649734007007,,,,,,2015_Nov_03_1335,P1,PLC_L_D1S1,NHG,60.0215099415,
stim/posf.jpg,stim/negf.jpg,stim/2.jpg,stim/1.jpg,stim/latef.jpg,CD,2,4,,,,,0,3,3,34,,,,,,,,,,,,,,2,0,0.316520055337,,,,,,2015_Nov_03_1335,P1,PLC_L_D1S1,NHG,60.0215099415,
stim/posf.jpg,stim/negf.jpg,stim/1.jpg,stim/2.jpg,stim/latef.jpg,CD,1,2,,,,,0,4,4,26,,,,,,,,,,,,,,4,0,0.31655846679,,,,,,2015_Nov_03_1335,P1,PLC_L_D1S1,NHG,60.0215099415,
stim/posf.jpg,stim/negf.jpg,stim/4.jpg,stim/5.jpg,stim/latef.jpg,AB,2,4,,,,,0,5,5,13,,,,,,,,,,,,,,4,1,0.5831277665,,,,,,2015_Nov_03_1335,P1,PLC_L_D1S1,NHG,60.0215099415,
stim/posf.jpg,stim/negf.jpg,stim/4.jpg,stim/5.jpg,stim/latef.jpg,AB,2,4,,,,,0,6,6,11,,,,,,,,,,,,,,4,1,0.449848224839,,,,,,2015_Nov_03_1335,P1,PLC_L_D1S1,NHG,60.0215099415,
stim/posf.jpg,stim/negf.jpg,stim/1.jpg,stim/2.jpg,stim/latef.jpg,CD,1,2,,,,,0,7,7,23,,,,,,,,,,,,,,4,0,0.716429981504,,,,,,2015_Nov_03_1335,P1,PLC_L_D1S1,NHG,60.0215099415,
stim/negf.jpg,stim/posf.jpg,stim/1.jpg,stim/2.jpg,stim/latef.jpg,CD,1,2,,,,,0,8,8,27,,,,,,,,,,,,,,2,1,0.466507848002,,,,,,2015_Nov_03_1335,P1,PLC_L_D1S1,NHG,60.0215099415,
stim/posf.jpg,stim/negf.jpg,stim/2.jpg,stim/1.jpg,stim/latef.jpg,CD,2,4,,,,,0,9,9,31,,,,,,,,,,,,,,4,1,0.633044038435,,,,,,2015_Nov_03_1335,P1,PLC_L_D1S1,NHG,60.0215099415,
stim/posf.jpg,stim/negf.jpg,stim/5.jpg,stim/4.jpg,stim/latef.jpg,AB,1,2,,,,,0,10,10,1,,,,,,,,,,,,,,4,0,0.583152511992,,,,,,2015_Nov_03_1335,P1,PLC_L_D1S1,NHG,60.0215099415,
stim/posf.jpg,stim/negf.jpg,stim/3.jpg,stim/6.jpg,stim/latef.jpg,EF,1,2,,,,,0,11,11,45,,,,,,,,,,,,,,4,0,0.633123495888,,,,,,2015_Nov_03_1335,P1,PLC_L_D1S1,NHG,60.0215099415,
stim/posf.jpg,stim/negf.jpg,stim/5.jpg,stim/4.jpg,stim/latef.jpg,AB,1,2,,,,,0,12,12,5,,,,,,,,,,,,,,2,1,0.549818688441,,,,,,2015_Nov_03_1335,P1,PLC_L_D1S1,NHG,60.0215099415,
stim/posf.jpg,stim/negf.jpg,stim/3.jpg,stim/6.jpg,stim/latef.jpg,EF,1,2,,,,,0,13,13,43,,,,,,,,,,,,,,2,1,0.49983527165,,,,,,2015_Nov_03_1335,P1,PLC_L_D1S1,NHG,60.0215099415,
stim/posf.jpg,stim/negf.jpg,stim/4.jpg,stim/5.jpg,stim/latef.jpg,AB,2,4,,,,,0,14,14,17,,,,,,,,,,,,,,2,0,0.516515805777,,,,,,2015_Nov_03_1335,P1,PLC_L_D1S1,NHG,60.0215099415,
stim/posf.jpg,stim/negf.jpg,stim/6.jpg,stim/3.jpg,stim/latef.jpg,EF,2,4,,,,,0,15,15,53,,,,,,,,,,,,,,4,1,0.699776295093,,,,,,2015_Nov_03_1335,P1,PLC_L_D1S1,NHG,60.0215099415,
stim/posf.jpg,stim/negf.jpg,stim/5.jpg,stim/4.jpg,stim/latef.jpg,AB,1,2,,,,,0,16,16,4,,,,,,,,,,,,,,4,0,0.616411202839,,,,,,2015_Nov_03_1335,P1,PLC_L_D1S1,NHG,60.0215099415,
stim/negf.jpg,stim/posf.jpg,stim/3.jpg,stim/6.jpg,stim/latef.jpg,EF,1,2,,,,,0,17,17,48,,,,,,,,,,,,,,2,1,0.416572986872,,,,,,2015_Nov_03_1335,P1,PLC_L_D1S1,NHG,60.0215099415,
stim/posf.jpg,stim/negf.jpg,stim/5.jpg,stim/4.jpg,stim/latef.jpg,AB,1,2,,,,,0,18,18,7,,,,,,,,,,,,,,4,0,0.466511050961,,,,,,2015_Nov_03_1335,P1,PLC_L_D1S1,NHG,60.0215099415,
stim/posf.jpg,stim/negf.jpg,stim/5.jpg,stim/4.jpg,stim/latef.jpg,AB,1,2,,,,,0,19,19,0,,,,,,,,,,,,,,4,0,0.349892888829,,,,,,2015_Nov_03_1335,P1,PLC_L_D1S1,NHG,60.0215099415,
stim/negf.jpg,stim/posf.jpg,stim/2.jpg,stim/1.jpg,stim/latef.jpg,CD,2,4,,,,,0,20,20,37,,,,,,,,,,,,,,2,0,0.65076868017,,,,,,2015_Nov_03_1335,P1,PLC_L_D1S1,NHG,60.0215099415,
stim/posf.jpg,stim/negf.jpg,stim/6.jpg,stim/3.jpg,stim/latef.jpg,EF,2,4,,,,,0,21,21,55,,,,,,,,,,,,,,2,0,1.11632123427,,,,,,2015_Nov_03_1335,P1,PLC_L_D1S1,NHG,60.0215099415,
stim/posf.jpg,stim/negf.jpg,stim/6.jpg,stim/3.jpg,stim/latef.jpg,EF,2,4,,,,,0,22,22,51,,,,,,,,,,,,,,2,0,0.549861202087,,,,,,2015_Nov_03_1335,P1,PLC_L_D1S1,NHG,60.0215099415,
stim/posf.jpg,stim/negf.jpg,stim/3.jpg,stim/6.jpg,stim/latef.jpg,EF,1,2,,,,,0,23,23,40,,,,,,,,,,,,,,4,0,0.466458381077,,,,,,2015_Nov_03_1335,P1,PLC_L_D1S1,NHG,60.0215099415,
stim/posf.jpg,stim/negf.jpg,stim/2.jpg,stim/1.jpg,stim/latef.jpg,CD,2,4,,,,,0,24,24,35,,,,,,,,,,,,,,2,0,0.383125501872,,,,,,2015_Nov_03_1335,P1,PLC_L_D1S1,NHG,60.0215099415,
stim/negf.jpg,stim/posf.jpg,stim/1.jpg,stim/2.jpg,stim/latef.jpg,CD,1,2,,,,,0,25,25,28,,,,,,,,,,,,,,4,0,0.433194592562,,,,,,2015_Nov_03_1335,P1,PLC_L_D1S1,NHG,60.0215099415,
stim/posf.jpg,stim/negf.jpg,stim/1.jpg,stim/2.jpg,stim/latef.jpg,CD,1,2,,,,,0,26,26,22,,,,,,,,,,,,,,2,1,0.449829425122,,,,,,2015_Nov_03_1335,P1,PLC_L_D1S1,NHG,60.0215099415,
stim/posf.jpg,stim/negf.jpg,stim/4.jpg,stim/5.jpg,stim/latef.jpg,AB,2,4,,,,,0,27,27,14,,,,,,,,,,,,,,4,1,0.466574343243,,,,,,2015_Nov_03_1335,P1,PLC_L_D1S1,NHG,60.0215099415,
stim/posf.jpg,stim/negf.jpg,stim/1.jpg,stim/2.jpg,stim/latef.jpg,CD,1,2,,,,,0,28,28,25,,,,,,,,,,,,,,4,0,0.499770857581,,,,,,2015_Nov_03_1335,P1,PLC_L_D1S1,NHG,60.0215099415,
stim/posf.jpg,stim/negf.jpg,stim/5.jpg,stim/4.jpg,stim/latef.jpg,AB,1,2,,,,,0,29,29,2,,,,,,,,,,,,,,4,0,0.366541480579,,,,,,2015_Nov_03_1335,P1,PLC_L_D1S1,NHG,60.0215099415,
stim/posf.jpg,stim/negf.jpg,stim/3.jpg,stim/6.jpg,stim/latef.jpg,EF,1,2,,,,,0,30,30,44,,,,,,,,,,,,,,2,1,0.399860221651,,,,,,2015_Nov_03_1335,P1,PLC_L_D1S1,NHG,60.0215099415,
stim/negf.jpg,stim/posf.jpg,stim/3.jpg,stim/6.jpg,stim/latef.jpg,EF,1,2,,,,,0,31,31,49,,,,,,,,,,,,,,2,1,0.349885974647,,,,,,2015_Nov_03_1335,P1,PLC_L_D1S1,NHG,60.0215099415,
stim/negf.jpg,stim/posf.jpg,stim/6.jpg,stim/3.jpg,stim/latef.jpg,EF,2,4,,,,,0,32,32,59,,,,,,,,,,,,,,2,0,0.299951814259,,,,,,2015_Nov_03_1335,P1,PLC_L_D1S1,NHG,60.0215099415,
stim/posf.jpg,stim/negf.jpg,stim/6.jpg,stim/3.jpg,stim/latef.jpg,EF,2,4,,,,,0,33,33,52,,,,,,,,,,,,,,2,0,0.316513715583,,,,,,2015_Nov_03_1335,P1,PLC_L_D1S1,NHG,60.0215099415,
stim/negf.jpg,stim/posf.jpg,stim/3.jpg,stim/6.jpg,stim/latef.jpg,EF,1,2,,,,,0,34,34,47,,,,,,,,,,,,,,4,0,0.299913273484,,,,,,2015_Nov_03_1335,P1,PLC_L_D1S1,NHG,60.0215099415,
stim/negf.jpg,stim/posf.jpg,stim/6.jpg,stim/3.jpg,stim/latef.jpg,EF,2,4,,,,,0,35,35,56,,,,,,,,,,,,,,4,1,0.399868017023,,,,,,2015_Nov_03_1335,P1,PLC_L_D1S1,NHG,60.0215099415,
stim/negf.jpg,stim/posf.jpg,stim/6.jpg,stim/3.jpg,stim/latef.jpg,EF,2,4,,,,,0,36,36,58,,,,,,,,,,,,,,2,0,0.449865884724,,,,,,2015_Nov_03_1335,P1,PLC_L_D1S1,NHG,60.0215099415,
stim/negf.jpg,stim/posf.jpg,stim/5.jpg,stim/4.jpg,stim/latef.jpg,AB,1,2,,,,,0,37,37,9,,,,,,,,,,,,,,2,1,0.349886606217,,,,,,2015_Nov_03_1335,P1,PLC_L_D1S1,NHG,60.0215099415,
stim/posf.jpg,stim/negf.jpg,stim/4.jpg,stim/5.jpg,stim/latef.jpg,AB,2,4,,,,,0,38,38,10,,,,,,,,,,,,,,4,1,0.36652857551,,,,,,2015_Nov_03_1335,P1,PLC_L_D1S1,NHG,60.0215099415,
stim/negf.jpg,stim/posf.jpg,stim/2.jpg,stim/1.jpg,stim/latef.jpg,CD,2,4,,,,,0,39,39,39,,,,,,,,,,,,,,2,0,0.399867021549,,,,,,2015_Nov_03_1335,P1,PLC_L_D1S1,NHG,60.0215099415,
stim/negf.jpg,stim/posf.jpg,stim/4.jpg,stim/5.jpg,stim/latef.jpg,AB,2,4,,,,,0,40,40,19,,,,,,,,,,,,,,2,0,0.383239728726,,,,,,2015_Nov_03_1335,P1,PLC_L_D1S1,NHG,60.0215099415,
stim/negf.jpg,stim/posf.jpg,stim/2.jpg,stim/1.jpg,stim/latef.jpg,CD,2,4,,,,,0,41,41,38,,,,,,,,,,,,,,2,0,0.333207323198,,,,,,2015_Nov_03_1335,P1,PLC_L_D1S1,NHG,60.0215099415,
stim/posf.jpg,stim/negf.jpg,stim/6.jpg,stim/3.jpg,stim/latef.jpg,EF,2,4,,,,,0,42,42,54,,,,,,,,,,,,,,4,1,0.31656441858,,,,,,2015_Nov_03_1335,P1,PLC_L_D1S1,NHG,60.0215099415,
stim/negf.jpg,stim/posf.jpg,stim/3.jpg,stim/6.jpg,stim/latef.jpg,EF,1,2,,,,,0,43,43,46,,,,,,,,,,,,,,4,0,0.549828838664,,,,,,2015_Nov_03_1335,P1,PLC_L_D1S1,NHG,60.0215099415,
stim/posf.jpg,stim/negf.jpg,stim/3.jpg,stim/6.jpg,stim/latef.jpg,EF,1,2,,,,,0,44,44,41,,,,,,,,,,,,,,4,0,0.466501830048,,,,,,2015_Nov_03_1335,P1,PLC_L_D1S1,NHG,60.0215099415,
stim/posf.jpg,stim/negf.jpg,stim/1.jpg,stim/2.jpg,stim/latef.jpg,CD,1,2,,,,,0,45,45,20,,,,,,,,,,,,,,2,1,0.399860796078,,,,,,2015_Nov_03_1335,P1,PLC_L_D1S1,NHG,60.0215099415,
stim/posf.jpg,stim/negf.jpg,stim/5.jpg,stim/4.jpg,stim/latef.jpg,AB,1,2,,,,,0,46,46,3,,,,,,,,,,,,,,2,1,0.366520813221,,,,,,2015_Nov_03_1335,P1,PLC_L_D1S1,NHG,60.0215099415,
stim/posf.jpg,stim/negf.jpg,stim/5.jpg,stim/4.jpg,stim/latef.jpg,AB,1,2,,,,,0,47,47,6,,,,,,,,,,,,,,4,0,0.333211575766,,,,,,2015_Nov_03_1335,P1,PLC_L_D1S1,NHG,60.0215099415,
stim/posf.jpg,stim/negf.jpg,stim/4.jpg,stim/5.jpg,stim/latef.jpg,AB,2,4,,,,,0,48,48,15,,,,,,,,,,,,,,2,0,0.299899457151,,,,,,2015_Nov_03_1335,P1,PLC_L_D1S1,NHG,60.0215099415,
stim/posf.jpg,stim/negf.jpg,stim/6.jpg,stim/3.jpg,stim/latef.jpg,EF,2,4,,,,,0,49,49,50,,,,,,,,,,,,,,4,1,0.633118491452,,,,,,2015_Nov_03_1335,P1,PLC_L_D1S1,NHG,60.0215099415,
stim/posf.jpg,stim/negf.jpg,stim/2.jpg,stim/1.jpg,stim/latef.jpg,CD,2,4,,,,,0,50,50,30,,,,,,,,,,,,,,4,1,0.449832234102,,,,,,2015_Nov_03_1335,P1,PLC_L_D1S1,NHG,60.0215099415,
stim/posf.jpg,stim/negf.jpg,stim/3.jpg,stim/6.jpg,stim/latef.jpg,EF,1,2,,,,,0,51,51,42,,,,,,,,,,,,,,4,0,0.349857632216,,,,,,2015_Nov_03_1335,P1,PLC_L_D1S1,NHG,60.0215099415,
stim/posf.jpg,stim/negf.jpg,stim/1.jpg,stim/2.jpg,stim/latef.jpg,CD,1,2,,,,,0,52,52,24,,,,,,,,,,,,,,2,1,0.349876465015,,,,,,2015_Nov_03_1335,P1,PLC_L_D1S1,NHG,60.0215099415,
stim/posf.jpg,stim/negf.jpg,stim/4.jpg,stim/5.jpg,stim/latef.jpg,AB,2,4,,,,,0,53,53,16,,,,,,,,,,,,,,2,0,0.466475493602,,,,,,2015_Nov_03_1335,P1,PLC_L_D1S1,NHG,60.0215099415,
stim/posf.jpg,stim/negf.jpg,stim/2.jpg,stim/1.jpg,stim/latef.jpg,CD,2,4,,,,,0,54,54,36,,,,,,,,,,,,,,4,1,0.283227810108,,,,,,2015_Nov_03_1335,P1,PLC_L_D1S1,NHG,60.0215099415,
stim/posf.jpg,stim/negf.jpg,stim/1.jpg,stim/2.jpg,stim/latef.jpg,CD,1,2,,,,,0,55,55,21,,,,,,,,,,,,,,4,0,0.266550090976,,,,,,2015_Nov_03_1335,P1,PLC_L_D1S1,NHG,60.0215099415,
stim/negf.jpg,stim/posf.jpg,stim/4.jpg,stim/5.jpg,stim/latef.jpg,AB,2,4,,,,,0,56,56,18,,,,,,,,,,,,,,2,0,0.366555910437,,,,,,2015_Nov_03_1335,P1,PLC_L_D1S1,NHG,60.0215099415,
stim/negf.jpg,stim/posf.jpg,stim/1.jpg,stim/2.jpg,stim/latef.jpg,CD,1,2,,,,,0,57,57,29,,,,,,,,,,,,,,2,1,0.433173110179,,,,,,2015_Nov_03_1335,P1,PLC_L_D1S1,NHG,60.0215099415,
stim/posf.jpg,stim/negf.jpg,stim/2.jpg,stim/1.jpg,stim/latef.jpg,CD,2,4,,,,,0,58,58,32,,,,,,,,,,,,,,2,0,0.316496055698,,,,,,2015_Nov_03_1335,P1,PLC_L_D1S1,NHG,60.0215099415,
stim/posf.jpg,stim/negf.jpg,stim/2.jpg,stim/1.jpg,stim/latef.jpg,CD,2,4,,,,,0,59,59,33,,,,,,,,,,,,,,4,1,0.36652810033,,,,,,2015_Nov_03_1335,P1,PLC_L_D1S1,NHG,60.0215099415,
,,,,,,,,,,,,,,,,,,,,,,,,,,,,,,,,0.9984375,1.0,1,0,0,2015_Nov_03_1335,P1,PLC_L_D1S1,NHG,60.0215099415,
stim/posf.jpg,stim/negf.jpg,stim/3.jpg,stim/6.jpg,stim/latef.jpg,EF,1,2,,,,,,,,,0,0,0,43,,,,,,,,,,4,0,0.599758755508,,,,,,2015_Nov_03_1335,P1,PLC_L_D1S1,NHG,60.0215099415,
stim/posf.jpg,stim/negf.jpg,stim/2.jpg,stim/1.jpg,stim/latef.jpg,CD,2,4,,,,,,,,,0,1,1,35,,,,,,,,,,2,0,0.399862284778,,,,,,2015_Nov_03_1335,P1,PLC_L_D1S1,NHG,60.0215099415,
stim/posf.jpg,stim/negf.jpg,stim/3.jpg,stim/6.jpg,stim/latef.jpg,EF,1,2,,,,,,,,,0,2,2,41,,,,,,,,,,4,0,0.283241220433,,,,,,2015_Nov_03_1335,P1,PLC_L_D1S1,NHG,60.0215099415,
stim/posf.jpg,stim/negf.jpg,stim/1.jpg,stim/2.jpg,stim/latef.jpg,CD,1,2,,,,,,,,,0,3,3,21,,,,,,,,,,2,1,0.349870453076,,,,,,2015_Nov_03_1335,P1,PLC_L_D1S1,NHG,60.0215099415,
stim/posf.jpg,stim/negf.jpg,stim/1.jpg,stim/2.jpg,stim/latef.jpg,CD,1,2,,,,,,,,,0,4,4,24,,,,,,,,,,2,1,0.49983552127,,,,,,2015_Nov_03_1335,P1,PLC_L_D1S1,NHG,60.0215099415,
stim/posf.jpg,stim/negf.jpg,stim/6.jpg,stim/3.jpg,stim/latef.jpg,EF,2,4,,,,,,,,,0,5,5,55,,,,,,,,,,2,0,0.433172289139,,,,,,2015_Nov_03_1335,P1,PLC_L_D1S1,NHG,60.0215099415,
stim/negf.jpg,stim/posf.jpg,stim/5.jpg,stim/4.jpg,stim/latef.jpg,AB,1,2,,,,,,,,,0,6,6,9,,,,,,,,,,2,1,0.299901433061,,,,,,2015_Nov_03_1335,P1,PLC_L_D1S1,NHG,60.0215099415,
stim/posf.jpg,stim/negf.jpg,stim/5.jpg,stim/4.jpg,stim/latef.jpg,AB,1,2,,,,,,,,,0,7,7,1,,,,,,,,,,4,0,0.316622008691,,,,,,2015_Nov_03_1335,P1,PLC_L_D1S1,NHG,60.0215099415,
stim/posf.jpg,stim/negf.jpg,stim/6.jpg,stim/3.jpg,stim/latef.jpg,EF,2,4,,,,,,,,,0,8,8,54,,,,,,,,,,4,1,0.3499951309,,,,,,2015_Nov_03_1335,P1,PLC_L_D1S1,NHG,60.0215099415,
stim/posf.jpg,stim/negf.jpg,stim/6.jpg,stim/3.jpg,stim/latef.jpg,EF,2,4,,,,,,,,,0,9,9,52,,,,,,,,,,4,1,0.333236104721,,,,,,2015_Nov_03_1335,P1,PLC_L_D1S1,NHG,60.0215099415,
stim/posf.jpg,stim/negf.jpg,stim/1.jpg,stim/2.jpg,stim/latef.jpg,CD,1,2,,,,,,,,,0,10,10,25,,,,,,,,,,2,1,0.383209323168,,,,,,2015_Nov_03_1335,P1,PLC_L_D1S1,NHG,60.0215099415,
stim/posf.jpg,stim/negf.jpg,stim/5.jpg,stim/4.jpg,stim/latef.jpg,AB,1,2,,,,,,,,,0,11,11,3,,,,,,,,,,4,0,0.316559874288,,,,,,2015_Nov_03_1335,P1,PLC_L_D1S1,NHG,60.0215099415,
stim/posf.jpg,stim/negf.jpg,stim/3.jpg,stim/6.jpg,stim/latef.jpg,EF,1,2,,,,,,,,,0,12,12,45,,,,,,,,,,2,1,0.299905691644,,,,,,2015_Nov_03_1335,P1,PLC_L_D1S1,NHG,60.0215099415,
stim/negf.jpg,stim/posf.jpg,stim/6.jpg,stim/3.jpg,stim/latef.jpg,EF,2,4,,,,,,,,,0,13,13,58,,,,,,,,,,4,1,0.299881893505,,,,,,2015_Nov_03_1335,P1,PLC_L_D1S1,NHG,60.0215099415,
stim/posf.jpg,stim/negf.jpg,stim/4.jpg,stim/5.jpg,stim/latef.jpg,AB,2,4,,,,,,,,,0,14,14,16,,,,,,,,,,2,0,0.349879526624,,,,,,2015_Nov_03_1335,P1,PLC_L_D1S1,NHG,60.0215099415,
stim/negf.jpg,stim/posf.jpg,stim/5.jpg,stim/4.jpg,stim/latef.jpg,AB,1,2,,,,,,,,,0,15,15,8,,,,,,,,,,4,0,0.31656325168,,,,,,2015_Nov_03_1335,P1,PLC_L_D1S1,NHG,60.0215099415,
stim/posf.jpg,stim/negf.jpg,stim/2.jpg,stim/1.jpg,stim/latef.jpg,CD,2,4,,,,,,,,,0,16,16,31,,,,,,,,,,2,0,0.366545730139,,,,,,2015_Nov_03_1335,P1,PLC_L_D1S1,NHG,60.0215099415,
stim/posf.jpg,stim/negf.jpg,stim/6.jpg,stim/3.jpg,stim/latef.jpg,EF,2,4,,,,,,,,,0,17,17,53,,,,,,,,,,4,1,0.316556554037,,,,,,2015_Nov_03_1335,P1,PLC_L_D1S1,NHG,60.0215099415,
stim/posf.jpg,stim/negf.jpg,stim/2.jpg,stim/1.jpg,stim/latef.jpg,CD,2,4,,,,,,,,,0,18,18,36,,,,,,,,,,4,1,0.433185287439,,,,,,2015_Nov_03_1335,P1,PLC_L_D1S1,NHG,60.0215099415,
stim/negf.jpg,stim/posf.jpg,stim/1.jpg,stim/2.jpg,stim/latef.jpg,CD,1,2,,,,,,,,,0,19,19,27,,,,,,,,,,2,1,0.399862047188,,,,,,2015_Nov_03_1335,P1,PLC_L_D1S1,NHG,60.0215099415,
stim/negf.jpg,stim/posf.jpg,stim/1.jpg,stim/2.jpg,stim/latef.jpg,CD,1,2,,,,,,,,,0,20,20,28,,,,,,,,,,4,0,0.333204339785,,,,,,2015_Nov_03_1335,P1,PLC_L_D1S1,NHG,60.0215099415,
stim/negf.jpg,stim/posf.jpg,stim/6.jpg,stim/3.jpg,stim/latef.jpg,EF,2,4,,,,,,,,,0,21,21,57,,,,,,,,,,4,1,0.49982674847,,,,,,2015_Nov_03_1335,P1,PLC_L_D1S1,NHG,60.0215099415,
stim/posf.jpg,stim/negf.jpg,stim/5.jpg,stim/4.jpg,stim/latef.jpg,AB,1,2,,,,,,,,,0,22,22,4,,,,,,,,,,2,1,0.549823244763,,,,,,2015_Nov_03_1335,P1,PLC_L_D1S1,NHG,60.0215099415,
stim/negf.jpg,stim/posf.jpg,stim/2.jpg,stim/1.jpg,stim/latef.jpg,CD,2,4,,,,,,,,,0,23,23,38,,,,,,,,,,4,1,0.583138491151,,,,,,2015_Nov_03_1335,P1,PLC_L_D1S1,NHG,60.0215099415,
stim/posf.jpg,stim/negf.jpg,stim/1.jpg,stim/2.jpg,stim/latef.jpg,CD,1,2,,,,,,,,,0,24,24,23,,,,,,,,,,2,1,0.583139375348,,,,,,2015_Nov_03_1335,P1,PLC_L_D1S1,NHG,60.0215099415,
stim/posf.jpg,stim/negf.jpg,stim/5.jpg,stim/4.jpg,stim/latef.jpg,AB,1,2,,,,,,,,,0,25,25,5,,,,,,,,,,2,1,1.11729535496,,,,,,2015_Nov_03_1335,P1,PLC_L_D1S1,NHG,60.0215099415,
stim/posf.jpg,stim/negf.jpg,stim/4.jpg,stim/5.jpg,stim/latef.jpg,AB,2,4,,,,,,,,,0,26,26,11,,,,,,,,,,4,1,1.13296751327,,,,,,2015_Nov_03_1335,P1,PLC_L_D1S1,NHG,60.0215099415,
stim/posf.jpg,stim/negf.jpg,stim/4.jpg,stim/5.jpg,stim/latef.jpg,AB,2,4,,,,,,,,,0,27,27,10,,,,,,,,,,2,0,0.932946358701,,,,,,2015_Nov_03_1335,P1,PLC_L_D1S1,NHG,60.0215099415,
stim/posf.jpg,stim/negf.jpg,stim/4.jpg,stim/5.jpg,stim/latef.jpg,AB,2,4,,,,,,,,,0,28,28,15,,,,,,,,,,4,1,0.599797061698,,,,,,2015_Nov_03_1335,P1,PLC_L_D1S1,NHG,60.0215099415,
stim/posf.jpg,stim/negf.jpg,stim/6.jpg,stim/3.jpg,stim/latef.jpg,EF,2,4,,,,,,,,,0,29,29,50,,,,,,,,,,4,1,0.616465596006,,,,,,2015_Nov_03_1335,P1,PLC_L_D1S1,NHG,60.0215099415,
stim/posf.jpg,stim/negf.jpg,stim/4.jpg,stim/5.jpg,stim/latef.jpg,AB,2,4,,,,,,,,,0,30,30,13,,,,,,,,,,4,1,0.633109899099,,,,,,2015_Nov_03_1335,P1,PLC_L_D1S1,NHG,60.0215099415,
stim/posf.jpg,stim/negf.jpg,stim/4.jpg,stim/5.jpg,stim/latef.jpg,AB,2,4,,,,,,,,,0,31,31,17,,,,,,,,,,4,1,0.383207491617,,,,,,2015_Nov_03_1335,P1,PLC_L_D1S1,NHG,60.0215099415,
stim/posf.jpg,stim/negf.jpg,stim/3.jpg,stim/6.jpg,stim/latef.jpg,EF,1,2,,,,,,,,,0,32,32,44,,,,,,,,,,4,0,0.383212980256,,,,,,2015_Nov_03_1335,P1,PLC_L_D1S1,NHG,60.0215099415,
stim/posf.jpg,stim/negf.jpg,stim/5.jpg,stim/4.jpg,stim/latef.jpg,AB,1,2,,,,,,,,,0,33,33,0,,,,,,,,,,2,1,1.06631692756,,,,,,2015_Nov_03_1335,P1,PLC_L_D1S1,NHG,60.0215099415,
stim/posf.jpg,stim/negf.jpg,stim/2.jpg,stim/1.jpg,stim/latef.jpg,CD,2,4,,,,,,,,,0,34,34,30,,,,,,,,,,4,1,0.799758472805,,,,,,2015_Nov_03_1335,P1,PLC_L_D1S1,NHG,60.0215099415,
stim/negf.jpg,stim/posf.jpg,stim/4.jpg,stim/5.jpg,stim/latef.jpg,AB,2,4,,,,,,,,,0,35,35,18,,,,,,,,,,4,1,0.666431623585,,,,,,2015_Nov_03_1335,P1,PLC_L_D1S1,NHG,60.0215099415,
stim/posf.jpg,stim/negf.jpg,stim/6.jpg,stim/3.jpg,stim/latef.jpg,EF,2,4,,,,,,,,,0,36,36,51,,,,,,,,,,4,1,0.616462585525,,,,,,2015_Nov_03_1335,P1,PLC_L_D1S1,NHG,60.0215099415,
stim/posf.jpg,stim/negf.jpg,stim/5.jpg,stim/4.jpg,stim/latef.jpg,AB,1,2,,,,,,,,,0,37,37,2,,,,,,,,,,4,0,0.299882765673,,,,,,2015_Nov_03_1335,P1,PLC_L_D1S1,NHG,60.0215099415,
stim/posf.jpg,stim/negf.jpg,stim/4.jpg,stim/5.jpg,stim/latef.jpg,AB,2,4,,,,,,,,,0,38,38,12,,,,,,,,,,2,0,0.433188000181,,,,,,2015_Nov_03_1335,P1,PLC_L_D1S1,NHG,60.0215099415,
stim/posf.jpg,stim/negf.jpg,stim/2.jpg,stim/1.jpg,stim/latef.jpg,CD,2,4,,,,,,,,,0,39,39,32,,,,,,,,,,4,1,0.399879731132,,,,,,2015_Nov_03_1335,P1,PLC_L_D1S1,NHG,60.0215099415,
stim/posf.jpg,stim/negf.jpg,stim/3.jpg,stim/6.jpg,stim/latef.jpg,EF,1,2,,,,,,,,,0,40,40,40,,,,,,,,,,2,1,0.383204360837,,,,,,2015_Nov_03_1335,P1,PLC_L_D1S1,NHG,60.0215099415,
stim/negf.jpg,stim/posf.jpg,stim/2.jpg,stim/1.jpg,stim/latef.jpg,CD,2,4,,,,,,,,,0,41,41,37,,,,,,,,,,2,0,0.399814369709,,,,,,2015_Nov_03_1335,P1,PLC_L_D1S1,NHG,60.0215099415,
stim/negf.jpg,stim/posf.jpg,stim/3.jpg,stim/6.jpg,stim/latef.jpg,EF,1,2,,,,,,,,,0,42,42,47,,,,,,,,,,4,0,1.08293501752,,,,,,2015_Nov_03_1335,P1,PLC_L_D1S1,NHG,60.0215099415,
stim/posf.jpg,stim/negf.jpg,stim/1.jpg,stim/2.jpg,stim/latef.jpg,CD,1,2,,,,,,,,,0,43,43,20,,,,,,,,,,4,0,0.949677174779,,,,,,2015_Nov_03_1335,P1,PLC_L_D1S1,NHG,60.0215099415,
stim/negf.jpg,stim/posf.jpg,stim/3.jpg,stim/6.jpg,stim/latef.jpg,EF,1,2,,,,,,,,,0,44,44,46,,,,,,,,,,4,0,0.483149417302,,,,,,2015_Nov_03_1335,P1,PLC_L_D1S1,NHG,60.0215099415,
stim/negf.jpg,stim/posf.jpg,stim/6.jpg,stim/3.jpg,stim/latef.jpg,EF,2,4,,,,,,,,,0,45,45,59,,,,,,,,,,2,0,0.583105033007,,,,,,2015_Nov_03_1335,P1,PLC_L_D1S1,NHG,60.0215099415,
stim/posf.jpg,stim/negf.jpg,stim/5.jpg,stim/4.jpg,stim/latef.jpg,AB,1,2,,,,,,,,,0,46,46,6,,,,,,,,,,4,0,0.599717580187,,,,,,2015_Nov_03_1335,P1,PLC_L_D1S1,NHG,60.0215099415,
stim/posf.jpg,stim/negf.jpg,stim/4.jpg,stim/5.jpg,stim/latef.jpg,AB,2,4,,,,,,,,,0,47,47,14,,,,,,,,,,2,0,0.499759618653,,,,,,2015_Nov_03_1335,P1,PLC_L_D1S1,NHG,60.0215099415,
stim/negf.jpg,stim/posf.jpg,stim/6.jpg,stim/3.jpg,stim/latef.jpg,EF,2,4,,,,,,,,,0,48,48,56,,,,,,,,,,4,1,0.366506413437,,,,,,2015_Nov_03_1335,P1,PLC_L_D1S1,NHG,60.0215099415,
stim/negf.jpg,stim/posf.jpg,stim/1.jpg,stim/2.jpg,stim/latef.jpg,CD,1,2,,,,,,,,,0,49,49,29,,,,,,,,,,4,0,0.733087718982,,,,,,2015_Nov_03_1335,P1,PLC_L_D1S1,NHG,60.0215099415,
stim/negf.jpg,stim/posf.jpg,stim/3.jpg,stim/6.jpg,stim/latef.jpg,EF,1,2,,,,,,,,,0,50,50,48,,,,,,,,,,4,0,0.949672684621,,,,,,2015_Nov_03_1335,P1,PLC_L_D1S1,NHG,60.0215099415,
stim/posf.jpg,stim/negf.jpg,stim/5.jpg,stim/4.jpg,stim/latef.jpg,AB,1,2,,,,,,,,,0,51,51,7,,,,,,,,,,4,0,0.416488419723,,,,,,2015_Nov_03_1335,P1,PLC_L_D1S1,NHG,60.0215099415,
stim/posf.jpg,stim/negf.jpg,stim/2.jpg,stim/1.jpg,stim/latef.jpg,CD,2,4,,,,,,,,,0,52,52,34,,,,,,,,,,2,0,0.366525655254,,,,,,2015_Nov_03_1335,P1,PLC_L_D1S1,NHG,60.0215099415,
stim/negf.jpg,stim/posf.jpg,stim/4.jpg,stim/5.jpg,stim/latef.jpg,AB,2,4,,,,,,,,,0,53,53,19,,,,,,,,,,4,1,0.383194003098,,,,,,2015_Nov_03_1335,P1,PLC_L_D1S1,NHG,60.0215099415,
stim/negf.jpg,stim/posf.jpg,stim/3.jpg,stim/6.jpg,stim/latef.jpg,EF,1,2,,,,,,,,,0,54,54,49,,,,,,,,,,2,1,0.683134187456,,,,,,2015_Nov_03_1335,P1,PLC_L_D1S1,NHG,60.0215099415,
stim/posf.jpg,stim/negf.jpg,stim/1.jpg,stim/2.jpg,stim/latef.jpg,CD,1,2,,,,,,,,,0,55,55,26,,,,,,,,,,4,0,0.933016276447,,,,,,2015_Nov_03_1335,P1,PLC_L_D1S1,NHG,60.0215099415,
stim/posf.jpg,stim/negf.jpg,stim/2.jpg,stim/1.jpg,stim/latef.jpg,CD,2,4,,,,,,,,,0,56,56,33,,,,,,,,,,2,0,0.449837981384,,,,,,2015_Nov_03_1335,P1,PLC_L_D1S1,NHG,60.0215099415,
stim/negf.jpg,stim/posf.jpg,stim/2.jpg,stim/1.jpg,stim/latef.jpg,CD,2,4,,,,,,,,,0,57,57,39,,,,,,,,,,4,1,0.666433121306,,,,,,2015_Nov_03_1335,P1,PLC_L_D1S1,NHG,60.0215099415,
stim/posf.jpg,stim/negf.jpg,stim/1.jpg,stim/2.jpg,stim/latef.jpg,CD,1,2,,,,,,,,,0,58,58,22,,,,,,,,,,2,1,0.516470985399,,,,,,2015_Nov_03_1335,P1,PLC_L_D1S1,NHG,60.0215099415,
stim/posf.jpg,stim/negf.jpg,stim/3.jpg,stim/6.jpg,stim/latef.jpg,EF,1,2,,,,,,,,,0,59,59,42,,,,,,,,,,4,0,0.633121351559,,,,,,2015_Nov_03_1335,P1,PLC_L_D1S1,NHG,60.0215099415,
,,,,,,,,,,,,,,,,,,,,,,,,,,,,,,,,0.9984375,1.0,1,0,0,2015_Nov_03_1335,P1,PLC_L_D1S1,NHG,60.0215099415,
stim/negf.jpg,stim/posf.jpg,stim/6.jpg,stim/3.jpg,stim/latef.jpg,EF,2,4,,,,,,,,,,,,,0,0,0,58,,,,,,4,1,0.649780968707,,,,,,2015_Nov_03_1335,P1,PLC_L_D1S1,NHG,60.0215099415,
stim/negf.jpg,stim/posf.jpg,stim/2.jpg,stim/1.jpg,stim/latef.jpg,CD,2,4,,,,,,,,,,,,,0,1,1,37,,,,,,2,0,0.433179546173,,,,,,2015_Nov_03_1335,P1,PLC_L_D1S1,NHG,60.0215099415,
stim/posf.jpg,stim/negf.jpg,stim/2.jpg,stim/1.jpg,stim/latef.jpg,CD,2,4,,,,,,,,,,,,,0,2,2,35,,,,,,2,0,0.399894079788,,,,,,2015_Nov_03_1335,P1,PLC_L_D1S1,NHG,60.0215099415,
stim/posf.jpg,stim/negf.jpg,stim/3.jpg,stim/6.jpg,stim/latef.jpg,EF,1,2,,,,,,,,,,,,,0,3,3,42,,,,,,2,1,0.316563176494,,,,,,2015_Nov_03_1335,P1,PLC_L_D1S1,NHG,60.0215099415,
stim/posf.jpg,stim/negf.jpg,stim/2.jpg,stim/1.jpg,stim/latef.jpg,CD,2,4,,,,,,,,,,,,,0,4,4,33,,,,,,2,0,0.399878374762,,,,,,2015_Nov_03_1335,P1,PLC_L_D1S1,NHG,60.0215099415,
stim/posf.jpg,stim/negf.jpg,stim/3.jpg,stim/6.jpg,stim/latef.jpg,EF,1,2,,,,,,,,,,,,,0,5,5,40,,,,,,4,0,0.799740232478,,,,,,2015_Nov_03_1335,P1,PLC_L_D1S1,NHG,60.0215099415,
stim/negf.jpg,stim/posf.jpg,stim/3.jpg,stim/6.jpg,stim/latef.jpg,EF,1,2,,,,,,,,,,,,,0,6,6,47,,,,,,4,0,0.566429193546,,,,,,2015_Nov_03_1335,P1,PLC_L_D1S1,NHG,60.0215099415,
stim/negf.jpg,stim/posf.jpg,stim/1.jpg,stim/2.jpg,stim/latef.jpg,CD,1,2,,,,,,,,,,,,,0,7,7,27,,,,,,4,0,1.11627774921,,,,,,2015_Nov_03_1335,P1,PLC_L_D1S1,NHG,60.0215099415,
stim/posf.jpg,stim/negf.jpg,stim/5.jpg,stim/4.jpg,stim/latef.jpg,AB,1,2,,,,,,,,,,,,,0,8,8,6,,,,,,2,1,0.699765940361,,,,,,2015_Nov_03_1335,P1,PLC_L_D1S1,NHG,60.0215099415,
stim/posf.jpg,stim/negf.jpg,stim/4.jpg,stim/5.jpg,stim/latef.jpg,AB,2,4,,,,,,,,,,,,,0,9,9,12,,,,,,4,1,0.466510584803,,,,,,2015_Nov_03_1335,P1,PLC_L_D1S1,NHG,60.0215099415,
stim/negf.jpg,stim/posf.jpg,stim/6.jpg,stim/3.jpg,stim/latef.jpg,EF,2,4,,,,,,,,,,,,,0,10,10,56,,,,,,2,0,0.399868862122,,,,,,2015_Nov_03_1335,P1,PLC_L_D1S1,NHG,60.0215099415,
stim/negf.jpg,stim/posf.jpg,stim/4.jpg,stim/5.jpg,stim/latef.jpg,AB,2,4,,,,,,,,,,,,,0,11,11,19,,,,,,4,1,0.399878019879,,,,,,2015_Nov_03_1335,P1,PLC_L_D1S1,NHG,60.0215099415,
stim/posf.jpg,stim/negf.jpg,stim/6.jpg,stim/3.jpg,stim/latef.jpg,EF,2,4,,,,,,,,,,,,,0,12,12,51,,,,,,2,0,0.299860248718,,,,,,2015_Nov_03_1335,P1,PLC_L_D1S1,NHG,60.0215099415,
stim/posf.jpg,stim/negf.jpg,stim/5.jpg,stim/4.jpg,stim/latef.jpg,AB,1,2,,,,,,,,,,,,,0,13,13,1,,,,,,4,0,0.366481042391,,,,,,2015_Nov_03_1335,P1,PLC_L_D1S1,NHG,60.0215099415,
stim/negf.jpg,stim/posf.jpg,stim/5.jpg,stim/4.jpg,stim/latef.jpg,AB,1,2,,,,,,,,,,,,,0,14,14,8,,,,,,2,1,0.383187897926,,,,,,2015_Nov_03_1335,P1,PLC_L_D1S1,NHG,60.0215099415,
stim/negf.jpg,stim/posf.jpg,stim/6.jpg,stim/3.jpg,stim/latef.jpg,EF,2,4,,,,,,,,,,,,,0,15,15,59,,,,,,2,0,0.566484395723,,,,,,2015_Nov_03_1335,P1,PLC_L_D1S1,NHG,60.0215099415,
stim/posf.jpg,stim/negf.jpg,stim/2.jpg,stim/1.jpg,stim/latef.jpg,CD,2,4,,,,,,,,,,,,,0,16,16,32,,,,,,4,1,0.499834805492,,,,,,2015_Nov_03_1335,P1,PLC_L_D1S1,NHG,60.0215099415,
stim/posf.jpg,stim/negf.jpg,stim/3.jpg,stim/6.jpg,stim/latef.jpg,EF,1,2,,,,,,,,,,,,,0,17,17,44,,,,,,2,1,0.349841647494,,,,,,2015_Nov_03_1335,P1,PLC_L_D1S1,NHG,60.0215099415,
stim/negf.jpg,stim/posf.jpg,stim/1.jpg,stim/2.jpg,stim/latef.jpg,CD,1,2,,,,,,,,,,,,,0,18,18,28,,,,,,2,1,0.333224528954,,,,,,2015_Nov_03_1335,P1,PLC_L_D1S1,NHG,60.0215099415,
stim/negf.jpg,stim/posf.jpg,stim/2.jpg,stim/1.jpg,stim/latef.jpg,CD,2,4,,,,,,,,,,,,,0,19,19,38,,,,,,4,1,0.349930767959,,,,,,2015_Nov_03_1335,P1,PLC_L_D1S1,NHG,60.0215099415,
stim/negf.jpg,stim/posf.jpg,stim/5.jpg,stim/4.jpg,stim/latef.jpg,AB,1,2,,,,,,,,,,,,,0,20,20,9,,,,,,4,0,0.316537327258,,,,,,2015_Nov_03_1335,P1,PLC_L_D1S1,NHG,60.0215099415,
stim/posf.jpg,stim/negf.jpg,stim/6.jpg,stim/3.jpg,stim/latef.jpg,EF,2,4,,,,,,,,,,,,,0,21,21,53,,,,,,4,1,0.299907099141,,,,,,2015_Nov_03_1335,P1,PLC_L_D1S1,NHG,60.0215099415,
stim/posf.jpg,stim/negf.jpg,stim/3.jpg,stim/6.jpg,stim/latef.jpg,EF,1,2,,,,,,,,,,,,,0,22,22,41,,,,,,2,1,0.31656158554,,,,,,2015_Nov_03_1335,P1,PLC_L_D1S1,NHG,60.0215099415,
stim/posf.jpg,stim/negf.jpg,stim/2.jpg,stim/1.jpg,stim/latef.jpg,CD,2,4,,,,,,,,,,,,,0,23,23,31,,,,,,2,0,0.399876236448,,,,,,2015_Nov_03_1335,P1,PLC_L_D1S1,NHG,60.0215099415,
stim/posf.jpg,stim/negf.jpg,stim/4.jpg,stim/5.jpg,stim/latef.jpg,AB,2,4,,,,,,,,,,,,,0,24,24,14,,,,,,2,0,0.46649675644,,,,,,2015_Nov_03_1335,P1,PLC_L_D1S1,NHG,60.0215099415,
stim/negf.jpg,stim/posf.jpg,stim/1.jpg,stim/2.jpg,stim/latef.jpg,CD,1,2,,,,,,,,,,,,,0,25,25,29,,,,,,4,0,0.483172884618,,,,,,2015_Nov_03_1335,P1,PLC_L_D1S1,NHG,60.0215099415,
stim/negf.jpg,stim/posf.jpg,stim/2.jpg,stim/1.jpg,stim/latef.jpg,CD,2,4,,,,,,,,,,,,,0,26,26,39,,,,,,2,0,1.0662971023,,,,,,2015_Nov_03_1335,P1,PLC_L_D1S1,NHG,60.0215099415,
stim/posf.jpg,stim/negf.jpg,stim/6.jpg,stim/3.jpg,stim/latef.jpg,EF,2,4,,,,,,,,,,,,,0,27,27,52,,,,,,2,0,0.516437987399,,,,,,2015_Nov_03_1335,P1,PLC_L_D1S1,NHG,60.0215099415,
stim/posf.jpg,stim/negf.jpg,stim/6.jpg,stim/3.jpg,stim/latef.jpg,EF,2,4,,,,,,,,,,,,,0,28,28,54,,,,,,4,1,0.383206195395,,,,,,2015_Nov_03_1335,P1,PLC_L_D1S1,NHG,60.0215099415,
stim/posf.jpg,stim/negf.jpg,stim/1.jpg,stim/2.jpg,stim/latef.jpg,CD,1,2,,,,,,,,,,,,,0,29,29,20,,,,,,4,0,0.333237930256,,,,,,2015_Nov_03_1335,P1,PLC_L_D1S1,NHG,60.0215099415,
stim/posf.jpg,stim/negf.jpg,stim/3.jpg,stim/6.jpg,stim/latef.jpg,EF,1,2,,,,,,,,,,,,,0,30,30,45,,,,,,4,0,0.566478043939,,,,,,2015_Nov_03_1335,P1,PLC_L_D1S1,NHG,60.0215099415,
stim/negf.jpg,stim/posf.jpg,stim/3.jpg,stim/6.jpg,stim/latef.jpg,EF,1,2,,,,,,,,,,,,,0,31,31,48,,,,,,2,1,0.633121538022,,,,,,2015_Nov_03_1335,P1,PLC_L_D1S1,NHG,60.0215099415,
stim/posf.jpg,stim/negf.jpg,stim/1.jpg,stim/2.jpg,stim/latef.jpg,CD,1,2,,,,,,,,,,,,,0,32,32,23,,,,,,4,0,0.433173350777,,,,,,2015_Nov_03_1335,P1,PLC_L_D1S1,NHG,60.0215099415,
stim/posf.jpg,stim/negf.jpg,stim/5.jpg,stim/4.jpg,stim/latef.jpg,AB,1,2,,,,,,,,,,,,,0,33,33,3,,,,,,4,0,0.533165101277,,,,,,2015_Nov_03_1335,P1,PLC_L_D1S1,NHG,60.0215099415,
stim/posf.jpg,stim/negf.jpg,stim/5.jpg,stim/4.jpg,stim/latef.jpg,AB,1,2,,,,,,,,,,,,,0,34,34,5,,,,,,4,0,0.266529829627,,,,,,2015_Nov_03_1335,P1,PLC_L_D1S1,NHG,60.0215099415,
stim/posf.jpg,stim/negf.jpg,stim/5.jpg,stim/4.jpg,stim/latef.jpg,AB,1,2,,,,,,,,,,,,,0,35,35,4,,,,,,4,0,0.316604598427,,,,,,2015_Nov_03_1335,P1,PLC_L_D1S1,NHG,60.0215099415,
stim/posf.jpg,stim/negf.jpg,stim/2.jpg,stim/1.jpg,stim/latef.jpg,CD,2,4,,,,,,,,,,,,,0,36,36,36,,,,,,2,0,0.566483370175,,,,,,2015_Nov_03_1335,P1,PLC_L_D1S1,NHG,60.0215099415,
stim/negf.jpg,stim/posf.jpg,stim/3.jpg,stim/6.jpg,stim/latef.jpg,EF,1,2,,,,,,,,,,,,,0,37,37,46,,,,,,4,0,0.383202935294,,,,,,2015_Nov_03_1335,P1,PLC_L_D1S1,NHG,60.0215099415,
stim/posf.jpg,stim/negf.jpg,stim/6.jpg,stim/3.jpg,stim/latef.jpg,EF,2,4,,,,,,,,,,,,,0,38,38,50,,,,,,4,1,1.18295289996,,,,,,2015_Nov_03_1335,P1,PLC_L_D1S1,NHG,60.0215099415,
stim/posf.jpg,stim/negf.jpg,stim/4.jpg,stim/5.jpg,stim/latef.jpg,AB,2,4,,,,,,,,,,,,,0,39,39,13,,,,,,2,0,0.399859987068,,,,,,2015_Nov_03_1335,P1,PLC_L_D1S1,NHG,60.0215099415,
stim/posf.jpg,stim/negf.jpg,stim/4.jpg,stim/5.jpg,stim/latef.jpg,AB,2,4,,,,,,,,,,,,,0,40,40,16,,,,,,4,1,0.283220483903,,,,,,2015_Nov_03_1335,P1,PLC_L_D1S1,NHG,60.0215099415,
stim/posf.jpg,stim/negf.jpg,stim/2.jpg,stim/1.jpg,stim/latef.jpg,CD,2,4,,,,,,,,,,,,,0,41,41,34,,,,,,2,0,1.2662391543,,,,,,2015_Nov_03_1335,P1,PLC_L_D1S1,NHG,60.0215099415,
stim/posf.jpg,stim/negf.jpg,stim/4.jpg,stim/5.jpg,stim/latef.jpg,AB,2,4,,,,,,,,,,,,,0,42,42,17,,,,,,4,1,0.416572271094,,,,,,2015_Nov_03_1335,P1,PLC_L_D1S1,NHG,60.0215099415,
stim/posf.jpg,stim/negf.jpg,stim/6.jpg,stim/3.jpg,stim/latef.jpg,EF,2,4,,,,,,,,,,,,,0,43,43,55,,,,,,4,1,1.33289944813,,,,,,2015_Nov_03_1335,P1,PLC_L_D1S1,NHG,60.0215099415,
stim/posf.jpg,stim/negf.jpg,stim/2.jpg,stim/1.jpg,stim/latef.jpg,CD,2,4,,,,,,,,,,,,,0,44,44,30,,,,,,4,1,0.41652200418,,,,,,2015_Nov_03_1335,P1,PLC_L_D1S1,NHG,60.0215099415,
stim/posf.jpg,stim/negf.jpg,stim/1.jpg,stim/2.jpg,stim/latef.jpg,CD,1,2,,,,,,,,,,,,,0,45,45,22,,,,,,4,0,0.549806288627,,,,,,2015_Nov_03_1335,P1,PLC_L_D1S1,NHG,60.0215099415,
stim/posf.jpg,stim/negf.jpg,stim/5.jpg,stim/4.jpg,stim/latef.jpg,AB,1,2,,,,,,,,,,,,,0,46,46,0,,,,,,4,0,0.316556340506,,,,,,2015_Nov_03_1335,P1,PLC_L_D1S1,NHG,60.0215099415,
stim/posf.jpg,stim/negf.jpg,stim/4.jpg,stim/5.jpg,stim/latef.jpg,AB,2,4,,,,,,,,,,,,,0,47,47,10,,,,,,4,1,1.31621904633,,,,,,2015_Nov_03_1335,P1,PLC_L_D1S1,NHG,60.0215099415,
stim/posf.jpg,stim/negf.jpg,stim/1.jpg,stim/2.jpg,stim/latef.jpg,CD,1,2,,,,,,,,,,,,,0,48,48,21,,,,,,4,0,0.699764274222,,,,,,2015_Nov_03_1335,P1,PLC_L_D1S1,NHG,60.0215099415,
stim/posf.jpg,stim/negf.jpg,stim/5.jpg,stim/4.jpg,stim/latef.jpg,AB,1,2,,,,,,,,,,,,,0,49,49,7,,,,,,4,0,0.43318006045,,,,,,2015_Nov_03_1335,P1,PLC_L_D1S1,NHG,60.0215099415,
stim/negf.jpg,stim/posf.jpg,stim/3.jpg,stim/6.jpg,stim/latef.jpg,EF,1,2,,,,,,,,,,,,,0,50,50,49,,,,,,2,1,0.333227316883,,,,,,2015_Nov_03_1335,P1,PLC_L_D1S1,NHG,60.0215099415,
stim/posf.jpg,stim/negf.jpg,stim/1.jpg,stim/2.jpg,stim/latef.jpg,CD,1,2,,,,,,,,,,,,,0,51,51,26,,,,,,4,0,0.566480759688,,,,,,2015_Nov_03_1335,P1,PLC_L_D1S1,NHG,60.0215099415,
stim/posf.jpg,stim/negf.jpg,stim/4.jpg,stim/5.jpg,stim/latef.jpg,AB,2,4,,,,,,,,,,,,,0,52,52,11,,,,,,2,0,0.316554599179,,,,,,2015_Nov_03_1335,P1,PLC_L_D1S1,NHG,60.0215099415,
stim/posf.jpg,stim/negf.jpg,stim/3.jpg,stim/6.jpg,stim/latef.jpg,EF,1,2,,,,,,,,,,,,,0,53,53,43,,,,,,2,1,0.483192348987,,,,,,2015_Nov_03_1335,P1,PLC_L_D1S1,NHG,60.0215099415,
stim/posf.jpg,stim/negf.jpg,stim/1.jpg,stim/2.jpg,stim/latef.jpg,CD,1,2,,,,,,,,,,,,,0,54,54,25,,,,,,4,0,0.549781224342,,,,,,2015_Nov_03_1335,P1,PLC_L_D1S1,NHG,60.0215099415,
stim/posf.jpg,stim/negf.jpg,stim/5.jpg,stim/4.jpg,stim/latef.jpg,AB,1,2,,,,,,,,,,,,,0,55,55,2,,,,,,2,1,1.54943348521,,,,,,2015_Nov_03_1335,P1,PLC_L_D1S1,NHG,60.0215099415,
stim/negf.jpg,stim/posf.jpg,stim/4.jpg,stim/5.jpg,stim/latef.jpg,AB,2,4,,,,,,,,,,,,,0,56,56,18,,,,,,2,0,0.433226471782,,,,,,2015_Nov_03_1335,P1,PLC_L_D1S1,NHG,60.0215099415,
stim/negf.jpg,stim/posf.jpg,stim/6.jpg,stim/3.jpg,stim/latef.jpg,EF,2,4,,,,,,,,,,,,,0,57,57,57,,,,,,2,0,0.499819623765,,,,,,2015_Nov_03_1335,P1,PLC_L_D1S1,NHG,60.0215099415,
stim/posf.jpg,stim/negf.jpg,stim/1.jpg,stim/2.jpg,stim/latef.jpg,CD,1,2,,,,,,,,,,,,,0,58,58,24,,,,,,2,1,0.599803602954,,,,,,2015_Nov_03_1335,P1,PLC_L_D1S1,NHG,60.0215099415,
stim/posf.jpg,stim/negf.jpg,stim/4.jpg,stim/5.jpg,stim/latef.jpg,AB,2,4,,,,,,,,,,,,,0,59,59,15,,,,,,4,1,0.549826823657,,,,,,2015_Nov_03_1335,P1,PLC_L_D1S1,NHG,60.0215099415,
