fb_corr,fb_incorr,symbol2,symbol1,fb_late,pair,position,correct,block_01.thisRepN,block_01.thisTrialN,block_01.thisN,block_01.thisIndex,block_02.thisRepN,block_02.thisTrialN,block_02.thisN,block_02.thisIndex,block_03.thisRepN,block_03.thisTrialN,block_03.thisN,block_03.thisIndex,block_04.thisRepN,block_04.thisTrialN,block_04.thisN,block_04.thisIndex,mouse.x,mouse.y,mouse.leftButton,mouse.midButton,mouse.rightButton,buttonBox_2.keys,buttonBox_2.corr,buttonBox_2.rt,mouse_2.x,mouse_2.y,mouse_2.leftButton,mouse_2.midButton,mouse_2.rightButton,date,Participant,expName,Group,frameRate,
,,,,,,,,,,,,,,,,,,,,,,,,0.996875,1.0,1,0,0,,,,,,,,,2015_Nov_03_1507,P2,PLC_L_D1S1,NHG,60.0249729016,
stim/posf.jpg,stim/negf.jpg,stim/1.jpg,stim/2.jpg,stim/latef.jpg,CD,1,2,0,0,0,23,,,,,,,,,,,,,,,,,,2,1,0.816412862965,,,,,,2015_Nov_03_1507,P2,PLC_L_D1S1,NHG,60.0249729016,
stim/negf.jpg,stim/posf.jpg,stim/1.jpg,stim/2.jpg,stim/latef.jpg,CD,1,2,0,1,1,28,,,,,,,,,,,,,,,,,,2,1,0.949633837085,,,,,,2015_Nov_03_1507,P2,PLC_L_D1S1,NHG,60.0249729016,
stim/negf.jpg,stim/posf.jpg,stim/3.jpg,stim/4.jpg,stim/latef.jpg,AB,2,4,0,2,2,18,,,,,,,,,,,,,,,,,,4,1,0.999633512279,,,,,,2015_Nov_03_1507,P2,PLC_L_D1S1,NHG,60.0249729016,
stim/posf.jpg,stim/negf.jpg,stim/6.jpg,stim/5.jpg,stim/latef.jpg,EF,1,2,0,3,3,43,,,,,,,,,,,,,,,,,,4,0,0.949685929534,,,,,,2015_Nov_03_1507,P2,PLC_L_D1S1,NHG,60.0249729016,
stim/negf.jpg,stim/posf.jpg,stim/6.jpg,stim/5.jpg,stim/latef.jpg,EF,1,2,0,4,4,47,,,,,,,,,,,,,,,,,,2,1,1.26628451001,,,,,,2015_Nov_03_1507,P2,PLC_L_D1S1,NHG,60.0249729016,
stim/negf.jpg,stim/posf.jpg,stim/3.jpg,stim/4.jpg,stim/latef.jpg,AB,2,4,0,5,5,19,,,,,,,,,,,,,,,,,,2,0,1.31617930557,,,,,,2015_Nov_03_1507,P2,PLC_L_D1S1,NHG,60.0249729016,
stim/negf.jpg,stim/posf.jpg,stim/5.jpg,stim/6.jpg,stim/latef.jpg,EF,2,4,0,6,6,57,,,,,,,,,,,,,,,,,,4,1,1.3828727177,,,,,,2015_Nov_03_1507,P2,PLC_L_D1S1,NHG,60.0249729016,
stim/negf.jpg,stim/posf.jpg,stim/5.jpg,stim/6.jpg,stim/latef.jpg,EF,2,4,0,7,7,59,,,,,,,,,,,,,,,,,,2,0,0.999663544909,,,,,,2015_Nov_03_1507,P2,PLC_L_D1S1,NHG,60.0249729016,
stim/posf.jpg,stim/negf.jpg,stim/2.jpg,stim/1.jpg,stim/latef.jpg,CD,2,4,0,8,8,33,,,,,,,,,,,,,,,,,,4,1,1.13297801838,,,,,,2015_Nov_03_1507,P2,PLC_L_D1S1,NHG,60.0249729016,
stim/posf.jpg,stim/negf.jpg,stim/1.jpg,stim/2.jpg,stim/latef.jpg,CD,1,2,0,9,9,26,,,,,,,,,,,,,,,,,,2,1,1.28286703057,,,,,,2015_Nov_03_1507,P2,PLC_L_D1S1,NHG,60.0249729016,
stim/negf.jpg,stim/posf.jpg,stim/1.jpg,stim/2.jpg,stim/latef.jpg,CD,1,2,0,10,10,29,,,,,,,,,,,,,,,,,,2,1,1.33287192373,,,,,,2015_Nov_03_1507,P2,PLC_L_D1S1,NHG,60.0249729016,
stim/posf.jpg,stim/negf.jpg,stim/1.jpg,stim/2.jpg,stim/latef.jpg,CD,1,2,0,11,11,24,,,,,,,,,,,,,,,,,,4,0,1.34956066525,,,,,,2015_Nov_03_1507,P2,PLC_L_D1S1,NHG,60.0249729016,
stim/negf.jpg,stim/posf.jpg,stim/5.jpg,stim/6.jpg,stim/latef.jpg,EF,2,4,0,12,12,58,,,,,,,,,,,,,,,,,,4,1,1.29956417497,,,,,,2015_Nov_03_1507,P2,PLC_L_D1S1,NHG,60.0249729016,
stim/posf.jpg,stim/negf.jpg,stim/6.jpg,stim/5.jpg,stim/latef.jpg,EF,1,2,0,13,13,44,,,,,,,,,,,,,,,,,,4,0,1.24953999188,,,,,,2015_Nov_03_1507,P2,PLC_L_D1S1,NHG,60.0249729016,
stim/negf.jpg,stim/posf.jpg,stim/6.jpg,stim/5.jpg,stim/latef.jpg,EF,1,2,0,14,14,48,,,,,,,,,,,,,,,,,,2,1,1.18293040706,,,,,,2015_Nov_03_1507,P2,PLC_L_D1S1,NHG,60.0249729016,
stim/posf.jpg,stim/negf.jpg,stim/4.jpg,stim/3.jpg,stim/latef.jpg,AB,1,2,0,15,15,1,,,,,,,,,,,,,,,,,,2,1,1.39957712516,,,,,,2015_Nov_03_1507,P2,PLC_L_D1S1,NHG,60.0249729016,
stim/posf.jpg,stim/negf.jpg,stim/3.jpg,stim/4.jpg,stim/latef.jpg,AB,2,4,0,16,16,16,,,,,,,,,,,,,,,,,,4,1,1.24951737568,,,,,,2015_Nov_03_1507,P2,PLC_L_D1S1,NHG,60.0249729016,
stim/posf.jpg,stim/negf.jpg,stim/4.jpg,stim/3.jpg,stim/latef.jpg,AB,1,2,0,17,17,3,,,,,,,,,,,,,,,,,,2,1,1.24954289108,,,,,,2015_Nov_03_1507,P2,PLC_L_D1S1,NHG,60.0249729016,
stim/negf.jpg,stim/posf.jpg,stim/4.jpg,stim/3.jpg,stim/latef.jpg,AB,1,2,0,18,18,9,,,,,,,,,,,,,,,,,,2,1,0.966306380355,,,,,,2015_Nov_03_1507,P2,PLC_L_D1S1,NHG,60.0249729016,
stim/posf.jpg,stim/negf.jpg,stim/1.jpg,stim/2.jpg,stim/latef.jpg,CD,1,2,0,19,19,21,,,,,,,,,,,,,,,,,,2,1,1.14962299514,,,,,,2015_Nov_03_1507,P2,PLC_L_D1S1,NHG,60.0249729016,
stim/posf.jpg,stim/negf.jpg,stim/3.jpg,stim/4.jpg,stim/latef.jpg,AB,2,4,0,20,20,15,,,,,,,,,,,,,,,,,,4,1,1.1163100615,,,,,,2015_Nov_03_1507,P2,PLC_L_D1S1,NHG,60.0249729016,
stim/posf.jpg,stim/negf.jpg,stim/4.jpg,stim/3.jpg,stim/latef.jpg,AB,1,2,0,21,21,6,,,,,,,,,,,,,,,,,,2,1,1.13290043458,,,,,,2015_Nov_03_1507,P2,PLC_L_D1S1,NHG,60.0249729016,
stim/posf.jpg,stim/negf.jpg,stim/5.jpg,stim/6.jpg,stim/latef.jpg,EF,2,4,0,22,22,51,,,,,,,,,,,,,,,,,,2,0,1.61610340897,,,,,,2015_Nov_03_1507,P2,PLC_L_D1S1,NHG,60.0249729016,
stim/posf.jpg,stim/negf.jpg,stim/2.jpg,stim/1.jpg,stim/latef.jpg,CD,2,4,0,23,23,35,,,,,,,,,,,,,,,,,,4,1,0.982986773131,,,,,,2015_Nov_03_1507,P2,PLC_L_D1S1,NHG,60.0249729016,
stim/posf.jpg,stim/negf.jpg,stim/5.jpg,stim/6.jpg,stim/latef.jpg,EF,2,4,0,24,24,50,,,,,,,,,,,,,,,,,,4,1,1.3329013699,,,,,,2015_Nov_03_1507,P2,PLC_L_D1S1,NHG,60.0249729016,
stim/posf.jpg,stim/negf.jpg,stim/6.jpg,stim/5.jpg,stim/latef.jpg,EF,1,2,0,25,25,42,,,,,,,,,,,,,,,,,,2,1,1.23291280733,,,,,,2015_Nov_03_1507,P2,PLC_L_D1S1,NHG,60.0249729016,
stim/posf.jpg,stim/negf.jpg,stim/5.jpg,stim/6.jpg,stim/latef.jpg,EF,2,4,0,26,26,53,,,,,,,,,,,,,,,,,,4,1,1.19960863446,,,,,,2015_Nov_03_1507,P2,PLC_L_D1S1,NHG,60.0249729016,
stim/posf.jpg,stim/negf.jpg,stim/6.jpg,stim/5.jpg,stim/latef.jpg,EF,1,2,0,27,27,41,,,,,,,,,,,,,,,,,,2,1,0.866373326717,,,,,,2015_Nov_03_1507,P2,PLC_L_D1S1,NHG,60.0249729016,
stim/posf.jpg,stim/negf.jpg,stim/6.jpg,stim/5.jpg,stim/latef.jpg,EF,1,2,0,28,28,45,,,,,,,,,,,,,,,,,,2,1,0.933021771101,,,,,,2015_Nov_03_1507,P2,PLC_L_D1S1,NHG,60.0249729016,
stim/posf.jpg,stim/negf.jpg,stim/4.jpg,stim/3.jpg,stim/latef.jpg,AB,1,2,0,29,29,7,,,,,,,,,,,,,,,,,,2,1,1.38284231816,,,,,,2015_Nov_03_1507,P2,PLC_L_D1S1,NHG,60.0249729016,
stim/posf.jpg,stim/negf.jpg,stim/5.jpg,stim/6.jpg,stim/latef.jpg,EF,2,4,0,30,30,55,,,,,,,,,,,,,,,,,,4,1,1.04965853145,,,,,,2015_Nov_03_1507,P2,PLC_L_D1S1,NHG,60.0249729016,
stim/posf.jpg,stim/negf.jpg,stim/4.jpg,stim/3.jpg,stim/latef.jpg,AB,1,2,0,31,31,4,,,,,,,,,,,,,,,,,,2,1,1.2829218929,,,,,,2015_Nov_03_1507,P2,PLC_L_D1S1,NHG,60.0249729016,
stim/negf.jpg,stim/posf.jpg,stim/5.jpg,stim/6.jpg,stim/latef.jpg,EF,2,4,0,32,32,56,,,,,,,,,,,,,,,,,,4,1,1.26624364746,,,,,,2015_Nov_03_1507,P2,PLC_L_D1S1,NHG,60.0249729016,
stim/posf.jpg,stim/negf.jpg,stim/3.jpg,stim/4.jpg,stim/latef.jpg,AB,2,4,0,33,33,11,,,,,,,,,,,,,,,,,,4,1,1.16625306988,,,,,,2015_Nov_03_1507,P2,PLC_L_D1S1,NHG,60.0249729016,
stim/negf.jpg,stim/posf.jpg,stim/4.jpg,stim/3.jpg,stim/latef.jpg,AB,1,2,0,34,34,8,,,,,,,,,,,,,,,,,,4,0,1.63277461692,,,,,,2015_Nov_03_1507,P2,PLC_L_D1S1,NHG,60.0249729016,
stim/negf.jpg,stim/posf.jpg,stim/2.jpg,stim/1.jpg,stim/latef.jpg,CD,2,4,0,35,35,39,,,,,,,,,,,,,,,,,,4,1,0.966417813266,,,,,,2015_Nov_03_1507,P2,PLC_L_D1S1,NHG,60.0249729016,
stim/posf.jpg,stim/negf.jpg,stim/2.jpg,stim/1.jpg,stim/latef.jpg,CD,2,4,0,36,36,34,,,,,,,,,,,,,,,,,,4,1,0.916359131441,,,,,,2015_Nov_03_1507,P2,PLC_L_D1S1,NHG,60.0249729016,
stim/posf.jpg,stim/negf.jpg,stim/1.jpg,stim/2.jpg,stim/latef.jpg,CD,1,2,0,37,37,25,,,,,,,,,,,,,,,,,,2,1,0.966366171939,,,,,,2015_Nov_03_1507,P2,PLC_L_D1S1,NHG,60.0249729016,
stim/posf.jpg,stim/negf.jpg,stim/2.jpg,stim/1.jpg,stim/latef.jpg,CD,2,4,0,38,38,32,,,,,,,,,,,,,,,,,,4,1,0.883031271711,,,,,,2015_Nov_03_1507,P2,PLC_L_D1S1,NHG,60.0249729016,
stim/posf.jpg,stim/negf.jpg,stim/3.jpg,stim/4.jpg,stim/latef.jpg,AB,2,4,0,39,39,14,,,,,,,,,,,,,,,,,,4,1,1.28292478609,,,,,,2015_Nov_03_1507,P2,PLC_L_D1S1,NHG,60.0249729016,
stim/posf.jpg,stim/negf.jpg,stim/1.jpg,stim/2.jpg,stim/latef.jpg,CD,1,2,0,40,40,20,,,,,,,,,,,,,,,,,,2,1,0.833082994241,,,,,,2015_Nov_03_1507,P2,PLC_L_D1S1,NHG,60.0249729016,
stim/posf.jpg,stim/negf.jpg,stim/3.jpg,stim/4.jpg,stim/latef.jpg,AB,2,4,0,41,41,12,,,,,,,,,,,,,,,,,,4,1,1.11630996226,,,,,,2015_Nov_03_1507,P2,PLC_L_D1S1,NHG,60.0249729016,
stim/negf.jpg,stim/posf.jpg,stim/6.jpg,stim/5.jpg,stim/latef.jpg,EF,1,2,0,42,42,49,,,,,,,,,,,,,,,,,,2,1,1.08294747748,,,,,,2015_Nov_03_1507,P2,PLC_L_D1S1,NHG,60.0249729016,
stim/negf.jpg,stim/posf.jpg,stim/2.jpg,stim/1.jpg,stim/latef.jpg,CD,2,4,0,43,43,37,,,,,,,,,,,,,,,,,,4,1,0.899741366296,,,,,,2015_Nov_03_1507,P2,PLC_L_D1S1,NHG,60.0249729016,
stim/posf.jpg,stim/negf.jpg,stim/1.jpg,stim/2.jpg,stim/latef.jpg,CD,1,2,0,44,44,22,,,,,,,,,,,,,,,,,,2,1,0.949691845237,,,,,,2015_Nov_03_1507,P2,PLC_L_D1S1,NHG,60.0249729016,
stim/posf.jpg,stim/negf.jpg,stim/2.jpg,stim/1.jpg,stim/latef.jpg,CD,2,4,0,45,45,31,,,,,,,,,,,,,,,,,,4,1,0.733032661165,,,,,,2015_Nov_03_1507,P2,PLC_L_D1S1,NHG,60.0249729016,
stim/posf.jpg,stim/negf.jpg,stim/6.jpg,stim/5.jpg,stim/latef.jpg,EF,1,2,0,46,46,40,,,,,,,,,,,,,,,,,,2,1,0.999666543361,,,,,,2015_Nov_03_1507,P2,PLC_L_D1S1,NHG,60.0249729016,
stim/negf.jpg,stim/posf.jpg,stim/6.jpg,stim/5.jpg,stim/latef.jpg,EF,1,2,0,47,47,46,,,,,,,,,,,,,,,,,,2,1,0.749749266928,,,,,,2015_Nov_03_1507,P2,PLC_L_D1S1,NHG,60.0249729016,
stim/posf.jpg,stim/negf.jpg,stim/4.jpg,stim/3.jpg,stim/latef.jpg,AB,1,2,0,48,48,0,,,,,,,,,,,,,,,,,,2,1,1.03304320837,,,,,,2015_Nov_03_1507,P2,PLC_L_D1S1,NHG,60.0249729016,
stim/posf.jpg,stim/negf.jpg,stim/5.jpg,stim/6.jpg,stim/latef.jpg,EF,2,4,0,49,49,52,,,,,,,,,,,,,,,,,,4,1,0.98295846679,,,,,,2015_Nov_03_1507,P2,PLC_L_D1S1,NHG,60.0249729016,
stim/posf.jpg,stim/negf.jpg,stim/2.jpg,stim/1.jpg,stim/latef.jpg,CD,2,4,0,50,50,36,,,,,,,,,,,,,,,,,,4,1,0.783167471165,,,,,,2015_Nov_03_1507,P2,PLC_L_D1S1,NHG,60.0249729016,
stim/posf.jpg,stim/negf.jpg,stim/4.jpg,stim/3.jpg,stim/latef.jpg,AB,1,2,0,51,51,2,,,,,,,,,,,,,,,,,,2,1,0.899679123622,,,,,,2015_Nov_03_1507,P2,PLC_L_D1S1,NHG,60.0249729016,
stim/negf.jpg,stim/posf.jpg,stim/2.jpg,stim/1.jpg,stim/latef.jpg,CD,2,4,0,52,52,38,,,,,,,,,,,,,,,,,,4,1,0.999660907355,,,,,,2015_Nov_03_1507,P2,PLC_L_D1S1,NHG,60.0249729016,
stim/posf.jpg,stim/negf.jpg,stim/3.jpg,stim/4.jpg,stim/latef.jpg,AB,2,4,0,53,53,13,,,,,,,,,,,,,,,,,,4,1,1.34955608788,,,,,,2015_Nov_03_1507,P2,PLC_L_D1S1,NHG,60.0249729016,
stim/posf.jpg,stim/negf.jpg,stim/3.jpg,stim/4.jpg,stim/latef.jpg,AB,2,4,0,54,54,10,,,,,,,,,,,,,,,,,,4,1,0.933033912272,,,,,,2015_Nov_03_1507,P2,PLC_L_D1S1,NHG,60.0249729016,
stim/negf.jpg,stim/posf.jpg,stim/1.jpg,stim/2.jpg,stim/latef.jpg,CD,1,2,0,55,55,27,,,,,,,,,,,,,,,,,,2,1,0.749736930271,,,,,,2015_Nov_03_1507,P2,PLC_L_D1S1,NHG,60.0249729016,
stim/posf.jpg,stim/negf.jpg,stim/4.jpg,stim/3.jpg,stim/latef.jpg,AB,1,2,0,56,56,5,,,,,,,,,,,,,,,,,,2,1,1.26625651945,,,,,,2015_Nov_03_1507,P2,PLC_L_D1S1,NHG,60.0249729016,
stim/posf.jpg,stim/negf.jpg,stim/5.jpg,stim/6.jpg,stim/latef.jpg,EF,2,4,0,57,57,54,,,,,,,,,,,,,,,,,,4,1,1.03297699584,,,,,,2015_Nov_03_1507,P2,PLC_L_D1S1,NHG,60.0249729016,
stim/posf.jpg,stim/negf.jpg,stim/2.jpg,stim/1.jpg,stim/latef.jpg,CD,2,4,0,58,58,30,,,,,,,,,,,,,,,,,,4,1,0.833046017353,,,,,,2015_Nov_03_1507,P2,PLC_L_D1S1,NHG,60.0249729016,
stim/posf.jpg,stim/negf.jpg,stim/3.jpg,stim/4.jpg,stim/latef.jpg,AB,2,4,0,59,59,17,,,,,,,,,,,,,,,,,,4,1,1.29961726891,,,,,,2015_Nov_03_1507,P2,PLC_L_D1S1,NHG,60.0249729016,
,,,,,,,,,,,,,,,,,,,,,,,,,,,,,,,,0.99375,1.0,1,0,0,2015_Nov_03_1507,P2,PLC_L_D1S1,NHG,60.0249729016,
stim/negf.jpg,stim/posf.jpg,stim/6.jpg,stim/5.jpg,stim/latef.jpg,EF,1,2,,,,,0,0,0,47,,,,,,,,,,,,,,2,1,1.19958192809,,,,,,2015_Nov_03_1507,P2,PLC_L_D1S1,NHG,60.0249729016,
stim/negf.jpg,stim/posf.jpg,stim/3.jpg,stim/4.jpg,stim/latef.jpg,AB,2,4,,,,,0,1,1,19,,,,,,,,,,,,,,4,1,0.933025359018,,,,,,2015_Nov_03_1507,P2,PLC_L_D1S1,NHG,60.0249729016,
stim/posf.jpg,stim/negf.jpg,stim/4.jpg,stim/3.jpg,stim/latef.jpg,AB,1,2,,,,,0,2,2,1,,,,,,,,,,,,,,2,1,1.09960356987,,,,,,2015_Nov_03_1507,P2,PLC_L_D1S1,NHG,60.0249729016,
stim/negf.jpg,stim/posf.jpg,stim/5.jpg,stim/6.jpg,stim/latef.jpg,EF,2,4,,,,,0,3,3,59,,,,,,,,,,,,,,4,1,0.949679111593,,,,,,2015_Nov_03_1507,P2,PLC_L_D1S1,NHG,60.0249729016,
stim/posf.jpg,stim/negf.jpg,stim/1.jpg,stim/2.jpg,stim/latef.jpg,CD,1,2,,,,,0,4,4,24,,,,,,,,,,,,,,2,1,0.83307954166,,,,,,2015_Nov_03_1507,P2,PLC_L_D1S1,NHG,60.0249729016,
stim/negf.jpg,stim/posf.jpg,stim/2.jpg,stim/1.jpg,stim/latef.jpg,CD,2,4,,,,,0,5,5,39,,,,,,,,,,,,,,4,1,0.716422234253,,,,,,2015_Nov_03_1507,P2,PLC_L_D1S1,NHG,60.0249729016,
stim/negf.jpg,stim/posf.jpg,stim/6.jpg,stim/5.jpg,stim/latef.jpg,EF,1,2,,,,,0,6,6,46,,,,,,,,,,,,,,2,1,1.29955846679,,,,,,2015_Nov_03_1507,P2,PLC_L_D1S1,NHG,60.0249729016,
stim/posf.jpg,stim/negf.jpg,stim/4.jpg,stim/3.jpg,stim/latef.jpg,AB,1,2,,,,,0,7,7,7,,,,,,,,,,,,,,2,1,0.8497132795,,,,,,2015_Nov_03_1507,P2,PLC_L_D1S1,NHG,60.0249729016,
stim/posf.jpg,stim/negf.jpg,stim/4.jpg,stim/3.jpg,stim/latef.jpg,AB,1,2,,,,,0,8,8,5,,,,,,,,,,,,,,2,1,0.899698642126,,,,,,2015_Nov_03_1507,P2,PLC_L_D1S1,NHG,60.0249729016,
stim/posf.jpg,stim/negf.jpg,stim/2.jpg,stim/1.jpg,stim/latef.jpg,CD,2,4,,,,,0,9,9,32,,,,,,,,,,,,,,4,1,0.849707860032,,,,,,2015_Nov_03_1507,P2,PLC_L_D1S1,NHG,60.0249729016,
stim/posf.jpg,stim/negf.jpg,stim/5.jpg,stim/6.jpg,stim/latef.jpg,EF,2,4,,,,,0,10,10,51,,,,,,,,,,,,,,4,1,1.14958238523,,,,,,2015_Nov_03_1507,P2,PLC_L_D1S1,NHG,60.0249729016,
stim/negf.jpg,stim/posf.jpg,stim/6.jpg,stim/5.jpg,stim/latef.jpg,EF,1,2,,,,,0,11,11,49,,,,,,,,,,,,,,2,1,0.866383362656,,,,,,2015_Nov_03_1507,P2,PLC_L_D1S1,NHG,60.0249729016,
stim/negf.jpg,stim/posf.jpg,stim/2.jpg,stim/1.jpg,stim/latef.jpg,CD,2,4,,,,,0,12,12,38,,,,,,,,,,,,,,4,1,0.733071725237,,,,,,2015_Nov_03_1507,P2,PLC_L_D1S1,NHG,60.0249729016,
stim/posf.jpg,stim/negf.jpg,stim/3.jpg,stim/4.jpg,stim/latef.jpg,AB,2,4,,,,,0,13,13,11,,,,,,,,,,,,,,4,1,1.28292465978,,,,,,2015_Nov_03_1507,P2,PLC_L_D1S1,NHG,60.0249729016,
stim/posf.jpg,stim/negf.jpg,stim/3.jpg,stim/4.jpg,stim/latef.jpg,AB,2,4,,,,,0,14,14,13,,,,,,,,,,,,,,4,1,1.16620019849,,,,,,2015_Nov_03_1507,P2,PLC_L_D1S1,NHG,60.0249729016,
stim/posf.jpg,stim/negf.jpg,stim/1.jpg,stim/2.jpg,stim/latef.jpg,CD,1,2,,,,,0,15,15,25,,,,,,,,,,,,,,2,1,0.766373819943,,,,,,2015_Nov_03_1507,P2,PLC_L_D1S1,NHG,60.0249729016,
stim/posf.jpg,stim/negf.jpg,stim/6.jpg,stim/5.jpg,stim/latef.jpg,EF,1,2,,,,,0,16,16,40,,,,,,,,,,,,,,2,1,1.16631091863,,,,,,2015_Nov_03_1507,P2,PLC_L_D1S1,NHG,60.0249729016,
stim/posf.jpg,stim/negf.jpg,stim/3.jpg,stim/4.jpg,stim/latef.jpg,AB,2,4,,,,,0,17,17,16,,,,,,,,,,,,,,4,1,1.04965179772,,,,,,2015_Nov_03_1507,P2,PLC_L_D1S1,NHG,60.0249729016,
stim/posf.jpg,stim/negf.jpg,stim/5.jpg,stim/6.jpg,stim/latef.jpg,EF,2,4,,,,,0,18,18,50,,,,,,,,,,,,,,4,1,1.43279662562,,,,,,2015_Nov_03_1507,P2,PLC_L_D1S1,NHG,60.0249729016,
stim/posf.jpg,stim/negf.jpg,stim/2.jpg,stim/1.jpg,stim/latef.jpg,CD,2,4,,,,,0,19,19,33,,,,,,,,,,,,,,4,1,0.883030817582,,,,,,2015_Nov_03_1507,P2,PLC_L_D1S1,NHG,60.0249729016,
stim/posf.jpg,stim/negf.jpg,stim/4.jpg,stim/3.jpg,stim/latef.jpg,AB,1,2,,,,,0,20,20,2,,,,,,,,,,,,,,2,1,0.849706930723,,,,,,2015_Nov_03_1507,P2,PLC_L_D1S1,NHG,60.0249729016,
stim/negf.jpg,stim/posf.jpg,stim/1.jpg,stim/2.jpg,stim/latef.jpg,CD,1,2,,,,,0,21,21,27,,,,,,,,,,,,,,2,1,0.666391882829,,,,,,2015_Nov_03_1507,P2,PLC_L_D1S1,NHG,60.0249729016,
stim/posf.jpg,stim/negf.jpg,stim/1.jpg,stim/2.jpg,stim/latef.jpg,CD,1,2,,,,,0,22,22,26,,,,,,,,,,,,,,2,1,0.849766523812,,,,,,2015_Nov_03_1507,P2,PLC_L_D1S1,NHG,60.0249729016,
stim/negf.jpg,stim/posf.jpg,stim/2.jpg,stim/1.jpg,stim/latef.jpg,CD,2,4,,,,,0,23,23,37,,,,,,,,,,,,,,2,0,1.11630576382,,,,,,2015_Nov_03_1507,P2,PLC_L_D1S1,NHG,60.0249729016,
stim/negf.jpg,stim/posf.jpg,stim/1.jpg,stim/2.jpg,stim/latef.jpg,CD,1,2,,,,,0,24,24,29,,,,,,,,,,,,,,2,1,1.1829307439,,,,,,2015_Nov_03_1507,P2,PLC_L_D1S1,NHG,60.0249729016,
stim/posf.jpg,stim/negf.jpg,stim/2.jpg,stim/1.jpg,stim/latef.jpg,CD,2,4,,,,,0,25,25,30,,,,,,,,,,,,,,4,1,1.34958753402,,,,,,2015_Nov_03_1507,P2,PLC_L_D1S1,NHG,60.0249729016,
stim/negf.jpg,stim/posf.jpg,stim/5.jpg,stim/6.jpg,stim/latef.jpg,EF,2,4,,,,,0,26,26,56,,,,,,,,,,,,,,2,0,1.49944983985,,,,,,2015_Nov_03_1507,P2,PLC_L_D1S1,NHG,60.0249729016,
stim/posf.jpg,stim/negf.jpg,stim/2.jpg,stim/1.jpg,stim/latef.jpg,CD,2,4,,,,,0,27,27,36,,,,,,,,,,,,,,4,1,0.899702539811,,,,,,2015_Nov_03_1507,P2,PLC_L_D1S1,NHG,60.0249729016,
stim/posf.jpg,stim/negf.jpg,stim/2.jpg,stim/1.jpg,stim/latef.jpg,CD,2,4,,,,,0,28,28,35,,,,,,,,,,,,,,2,0,0.849706990872,,,,,,2015_Nov_03_1507,P2,PLC_L_D1S1,NHG,60.0249729016,
stim/posf.jpg,stim/negf.jpg,stim/5.jpg,stim/6.jpg,stim/latef.jpg,EF,2,4,,,,,0,29,29,53,,,,,,,,,,,,,,4,1,1.23292101773,,,,,,2015_Nov_03_1507,P2,PLC_L_D1S1,NHG,60.0249729016,
stim/negf.jpg,stim/posf.jpg,stim/1.jpg,stim/2.jpg,stim/latef.jpg,CD,1,2,,,,,0,30,30,28,,,,,,,,,,,,,,2,1,0.766416499,,,,,,2015_Nov_03_1507,P2,PLC_L_D1S1,NHG,60.0249729016,
stim/posf.jpg,stim/negf.jpg,stim/4.jpg,stim/3.jpg,stim/latef.jpg,AB,1,2,,,,,0,31,31,3,,,,,,,,,,,,,,2,1,0.899686016752,,,,,,2015_Nov_03_1507,P2,PLC_L_D1S1,NHG,60.0249729016,
stim/posf.jpg,stim/negf.jpg,stim/1.jpg,stim/2.jpg,stim/latef.jpg,CD,1,2,,,,,0,32,32,22,,,,,,,,,,,,,,2,1,0.833052360116,,,,,,2015_Nov_03_1507,P2,PLC_L_D1S1,NHG,60.0249729016,
stim/posf.jpg,stim/negf.jpg,stim/5.jpg,stim/6.jpg,stim/latef.jpg,EF,2,4,,,,,0,33,33,52,,,,,,,,,,,,,,4,1,1.13296357047,,,,,,2015_Nov_03_1507,P2,PLC_L_D1S1,NHG,60.0249729016,
stim/posf.jpg,stim/negf.jpg,stim/1.jpg,stim/2.jpg,stim/latef.jpg,CD,1,2,,,,,0,34,34,20,,,,,,,,,,,,,,2,1,0.766405729237,,,,,,2015_Nov_03_1507,P2,PLC_L_D1S1,NHG,60.0249729016,
stim/posf.jpg,stim/negf.jpg,stim/6.jpg,stim/5.jpg,stim/latef.jpg,EF,1,2,,,,,0,35,35,41,,,,,,,,,,,,,,None,0,,,,,,,2015_Nov_03_1507,P2,PLC_L_D1S1,NHG,60.0249729016,
stim/negf.jpg,stim/posf.jpg,stim/4.jpg,stim/3.jpg,stim/latef.jpg,AB,1,2,,,,,0,36,36,9,,,,,,,,,,,,,,2,1,0.783025100374,,,,,,2015_Nov_03_1507,P2,PLC_L_D1S1,NHG,60.0249729016,
stim/posf.jpg,stim/negf.jpg,stim/6.jpg,stim/5.jpg,stim/latef.jpg,EF,1,2,,,,,0,37,37,45,,,,,,,,,,,,,,2,1,1.04967378536,,,,,,2015_Nov_03_1507,P2,PLC_L_D1S1,NHG,60.0249729016,
stim/posf.jpg,stim/negf.jpg,stim/1.jpg,stim/2.jpg,stim/latef.jpg,CD,1,2,,,,,0,38,38,23,,,,,,,,,,,,,,2,1,0.783063938889,,,,,,2015_Nov_03_1507,P2,PLC_L_D1S1,NHG,60.0249729016,
stim/posf.jpg,stim/negf.jpg,stim/3.jpg,stim/4.jpg,stim/latef.jpg,AB,2,4,,,,,0,39,39,17,,,,,,,,,,,,,,4,1,0.899696004572,,,,,,2015_Nov_03_1507,P2,PLC_L_D1S1,NHG,60.0249729016,
stim/posf.jpg,stim/negf.jpg,stim/3.jpg,stim/4.jpg,stim/latef.jpg,AB,2,4,,,,,0,40,40,14,,,,,,,,,,,,,,4,1,0.949667583945,,,,,,2015_Nov_03_1507,P2,PLC_L_D1S1,NHG,60.0249729016,
stim/posf.jpg,stim/negf.jpg,stim/6.jpg,stim/5.jpg,stim/latef.jpg,EF,1,2,,,,,0,41,41,42,,,,,,,,,,,,,,2,1,0.699744235426,,,,,,2015_Nov_03_1507,P2,PLC_L_D1S1,NHG,60.0249729016,
stim/posf.jpg,stim/negf.jpg,stim/2.jpg,stim/1.jpg,stim/latef.jpg,CD,2,4,,,,,0,42,42,34,,,,,,,,,,,,,,4,1,0.683019277905,,,,,,2015_Nov_03_1507,P2,PLC_L_D1S1,NHG,60.0249729016,
stim/posf.jpg,stim/negf.jpg,stim/3.jpg,stim/4.jpg,stim/latef.jpg,AB,2,4,,,,,0,43,43,12,,,,,,,,,,,,,,4,1,0.932997458684,,,,,,2015_Nov_03_1507,P2,PLC_L_D1S1,NHG,60.0249729016,
stim/posf.jpg,stim/negf.jpg,stim/2.jpg,stim/1.jpg,stim/latef.jpg,CD,2,4,,,,,0,44,44,31,,,,,,,,,,,,,,4,1,0.899698837613,,,,,,2015_Nov_03_1507,P2,PLC_L_D1S1,NHG,60.0249729016,
stim/negf.jpg,stim/posf.jpg,stim/4.jpg,stim/3.jpg,stim/latef.jpg,AB,1,2,,,,,0,45,45,8,,,,,,,,,,,,,,2,1,0.982988415211,,,,,,2015_Nov_03_1507,P2,PLC_L_D1S1,NHG,60.0249729016,
stim/negf.jpg,stim/posf.jpg,stim/3.jpg,stim/4.jpg,stim/latef.jpg,AB,2,4,,,,,0,46,46,18,,,,,,,,,,,,,,4,1,0.982986457348,,,,,,2015_Nov_03_1507,P2,PLC_L_D1S1,NHG,60.0249729016,
stim/negf.jpg,stim/posf.jpg,stim/6.jpg,stim/5.jpg,stim/latef.jpg,EF,1,2,,,,,0,47,47,48,,,,,,,,,,,,,,2,1,1.16627521691,,,,,,2015_Nov_03_1507,P2,PLC_L_D1S1,NHG,60.0249729016,
stim/posf.jpg,stim/negf.jpg,stim/3.jpg,stim/4.jpg,stim/latef.jpg,AB,2,4,,,,,0,48,48,15,,,,,,,,,,,,,,4,1,0.833061307349,,,,,,2015_Nov_03_1507,P2,PLC_L_D1S1,NHG,60.0249729016,
stim/posf.jpg,stim/negf.jpg,stim/5.jpg,stim/6.jpg,stim/latef.jpg,EF,2,4,,,,,0,49,49,54,,,,,,,,,,,,,,4,1,1.01627618231,,,,,,2015_Nov_03_1507,P2,PLC_L_D1S1,NHG,60.0249729016,
stim/negf.jpg,stim/posf.jpg,stim/5.jpg,stim/6.jpg,stim/latef.jpg,EF,2,4,,,,,0,50,50,58,,,,,,,,,,,,,,4,1,0.76641654712,,,,,,2015_Nov_03_1507,P2,PLC_L_D1S1,NHG,60.0249729016,
stim/posf.jpg,stim/negf.jpg,stim/3.jpg,stim/4.jpg,stim/latef.jpg,AB,2,4,,,,,0,51,51,10,,,,,,,,,,,,,,4,1,0.98299638201,,,,,,2015_Nov_03_1507,P2,PLC_L_D1S1,NHG,60.0249729016,
stim/negf.jpg,stim/posf.jpg,stim/5.jpg,stim/6.jpg,stim/latef.jpg,EF,2,4,,,,,0,52,52,57,,,,,,,,,,,,,,4,1,0.616463156945,,,,,,2015_Nov_03_1507,P2,PLC_L_D1S1,NHG,60.0249729016,
stim/posf.jpg,stim/negf.jpg,stim/5.jpg,stim/6.jpg,stim/latef.jpg,EF,2,4,,,,,0,53,53,55,,,,,,,,,,,,,,4,1,0.982994884287,,,,,,2015_Nov_03_1507,P2,PLC_L_D1S1,NHG,60.0249729016,
stim/posf.jpg,stim/negf.jpg,stim/1.jpg,stim/2.jpg,stim/latef.jpg,CD,1,2,,,,,0,54,54,21,,,,,,,,,,,,,,2,1,0.783065370446,,,,,,2015_Nov_03_1507,P2,PLC_L_D1S1,NHG,60.0249729016,
stim/posf.jpg,stim/negf.jpg,stim/4.jpg,stim/3.jpg,stim/latef.jpg,AB,1,2,,,,,0,55,55,0,,,,,,,,,,,,,,2,1,1.18293778139,,,,,,2015_Nov_03_1507,P2,PLC_L_D1S1,NHG,60.0249729016,
stim/posf.jpg,stim/negf.jpg,stim/4.jpg,stim/3.jpg,stim/latef.jpg,AB,1,2,,,,,0,56,56,6,,,,,,,,,,,,,,2,1,0.932998706787,,,,,,2015_Nov_03_1507,P2,PLC_L_D1S1,NHG,60.0249729016,
stim/posf.jpg,stim/negf.jpg,stim/6.jpg,stim/5.jpg,stim/latef.jpg,EF,1,2,,,,,0,57,57,44,,,,,,,,,,,,,,2,1,0.566482143126,,,,,,2015_Nov_03_1507,P2,PLC_L_D1S1,NHG,60.0249729016,
stim/posf.jpg,stim/negf.jpg,stim/6.jpg,stim/5.jpg,stim/latef.jpg,EF,1,2,,,,,0,58,58,43,,,,,,,,,,,,,,2,1,0.683111688546,,,,,,2015_Nov_03_1507,P2,PLC_L_D1S1,NHG,60.0249729016,
stim/posf.jpg,stim/negf.jpg,stim/4.jpg,stim/3.jpg,stim/latef.jpg,AB,1,2,,,,,0,59,59,4,,,,,,,,,,,,,,2,1,1.09962544623,,,,,,2015_Nov_03_1507,P2,PLC_L_D1S1,NHG,60.0249729016,
,,,,,,,,,,,,,,,,,,,,,,,,,,,,,,,,0.9984375,1.0,1,0,0,2015_Nov_03_1507,P2,PLC_L_D1S1,NHG,60.0249729016,
stim/negf.jpg,stim/posf.jpg,stim/6.jpg,stim/5.jpg,stim/latef.jpg,EF,1,2,,,,,,,,,0,0,0,46,,,,,,,,,,2,1,0.833043797838,,,,,,2015_Nov_03_1507,P2,PLC_L_D1S1,NHG,60.0249729016,
stim/posf.jpg,stim/negf.jpg,stim/3.jpg,stim/4.jpg,stim/latef.jpg,AB,2,4,,,,,,,,,0,1,1,14,,,,,,,,,,4,1,0.866372800408,,,,,,2015_Nov_03_1507,P2,PLC_L_D1S1,NHG,60.0249729016,
stim/posf.jpg,stim/negf.jpg,stim/3.jpg,stim/4.jpg,stim/latef.jpg,AB,2,4,,,,,,,,,0,2,2,10,,,,,,,,,,4,1,0.816387497933,,,,,,2015_Nov_03_1507,P2,PLC_L_D1S1,NHG,60.0249729016,
stim/posf.jpg,stim/negf.jpg,stim/6.jpg,stim/5.jpg,stim/latef.jpg,EF,1,2,,,,,,,,,0,3,3,41,,,,,,,,,,4,0,0.766367092225,,,,,,2015_Nov_03_1507,P2,PLC_L_D1S1,NHG,60.0249729016,
stim/posf.jpg,stim/negf.jpg,stim/5.jpg,stim/6.jpg,stim/latef.jpg,EF,2,4,,,,,,,,,0,4,4,53,,,,,,,,,,4,1,0.583153618743,,,,,,2015_Nov_03_1507,P2,PLC_L_D1S1,NHG,60.0249729016,
stim/negf.jpg,stim/posf.jpg,stim/6.jpg,stim/5.jpg,stim/latef.jpg,EF,1,2,,,,,,,,,0,5,5,49,,,,,,,,,,2,1,0.649823130479,,,,,,2015_Nov_03_1507,P2,PLC_L_D1S1,NHG,60.0249729016,
stim/negf.jpg,stim/posf.jpg,stim/2.jpg,stim/1.jpg,stim/latef.jpg,CD,2,4,,,,,,,,,0,6,6,37,,,,,,,,,,4,1,0.616381723583,,,,,,2015_Nov_03_1507,P2,PLC_L_D1S1,NHG,60.0249729016,
stim/posf.jpg,stim/negf.jpg,stim/4.jpg,stim/3.jpg,stim/latef.jpg,AB,1,2,,,,,,,,,0,7,7,5,,,,,,,,,,2,1,1.23292407934,,,,,,2015_Nov_03_1507,P2,PLC_L_D1S1,NHG,60.0249729016,
stim/posf.jpg,stim/negf.jpg,stim/5.jpg,stim/6.jpg,stim/latef.jpg,EF,2,4,,,,,,,,,0,8,8,50,,,,,,,,,,4,1,0.616453927008,,,,,,2015_Nov_03_1507,P2,PLC_L_D1S1,NHG,60.0249729016,
stim/posf.jpg,stim/negf.jpg,stim/1.jpg,stim/2.jpg,stim/latef.jpg,CD,1,2,,,,,,,,,0,9,9,22,,,,,,,,,,2,1,0.64981322687,,,,,,2015_Nov_03_1507,P2,PLC_L_D1S1,NHG,60.0249729016,
stim/posf.jpg,stim/negf.jpg,stim/6.jpg,stim/5.jpg,stim/latef.jpg,EF,1,2,,,,,,,,,0,10,10,45,,,,,,,,,,2,1,0.766410917129,,,,,,2015_Nov_03_1507,P2,PLC_L_D1S1,NHG,60.0249729016,
stim/posf.jpg,stim/negf.jpg,stim/6.jpg,stim/5.jpg,stim/latef.jpg,EF,1,2,,,,,,,,,0,11,11,42,,,,,,,,,,2,1,0.599804291664,,,,,,2015_Nov_03_1507,P2,PLC_L_D1S1,NHG,60.0249729016,
stim/posf.jpg,stim/negf.jpg,stim/6.jpg,stim/5.jpg,stim/latef.jpg,EF,1,2,,,,,,,,,0,12,12,44,,,,,,,,,,2,1,0.53313942046,,,,,,2015_Nov_03_1507,P2,PLC_L_D1S1,NHG,60.0249729016,
stim/posf.jpg,stim/negf.jpg,stim/6.jpg,stim/5.jpg,stim/latef.jpg,EF,1,2,,,,,,,,,0,13,13,43,,,,,,,,,,4,0,0.69969248282,,,,,,2015_Nov_03_1507,P2,PLC_L_D1S1,NHG,60.0249729016,
stim/posf.jpg,stim/negf.jpg,stim/3.jpg,stim/4.jpg,stim/latef.jpg,AB,2,4,,,,,,,,,0,14,14,11,,,,,,,,,,4,1,0.849747633871,,,,,,2015_Nov_03_1507,P2,PLC_L_D1S1,NHG,60.0249729016,
stim/posf.jpg,stim/negf.jpg,stim/1.jpg,stim/2.jpg,stim/latef.jpg,CD,1,2,,,,,,,,,0,15,15,25,,,,,,,,,,2,1,0.58307511466,,,,,,2015_Nov_03_1507,P2,PLC_L_D1S1,NHG,60.0249729016,
stim/posf.jpg,stim/negf.jpg,stim/4.jpg,stim/3.jpg,stim/latef.jpg,AB,1,2,,,,,,,,,0,16,16,3,,,,,,,,,,2,1,0.849701715764,,,,,,2015_Nov_03_1507,P2,PLC_L_D1S1,NHG,60.0249729016,
stim/posf.jpg,stim/negf.jpg,stim/2.jpg,stim/1.jpg,stim/latef.jpg,CD,2,4,,,,,,,,,0,17,17,36,,,,,,,,,,4,1,0.766407034482,,,,,,2015_Nov_03_1507,P2,PLC_L_D1S1,NHG,60.0249729016,
stim/negf.jpg,stim/posf.jpg,stim/1.jpg,stim/2.jpg,stim/latef.jpg,CD,1,2,,,,,,,,,0,18,18,29,,,,,,,,,,2,1,0.599759576548,,,,,,2015_Nov_03_1507,P2,PLC_L_D1S1,NHG,60.0249729016,
stim/negf.jpg,stim/posf.jpg,stim/4.jpg,stim/3.jpg,stim/latef.jpg,AB,1,2,,,,,,,,,0,19,19,9,,,,,,,,,,2,1,0.949655093909,,,,,,2015_Nov_03_1507,P2,PLC_L_D1S1,NHG,60.0249729016,
stim/posf.jpg,stim/negf.jpg,stim/1.jpg,stim/2.jpg,stim/latef.jpg,CD,1,2,,,,,,,,,0,20,20,20,,,,,,,,,,2,1,0.63309641058,,,,,,2015_Nov_03_1507,P2,PLC_L_D1S1,NHG,60.0249729016,
stim/negf.jpg,stim/posf.jpg,stim/5.jpg,stim/6.jpg,stim/latef.jpg,EF,2,4,,,,,,,,,0,21,21,58,,,,,,,,,,4,1,1.21626539751,,,,,,2015_Nov_03_1507,P2,PLC_L_D1S1,NHG,60.0249729016,
stim/posf.jpg,stim/negf.jpg,stim/1.jpg,stim/2.jpg,stim/latef.jpg,CD,1,2,,,,,,,,,0,22,22,23,,,,,,,,,,2,1,0.633120467362,,,,,,2015_Nov_03_1507,P2,PLC_L_D1S1,NHG,60.0249729016,
stim/negf.jpg,stim/posf.jpg,stim/2.jpg,stim/1.jpg,stim/latef.jpg,CD,2,4,,,,,,,,,0,23,23,39,,,,,,,,,,4,1,0.683100870663,,,,,,2015_Nov_03_1507,P2,PLC_L_D1S1,NHG,60.0249729016,
stim/posf.jpg,stim/negf.jpg,stim/5.jpg,stim/6.jpg,stim/latef.jpg,EF,2,4,,,,,,,,,0,24,24,51,,,,,,,,,,4,1,0.766397200043,,,,,,2015_Nov_03_1507,P2,PLC_L_D1S1,NHG,60.0249729016,
stim/negf.jpg,stim/posf.jpg,stim/5.jpg,stim/6.jpg,stim/latef.jpg,EF,2,4,,,,,,,,,0,25,25,57,,,,,,,,,,4,1,0.716432691237,,,,,,2015_Nov_03_1507,P2,PLC_L_D1S1,NHG,60.0249729016,
stim/posf.jpg,stim/negf.jpg,stim/4.jpg,stim/3.jpg,stim/latef.jpg,AB,1,2,,,,,,,,,0,26,26,2,,,,,,,,,,2,1,0.699762132901,,,,,,2015_Nov_03_1507,P2,PLC_L_D1S1,NHG,60.0249729016,
stim/posf.jpg,stim/negf.jpg,stim/3.jpg,stim/4.jpg,stim/latef.jpg,AB,2,4,,,,,,,,,0,27,27,15,,,,,,,,,,2,0,0.766399073698,,,,,,2015_Nov_03_1507,P2,PLC_L_D1S1,NHG,60.0249729016,
stim/negf.jpg,stim/posf.jpg,stim/6.jpg,stim/5.jpg,stim/latef.jpg,EF,1,2,,,,,,,,,0,28,28,48,,,,,,,,,,2,1,0.93298439422,,,,,,2015_Nov_03_1507,P2,PLC_L_D1S1,NHG,60.0249729016,
stim/posf.jpg,stim/negf.jpg,stim/2.jpg,stim/1.jpg,stim/latef.jpg,CD,2,4,,,,,,,,,0,29,29,35,,,,,,,,,,4,1,0.716392412143,,,,,,2015_Nov_03_1507,P2,PLC_L_D1S1,NHG,60.0249729016,
stim/posf.jpg,stim/negf.jpg,stim/4.jpg,stim/3.jpg,stim/latef.jpg,AB,1,2,,,,,,,,,0,30,30,7,,,,,,,,,,2,1,1.04969549029,,,,,,2015_Nov_03_1507,P2,PLC_L_D1S1,NHG,60.0249729016,
stim/posf.jpg,stim/negf.jpg,stim/3.jpg,stim/4.jpg,stim/latef.jpg,AB,2,4,,,,,,,,,0,31,31,12,,,,,,,,,,4,1,0.88302894994,,,,,,2015_Nov_03_1507,P2,PLC_L_D1S1,NHG,60.0249729016,
stim/posf.jpg,stim/negf.jpg,stim/4.jpg,stim/3.jpg,stim/latef.jpg,AB,1,2,,,,,,,,,0,32,32,6,,,,,,,,,,2,1,0.83305821266,,,,,,2015_Nov_03_1507,P2,PLC_L_D1S1,NHG,60.0249729016,
stim/negf.jpg,stim/posf.jpg,stim/1.jpg,stim/2.jpg,stim/latef.jpg,CD,1,2,,,,,,,,,0,33,33,28,,,,,,,,,,2,1,0.866361287801,,,,,,2015_Nov_03_1507,P2,PLC_L_D1S1,NHG,60.0249729016,
stim/posf.jpg,stim/negf.jpg,stim/2.jpg,stim/1.jpg,stim/latef.jpg,CD,2,4,,,,,,,,,0,34,34,32,,,,,,,,,,4,1,0.76640828559,,,,,,2015_Nov_03_1507,P2,PLC_L_D1S1,NHG,60.0249729016,
stim/posf.jpg,stim/negf.jpg,stim/4.jpg,stim/3.jpg,stim/latef.jpg,AB,1,2,,,,,,,,,0,35,35,0,,,,,,,,,,2,1,0.849662405077,,,,,,2015_Nov_03_1507,P2,PLC_L_D1S1,NHG,60.0249729016,
stim/posf.jpg,stim/negf.jpg,stim/2.jpg,stim/1.jpg,stim/latef.jpg,CD,2,4,,,,,,,,,0,36,36,30,,,,,,,,,,4,1,0.799716055399,,,,,,2015_Nov_03_1507,P2,PLC_L_D1S1,NHG,60.0249729016,
stim/posf.jpg,stim/negf.jpg,stim/2.jpg,stim/1.jpg,stim/latef.jpg,CD,2,4,,,,,,,,,0,37,37,34,,,,,,,,,,4,1,0.666433590473,,,,,,2015_Nov_03_1507,P2,PLC_L_D1S1,NHG,60.0249729016,
stim/negf.jpg,stim/posf.jpg,stim/2.jpg,stim/1.jpg,stim/latef.jpg,CD,2,4,,,,,,,,,0,38,38,38,,,,,,,,,,4,1,0.883018104991,,,,,,2015_Nov_03_1507,P2,PLC_L_D1S1,NHG,60.0249729016,
stim/posf.jpg,stim/negf.jpg,stim/4.jpg,stim/3.jpg,stim/latef.jpg,AB,1,2,,,,,,,,,0,39,39,4,,,,,,,,,,2,1,1.46617012677,,,,,,2015_Nov_03_1507,P2,PLC_L_D1S1,NHG,60.0249729016,
stim/posf.jpg,stim/negf.jpg,stim/2.jpg,stim/1.jpg,stim/latef.jpg,CD,2,4,,,,,,,,,0,40,40,33,,,,,,,,,,4,1,0.799728695809,,,,,,2015_Nov_03_1507,P2,PLC_L_D1S1,NHG,60.0249729016,
stim/posf.jpg,stim/negf.jpg,stim/3.jpg,stim/4.jpg,stim/latef.jpg,AB,2,4,,,,,,,,,0,41,41,16,,,,,,,,,,4,1,0.933023413181,,,,,,2015_Nov_03_1507,P2,PLC_L_D1S1,NHG,60.0249729016,
stim/negf.jpg,stim/posf.jpg,stim/5.jpg,stim/6.jpg,stim/latef.jpg,EF,2,4,,,,,,,,,0,42,42,59,,,,,,,,,,4,1,0.949677430415,,,,,,2015_Nov_03_1507,P2,PLC_L_D1S1,NHG,60.0249729016,
stim/negf.jpg,stim/posf.jpg,stim/3.jpg,stim/4.jpg,stim/latef.jpg,AB,2,4,,,,,,,,,0,43,43,18,,,,,,,,,,4,1,0.983017936571,,,,,,2015_Nov_03_1507,P2,PLC_L_D1S1,NHG,60.0249729016,
stim/posf.jpg,stim/negf.jpg,stim/1.jpg,stim/2.jpg,stim/latef.jpg,CD,1,2,,,,,,,,,0,44,44,26,,,,,,,,,,2,1,0.766401933806,,,,,,2015_Nov_03_1507,P2,PLC_L_D1S1,NHG,60.0249729016,
stim/posf.jpg,stim/negf.jpg,stim/5.jpg,stim/6.jpg,stim/latef.jpg,EF,2,4,,,,,,,,,0,45,45,52,,,,,,,,,,2,0,1.11629127983,,,,,,2015_Nov_03_1507,P2,PLC_L_D1S1,NHG,60.0249729016,
stim/posf.jpg,stim/negf.jpg,stim/5.jpg,stim/6.jpg,stim/latef.jpg,EF,2,4,,,,,,,,,0,46,46,54,,,,,,,,,,4,1,0.59978934452,,,,,,2015_Nov_03_1507,P2,PLC_L_D1S1,NHG,60.0249729016,
stim/posf.jpg,stim/negf.jpg,stim/5.jpg,stim/6.jpg,stim/latef.jpg,EF,2,4,,,,,,,,,0,47,47,55,,,,,,,,,,4,1,0.549821362085,,,,,,2015_Nov_03_1507,P2,PLC_L_D1S1,NHG,60.0249729016,
stim/negf.jpg,stim/posf.jpg,stim/4.jpg,stim/3.jpg,stim/latef.jpg,AB,1,2,,,,,,,,,0,48,48,8,,,,,,,,,,2,1,0.666391657269,,,,,,2015_Nov_03_1507,P2,PLC_L_D1S1,NHG,60.0249729016,
stim/negf.jpg,stim/posf.jpg,stim/6.jpg,stim/5.jpg,stim/latef.jpg,EF,1,2,,,,,,,,,0,49,49,47,,,,,,,,,,2,1,0.766402526277,,,,,,2015_Nov_03_1507,P2,PLC_L_D1S1,NHG,60.0249729016,
stim/posf.jpg,stim/negf.jpg,stim/4.jpg,stim/3.jpg,stim/latef.jpg,AB,1,2,,,,,,,,,0,50,50,1,,,,,,,,,,2,1,1.01631765838,,,,,,2015_Nov_03_1507,P2,PLC_L_D1S1,NHG,60.0249729016,
stim/posf.jpg,stim/negf.jpg,stim/1.jpg,stim/2.jpg,stim/latef.jpg,CD,1,2,,,,,,,,,0,51,51,24,,,,,,,,,,2,1,0.716420222252,,,,,,2015_Nov_03_1507,P2,PLC_L_D1S1,NHG,60.0249729016,
stim/posf.jpg,stim/negf.jpg,stim/6.jpg,stim/5.jpg,stim/latef.jpg,EF,1,2,,,,,,,,,0,52,52,40,,,,,,,,,,2,1,0.666445109096,,,,,,2015_Nov_03_1507,P2,PLC_L_D1S1,NHG,60.0249729016,
stim/negf.jpg,stim/posf.jpg,stim/1.jpg,stim/2.jpg,stim/latef.jpg,CD,1,2,,,,,,,,,0,53,53,27,,,,,,,,,,2,1,0.649779013849,,,,,,2015_Nov_03_1507,P2,PLC_L_D1S1,NHG,60.0249729016,
stim/posf.jpg,stim/negf.jpg,stim/2.jpg,stim/1.jpg,stim/latef.jpg,CD,2,4,,,,,,,,,0,54,54,31,,,,,,,,,,4,1,0.899692368537,,,,,,2015_Nov_03_1507,P2,PLC_L_D1S1,NHG,60.0249729016,
stim/posf.jpg,stim/negf.jpg,stim/1.jpg,stim/2.jpg,stim/latef.jpg,CD,1,2,,,,,,,,,0,55,55,21,,,,,,,,,,2,1,0.799681508548,,,,,,2015_Nov_03_1507,P2,PLC_L_D1S1,NHG,60.0249729016,
stim/negf.jpg,stim/posf.jpg,stim/3.jpg,stim/4.jpg,stim/latef.jpg,AB,2,4,,,,,,,,,0,56,56,19,,,,,,,,,,4,1,0.999675051504,,,,,,2015_Nov_03_1507,P2,PLC_L_D1S1,NHG,60.0249729016,
stim/posf.jpg,stim/negf.jpg,stim/3.jpg,stim/4.jpg,stim/latef.jpg,AB,2,4,,,,,,,,,0,57,57,13,,,,,,,,,,4,1,0.8330445467,,,,,,2015_Nov_03_1507,P2,PLC_L_D1S1,NHG,60.0249729016,
stim/negf.jpg,stim/posf.jpg,stim/5.jpg,stim/6.jpg,stim/latef.jpg,EF,2,4,,,,,,,,,0,58,58,56,,,,,,,,,,4,1,0.883027307858,,,,,,2015_Nov_03_1507,P2,PLC_L_D1S1,NHG,60.0249729016,
stim/posf.jpg,stim/negf.jpg,stim/3.jpg,stim/4.jpg,stim/latef.jpg,AB,2,4,,,,,,,,,0,59,59,17,,,,,,,,,,4,1,1.06630804048,,,,,,2015_Nov_03_1507,P2,PLC_L_D1S1,NHG,60.0249729016,
,,,,,,,,,,,,,,,,,,,,,,,,,,,,,,,,0.9984375,1.0,1,0,0,2015_Nov_03_1507,P2,PLC_L_D1S1,NHG,60.0249729016,
stim/posf.jpg,stim/negf.jpg,stim/5.jpg,stim/6.jpg,stim/latef.jpg,EF,2,4,,,,,,,,,,,,,0,0,0,55,,,,,,2,0,1.23290716831,,,,,,2015_Nov_03_1507,P2,PLC_L_D1S1,NHG,60.0249729016,
stim/posf.jpg,stim/negf.jpg,stim/5.jpg,stim/6.jpg,stim/latef.jpg,EF,2,4,,,,,,,,,,,,,0,1,1,50,,,,,,4,1,0.533166920797,,,,,,2015_Nov_03_1507,P2,PLC_L_D1S1,NHG,60.0249729016,
stim/posf.jpg,stim/negf.jpg,stim/6.jpg,stim/5.jpg,stim/latef.jpg,EF,1,2,,,,,,,,,,,,,0,2,2,44,,,,,,2,1,0.716426029683,,,,,,2015_Nov_03_1507,P2,PLC_L_D1S1,NHG,60.0249729016,
stim/posf.jpg,stim/negf.jpg,stim/2.jpg,stim/1.jpg,stim/latef.jpg,CD,2,4,,,,,,,,,,,,,0,3,3,30,,,,,,4,1,0.666450417288,,,,,,2015_Nov_03_1507,P2,PLC_L_D1S1,NHG,60.0249729016,
stim/negf.jpg,stim/posf.jpg,stim/1.jpg,stim/2.jpg,stim/latef.jpg,CD,1,2,,,,,,,,,,,,,0,4,4,28,,,,,,2,1,0.599799669177,,,,,,2015_Nov_03_1507,P2,PLC_L_D1S1,NHG,60.0249729016,
stim/negf.jpg,stim/posf.jpg,stim/2.jpg,stim/1.jpg,stim/latef.jpg,CD,2,4,,,,,,,,,,,,,0,5,5,39,,,,,,4,1,0.783122999654,,,,,,2015_Nov_03_1507,P2,PLC_L_D1S1,NHG,60.0249729016,
stim/posf.jpg,stim/negf.jpg,stim/3.jpg,stim/4.jpg,stim/latef.jpg,AB,2,4,,,,,,,,,,,,,0,6,6,12,,,,,,4,1,0.99965965023,,,,,,2015_Nov_03_1507,P2,PLC_L_D1S1,NHG,60.0249729016,
stim/posf.jpg,stim/negf.jpg,stim/5.jpg,stim/6.jpg,stim/latef.jpg,EF,2,4,,,,,,,,,,,,,0,7,7,53,,,,,,4,1,0.916358698365,,,,,,2015_Nov_03_1507,P2,PLC_L_D1S1,NHG,60.0249729016,
stim/negf.jpg,stim/posf.jpg,stim/1.jpg,stim/2.jpg,stim/latef.jpg,CD,1,2,,,,,,,,,,,,,0,8,8,29,,,,,,4,0,0.816408493105,,,,,,2015_Nov_03_1507,P2,PLC_L_D1S1,NHG,60.0249729016,
stim/negf.jpg,stim/posf.jpg,stim/5.jpg,stim/6.jpg,stim/latef.jpg,EF,2,4,,,,,,,,,,,,,0,9,9,56,,,,,,4,1,0.849708759266,,,,,,2015_Nov_03_1507,P2,PLC_L_D1S1,NHG,60.0249729016,
stim/posf.jpg,stim/negf.jpg,stim/2.jpg,stim/1.jpg,stim/latef.jpg,CD,2,4,,,,,,,,,,,,,0,10,10,36,,,,,,2,0,0.683106332235,,,,,,2015_Nov_03_1507,P2,PLC_L_D1S1,NHG,60.0249729016,
stim/posf.jpg,stim/negf.jpg,stim/6.jpg,stim/5.jpg,stim/latef.jpg,EF,1,2,,,,,,,,,,,,,0,11,11,41,,,,,,2,1,0.883027377031,,,,,,2015_Nov_03_1507,P2,PLC_L_D1S1,NHG,60.0249729016,
stim/posf.jpg,stim/negf.jpg,stim/4.jpg,stim/3.jpg,stim/latef.jpg,AB,1,2,,,,,,,,,,,,,0,12,12,5,,,,,,2,1,0.866339988872,,,,,,2015_Nov_03_1507,P2,PLC_L_D1S1,NHG,60.0249729016,
stim/posf.jpg,stim/negf.jpg,stim/3.jpg,stim/4.jpg,stim/latef.jpg,AB,2,4,,,,,,,,,,,,,0,13,13,17,,,,,,4,1,1.03298617765,,,,,,2015_Nov_03_1507,P2,PLC_L_D1S1,NHG,60.0249729016,
stim/posf.jpg,stim/negf.jpg,stim/1.jpg,stim/2.jpg,stim/latef.jpg,CD,1,2,,,,,,,,,,,,,0,14,14,25,,,,,,2,1,0.833053253333,,,,,,2015_Nov_03_1507,P2,PLC_L_D1S1,NHG,60.0249729016,
stim/posf.jpg,stim/negf.jpg,stim/2.jpg,stim/1.jpg,stim/latef.jpg,CD,2,4,,,,,,,,,,,,,0,15,15,33,,,,,,4,1,0.749713084015,,,,,,2015_Nov_03_1507,P2,PLC_L_D1S1,NHG,60.0249729016,
stim/posf.jpg,stim/negf.jpg,stim/6.jpg,stim/5.jpg,stim/latef.jpg,EF,1,2,,,,,,,,,,,,,0,16,16,42,,,,,,2,1,0.849720608712,,,,,,2015_Nov_03_1507,P2,PLC_L_D1S1,NHG,60.0249729016,
stim/posf.jpg,stim/negf.jpg,stim/3.jpg,stim/4.jpg,stim/latef.jpg,AB,2,4,,,,,,,,,,,,,0,17,17,14,,,,,,4,1,0.81637528759,,,,,,2015_Nov_03_1507,P2,PLC_L_D1S1,NHG,60.0249729016,
stim/negf.jpg,stim/posf.jpg,stim/6.jpg,stim/5.jpg,stim/latef.jpg,EF,1,2,,,,,,,,,,,,,0,18,18,48,,,,,,2,1,0.683107929202,,,,,,2015_Nov_03_1507,P2,PLC_L_D1S1,NHG,60.0249729016,
stim/posf.jpg,stim/negf.jpg,stim/5.jpg,stim/6.jpg,stim/latef.jpg,EF,2,4,,,,,,,,,,,,,0,19,19,51,,,,,,4,1,0.699741718168,,,,,,2015_Nov_03_1507,P2,PLC_L_D1S1,NHG,60.0249729016,
stim/negf.jpg,stim/posf.jpg,stim/3.jpg,stim/4.jpg,stim/latef.jpg,AB,2,4,,,,,,,,,,,,,0,20,20,18,,,,,,4,1,0.899717426806,,,,,,2015_Nov_03_1507,P2,PLC_L_D1S1,NHG,60.0249729016,
stim/posf.jpg,stim/negf.jpg,stim/6.jpg,stim/5.jpg,stim/latef.jpg,EF,1,2,,,,,,,,,,,,,0,21,21,43,,,,,,2,1,0.816427777027,,,,,,2015_Nov_03_1507,P2,PLC_L_D1S1,NHG,60.0249729016,
stim/negf.jpg,stim/posf.jpg,stim/6.jpg,stim/5.jpg,stim/latef.jpg,EF,1,2,,,,,,,,,,,,,0,22,22,49,,,,,,2,1,0.799695643675,,,,,,2015_Nov_03_1507,P2,PLC_L_D1S1,NHG,60.0249729016,
stim/posf.jpg,stim/negf.jpg,stim/4.jpg,stim/3.jpg,stim/latef.jpg,AB,1,2,,,,,,,,,,,,,0,23,23,3,,,,,,2,1,1.11630092179,,,,,,2015_Nov_03_1507,P2,PLC_L_D1S1,NHG,60.0249729016,
stim/negf.jpg,stim/posf.jpg,stim/6.jpg,stim/5.jpg,stim/latef.jpg,EF,1,2,,,,,,,,,,,,,0,24,24,47,,,,,,2,1,0.833041172313,,,,,,2015_Nov_03_1507,P2,PLC_L_D1S1,NHG,60.0249729016,
stim/posf.jpg,stim/negf.jpg,stim/4.jpg,stim/3.jpg,stim/latef.jpg,AB,1,2,,,,,,,,,,,,,0,25,25,6,,,,,,2,1,0.766449346627,,,,,,2015_Nov_03_1507,P2,PLC_L_D1S1,NHG,60.0249729016,
stim/posf.jpg,stim/negf.jpg,stim/1.jpg,stim/2.jpg,stim/latef.jpg,CD,1,2,,,,,,,,,,,,,0,26,26,24,,,,,,2,1,0.899670651568,,,,,,2015_Nov_03_1507,P2,PLC_L_D1S1,NHG,60.0249729016,
stim/negf.jpg,stim/posf.jpg,stim/5.jpg,stim/6.jpg,stim/latef.jpg,EF,2,4,,,,,,,,,,,,,0,27,27,58,,,,,,4,1,0.966329998044,,,,,,2015_Nov_03_1507,P2,PLC_L_D1S1,NHG,60.0249729016,
stim/posf.jpg,stim/negf.jpg,stim/3.jpg,stim/4.jpg,stim/latef.jpg,AB,2,4,,,,,,,,,,,,,0,28,28,10,,,,,,4,1,1.09961539826,,,,,,2015_Nov_03_1507,P2,PLC_L_D1S1,NHG,60.0249729016,
stim/posf.jpg,stim/negf.jpg,stim/4.jpg,stim/3.jpg,stim/latef.jpg,AB,1,2,,,,,,,,,,,,,0,29,29,1,,,,,,2,1,0.949674368807,,,,,,2015_Nov_03_1507,P2,PLC_L_D1S1,NHG,60.0249729016,
stim/posf.jpg,stim/negf.jpg,stim/2.jpg,stim/1.jpg,stim/latef.jpg,CD,2,4,,,,,,,,,,,,,0,30,30,32,,,,,,4,1,0.966304795416,,,,,,2015_Nov_03_1507,P2,PLC_L_D1S1,NHG,60.0249729016,
stim/posf.jpg,stim/negf.jpg,stim/3.jpg,stim/4.jpg,stim/latef.jpg,AB,2,4,,,,,,,,,,,,,0,31,31,16,,,,,,4,1,1.03297295379,,,,,,2015_Nov_03_1507,P2,PLC_L_D1S1,NHG,60.0249729016,
stim/posf.jpg,stim/negf.jpg,stim/1.jpg,stim/2.jpg,stim/latef.jpg,CD,1,2,,,,,,,,,,,,,0,32,32,26,,,,,,2,1,0.966372355302,,,,,,2015_Nov_03_1507,P2,PLC_L_D1S1,NHG,60.0249729016,
stim/posf.jpg,stim/negf.jpg,stim/6.jpg,stim/5.jpg,stim/latef.jpg,EF,1,2,,,,,,,,,,,,,0,33,33,40,,,,,,4,0,0.86638111908,,,,,,2015_Nov_03_1507,P2,PLC_L_D1S1,NHG,60.0249729016,
stim/negf.jpg,stim/posf.jpg,stim/2.jpg,stim/1.jpg,stim/latef.jpg,CD,2,4,,,,,,,,,,,,,0,34,34,37,,,,,,4,1,0.949634074677,,,,,,2015_Nov_03_1507,P2,PLC_L_D1S1,NHG,60.0249729016,
stim/negf.jpg,stim/posf.jpg,stim/1.jpg,stim/2.jpg,stim/latef.jpg,CD,1,2,,,,,,,,,,,,,0,35,35,27,,,,,,2,1,0.716411269002,,,,,,2015_Nov_03_1507,P2,PLC_L_D1S1,NHG,60.0249729016,
stim/posf.jpg,stim/negf.jpg,stim/1.jpg,stim/2.jpg,stim/latef.jpg,CD,1,2,,,,,,,,,,,,,0,36,36,22,,,,,,2,1,0.733084702486,,,,,,2015_Nov_03_1507,P2,PLC_L_D1S1,NHG,60.0249729016,
stim/posf.jpg,stim/negf.jpg,stim/2.jpg,stim/1.jpg,stim/latef.jpg,CD,2,4,,,,,,,,,,,,,0,37,37,34,,,,,,4,1,0.58318328747,,,,,,2015_Nov_03_1507,P2,PLC_L_D1S1,NHG,60.0249729016,
stim/posf.jpg,stim/negf.jpg,stim/2.jpg,stim/1.jpg,stim/latef.jpg,CD,2,4,,,,,,,,,,,,,0,38,38,31,,,,,,4,1,0.716415293004,,,,,,2015_Nov_03_1507,P2,PLC_L_D1S1,NHG,60.0249729016,
stim/posf.jpg,stim/negf.jpg,stim/3.jpg,stim/4.jpg,stim/latef.jpg,AB,2,4,,,,,,,,,,,,,0,39,39,11,,,,,,4,1,0.8996981489,,,,,,2015_Nov_03_1507,P2,PLC_L_D1S1,NHG,60.0249729016,
stim/posf.jpg,stim/negf.jpg,stim/1.jpg,stim/2.jpg,stim/latef.jpg,CD,1,2,,,,,,,,,,,,,0,40,40,23,,,,,,2,1,0.68308991143,,,,,,2015_Nov_03_1507,P2,PLC_L_D1S1,NHG,60.0249729016,
stim/negf.jpg,stim/posf.jpg,stim/5.jpg,stim/6.jpg,stim/latef.jpg,EF,2,4,,,,,,,,,,,,,0,41,41,57,,,,,,4,1,0.899653256343,,,,,,2015_Nov_03_1507,P2,PLC_L_D1S1,NHG,60.0249729016,
stim/posf.jpg,stim/negf.jpg,stim/3.jpg,stim/4.jpg,stim/latef.jpg,AB,2,4,,,,,,,,,,,,,0,42,42,15,,,,,,4,1,0.999713655434,,,,,,2015_Nov_03_1507,P2,PLC_L_D1S1,NHG,60.0249729016,
stim/negf.jpg,stim/posf.jpg,stim/5.jpg,stim/6.jpg,stim/latef.jpg,EF,2,4,,,,,,,,,,,,,0,43,43,59,,,,,,4,1,0.816372857551,,,,,,2015_Nov_03_1507,P2,PLC_L_D1S1,NHG,60.0249729016,
stim/posf.jpg,stim/negf.jpg,stim/2.jpg,stim/1.jpg,stim/latef.jpg,CD,2,4,,,,,,,,,,,,,0,44,44,35,,,,,,4,1,0.666421822227,,,,,,2015_Nov_03_1507,P2,PLC_L_D1S1,NHG,60.0249729016,
stim/posf.jpg,stim/negf.jpg,stim/1.jpg,stim/2.jpg,stim/latef.jpg,CD,1,2,,,,,,,,,,,,,0,45,45,21,,,,,,2,1,0.766432195003,,,,,,2015_Nov_03_1507,P2,PLC_L_D1S1,NHG,60.0249729016,
stim/posf.jpg,stim/negf.jpg,stim/6.jpg,stim/5.jpg,stim/latef.jpg,EF,1,2,,,,,,,,,,,,,0,46,46,45,,,,,,4,0,0.899693129428,,,,,,2015_Nov_03_1507,P2,PLC_L_D1S1,NHG,60.0249729016,
stim/posf.jpg,stim/negf.jpg,stim/4.jpg,stim/3.jpg,stim/latef.jpg,AB,1,2,,,,,,,,,,,,,0,47,47,7,,,,,,2,1,0.716433849115,,,,,,2015_Nov_03_1507,P2,PLC_L_D1S1,NHG,60.0249729016,
stim/negf.jpg,stim/posf.jpg,stim/3.jpg,stim/4.jpg,stim/latef.jpg,AB,2,4,,,,,,,,,,,,,0,48,48,19,,,,,,4,1,0.899681198778,,,,,,2015_Nov_03_1507,P2,PLC_L_D1S1,NHG,60.0249729016,
stim/posf.jpg,stim/negf.jpg,stim/4.jpg,stim/3.jpg,stim/latef.jpg,AB,1,2,,,,,,,,,,,,,0,49,49,4,,,,,,2,1,0.683084094977,,,,,,2015_Nov_03_1507,P2,PLC_L_D1S1,NHG,60.0249729016,
stim/posf.jpg,stim/negf.jpg,stim/5.jpg,stim/6.jpg,stim/latef.jpg,EF,2,4,,,,,,,,,,,,,0,50,50,54,,,,,,4,1,0.799721700425,,,,,,2015_Nov_03_1507,P2,PLC_L_D1S1,NHG,60.0249729016,
stim/negf.jpg,stim/posf.jpg,stim/4.jpg,stim/3.jpg,stim/latef.jpg,AB,1,2,,,,,,,,,,,,,0,51,51,9,,,,,,2,1,1.01631687644,,,,,,2015_Nov_03_1507,P2,PLC_L_D1S1,NHG,60.0249729016,
stim/posf.jpg,stim/negf.jpg,stim/4.jpg,stim/3.jpg,stim/latef.jpg,AB,1,2,,,,,,,,,,,,,0,52,52,2,,,,,,4,0,0.933024429707,,,,,,2015_Nov_03_1507,P2,PLC_L_D1S1,NHG,60.0249729016,
stim/negf.jpg,stim/posf.jpg,stim/2.jpg,stim/1.jpg,stim/latef.jpg,CD,2,4,,,,,,,,,,,,,0,53,53,38,,,,,,4,1,0.766412682517,,,,,,2015_Nov_03_1507,P2,PLC_L_D1S1,NHG,60.0249729016,
stim/posf.jpg,stim/negf.jpg,stim/1.jpg,stim/2.jpg,stim/latef.jpg,CD,1,2,,,,,,,,,,,,,0,54,54,20,,,,,,2,1,0.683063836634,,,,,,2015_Nov_03_1507,P2,PLC_L_D1S1,NHG,60.0249729016,
stim/negf.jpg,stim/posf.jpg,stim/6.jpg,stim/5.jpg,stim/latef.jpg,EF,1,2,,,,,,,,,,,,,0,55,55,46,,,,,,2,1,0.766356815686,,,,,,2015_Nov_03_1507,P2,PLC_L_D1S1,NHG,60.0249729016,
stim/posf.jpg,stim/negf.jpg,stim/4.jpg,stim/3.jpg,stim/latef.jpg,AB,1,2,,,,,,,,,,,,,0,56,56,0,,,,,,2,1,0.982972412445,,,,,,2015_Nov_03_1507,P2,PLC_L_D1S1,NHG,60.0249729016,
stim/posf.jpg,stim/negf.jpg,stim/5.jpg,stim/6.jpg,stim/latef.jpg,EF,2,4,,,,,,,,,,,,,0,57,57,52,,,,,,4,1,0.733119183171,,,,,,2015_Nov_03_1507,P2,PLC_L_D1S1,NHG,60.0249729016,
stim/posf.jpg,stim/negf.jpg,stim/3.jpg,stim/4.jpg,stim/latef.jpg,AB,2,4,,,,,,,,,,,,,0,58,58,13,,,,,,4,1,1.03297241245,,,,,,2015_Nov_03_1507,P2,PLC_L_D1S1,NHG,60.0249729016,
stim/negf.jpg,stim/posf.jpg,stim/4.jpg,stim/3.jpg,stim/latef.jpg,AB,1,2,,,,,,,,,,,,,0,59,59,8,,,,,,2,1,1.06630390821,,,,,,2015_Nov_03_1507,P2,PLC_L_D1S1,NHG,60.0249729016,
