fb_corr,fb_incorr,symbol2,symbol1,fb_late,pair,position,correct,block_01.thisRepN,block_01.thisTrialN,block_01.thisN,block_01.thisIndex,block_02.thisRepN,block_02.thisTrialN,block_02.thisN,block_02.thisIndex,block_03.thisRepN,block_03.thisTrialN,block_03.thisN,block_03.thisIndex,block_04.thisRepN,block_04.thisTrialN,block_04.thisN,block_04.thisIndex,mouse.x,mouse.y,mouse.leftButton,mouse.midButton,mouse.rightButton,buttonBox_2.keys,buttonBox_2.corr,buttonBox_2.rt,mouse_2.x,mouse_2.y,mouse_2.leftButton,mouse_2.midButton,mouse_2.rightButton,date,Participant,expName,Group,frameRate,
,,,,,,,,,,,,,,,,,,,,,,,,-0.403125,0.513671875,1,0,0,,,,,,,,,2015_Nov_10_1400,P3,PLC_L_D1S1,NHG,60.0156727895,
stim/negf.jpg,stim/posf.jpg,stim/4.jpg,stim/6.jpg,stim/latef.jpg,EF,2,4,0,0,0,56,,,,,,,,,,,,,,,,,,4,1,1.18301512759,,,,,,2015_Nov_10_1400,P3,PLC_L_D1S1,NHG,60.0156727895,
stim/negf.jpg,stim/posf.jpg,stim/4.jpg,stim/6.jpg,stim/latef.jpg,EF,2,4,0,1,1,59,,,,,,,,,,,,,,,,,,2,0,1.04969024827,,,,,,2015_Nov_10_1400,P3,PLC_L_D1S1,NHG,60.0156727895,
stim/posf.jpg,stim/negf.jpg,stim/3.jpg,stim/2.jpg,stim/latef.jpg,AB,1,2,0,2,2,3,,,,,,,,,,,,,,,,,,2,1,1.13294090916,,,,,,2015_Nov_10_1400,P3,PLC_L_D1S1,NHG,60.0156727895,
stim/posf.jpg,stim/negf.jpg,stim/1.jpg,stim/5.jpg,stim/latef.jpg,CD,2,4,0,3,3,33,,,,,,,,,,,,,,,,,,4,1,1.28287469361,,,,,,2015_Nov_10_1400,P3,PLC_L_D1S1,NHG,60.0156727895,
stim/posf.jpg,stim/negf.jpg,stim/6.jpg,stim/4.jpg,stim/latef.jpg,EF,1,2,0,4,4,41,,,,,,,,,,,,,,,,,,4,0,1.23291011865,,,,,,2015_Nov_10_1400,P3,PLC_L_D1S1,NHG,60.0156727895,
stim/posf.jpg,stim/negf.jpg,stim/2.jpg,stim/3.jpg,stim/latef.jpg,AB,2,4,0,5,5,15,,,,,,,,,,,,,,,,,,4,1,0.966269087683,,,,,,2015_Nov_10_1400,P3,PLC_L_D1S1,NHG,60.0156727895,
stim/posf.jpg,stim/negf.jpg,stim/1.jpg,stim/5.jpg,stim/latef.jpg,CD,2,4,0,6,6,32,,,,,,,,,,,,,,,,,,4,1,0.799706305168,,,,,,2015_Nov_10_1400,P3,PLC_L_D1S1,NHG,60.0156727895,
stim/posf.jpg,stim/negf.jpg,stim/5.jpg,stim/1.jpg,stim/latef.jpg,CD,1,2,0,7,7,22,,,,,,,,,,,,,,,,,,2,1,1.31623624006,,,,,,2015_Nov_10_1400,P3,PLC_L_D1S1,NHG,60.0156727895,
stim/negf.jpg,stim/posf.jpg,stim/1.jpg,stim/5.jpg,stim/latef.jpg,CD,2,4,0,8,8,39,,,,,,,,,,,,,,,,,,4,1,0.849711808845,,,,,,2015_Nov_10_1400,P3,PLC_L_D1S1,NHG,60.0156727895,
stim/posf.jpg,stim/negf.jpg,stim/6.jpg,stim/4.jpg,stim/latef.jpg,EF,1,2,0,9,9,40,,,,,,,,,,,,,,,,,,4,0,0.949694849702,,,,,,2015_Nov_10_1400,P3,PLC_L_D1S1,NHG,60.0156727895,
stim/posf.jpg,stim/negf.jpg,stim/4.jpg,stim/6.jpg,stim/latef.jpg,EF,2,4,0,10,10,55,,,,,,,,,,,,,,,,,,2,0,1.3162389949,,,,,,2015_Nov_10_1400,P3,PLC_L_D1S1,NHG,60.0156727895,
stim/posf.jpg,stim/negf.jpg,stim/1.jpg,stim/5.jpg,stim/latef.jpg,CD,2,4,0,11,11,35,,,,,,,,,,,,,,,,,,None,0,,,,,,,2015_Nov_10_1400,P3,PLC_L_D1S1,NHG,60.0156727895,
stim/posf.jpg,stim/negf.jpg,stim/5.jpg,stim/1.jpg,stim/latef.jpg,CD,1,2,0,12,12,20,,,,,,,,,,,,,,,,,,2,1,0.699774057533,,,,,,2015_Nov_10_1400,P3,PLC_L_D1S1,NHG,60.0156727895,
stim/posf.jpg,stim/negf.jpg,stim/5.jpg,stim/1.jpg,stim/latef.jpg,CD,1,2,0,13,13,21,,,,,,,,,,,,,,,,,,2,1,1.16625261876,,,,,,2015_Nov_10_1400,P3,PLC_L_D1S1,NHG,60.0156727895,
stim/posf.jpg,stim/negf.jpg,stim/3.jpg,stim/2.jpg,stim/latef.jpg,AB,1,2,0,14,14,2,,,,,,,,,,,,,,,,,,2,1,0.916321922979,,,,,,2015_Nov_10_1400,P3,PLC_L_D1S1,NHG,60.0156727895,
stim/posf.jpg,stim/negf.jpg,stim/4.jpg,stim/6.jpg,stim/latef.jpg,EF,2,4,0,15,15,50,,,,,,,,,,,,,,,,,,None,0,,,,,,,2015_Nov_10_1400,P3,PLC_L_D1S1,NHG,60.0156727895,
stim/posf.jpg,stim/negf.jpg,stim/2.jpg,stim/3.jpg,stim/latef.jpg,AB,2,4,0,16,16,12,,,,,,,,,,,,,,,,,,4,1,0.949676546217,,,,,,2015_Nov_10_1400,P3,PLC_L_D1S1,NHG,60.0156727895,
stim/posf.jpg,stim/negf.jpg,stim/1.jpg,stim/5.jpg,stim/latef.jpg,CD,2,4,0,17,17,36,,,,,,,,,,,,,,,,,,4,1,0.783060766003,,,,,,2015_Nov_10_1400,P3,PLC_L_D1S1,NHG,60.0156727895,
stim/posf.jpg,stim/negf.jpg,stim/5.jpg,stim/1.jpg,stim/latef.jpg,CD,1,2,0,18,18,26,,,,,,,,,,,,,,,,,,2,1,0.783091496368,,,,,,2015_Nov_10_1400,P3,PLC_L_D1S1,NHG,60.0156727895,
stim/negf.jpg,stim/posf.jpg,stim/1.jpg,stim/5.jpg,stim/latef.jpg,CD,2,4,0,19,19,37,,,,,,,,,,,,,,,,,,4,1,0.849728545435,,,,,,2015_Nov_10_1400,P3,PLC_L_D1S1,NHG,60.0156727895,
stim/posf.jpg,stim/negf.jpg,stim/6.jpg,stim/4.jpg,stim/latef.jpg,EF,1,2,0,20,20,43,,,,,,,,,,,,,,,,,,4,0,0.833013638893,,,,,,2015_Nov_10_1400,P3,PLC_L_D1S1,NHG,60.0156727895,
stim/posf.jpg,stim/negf.jpg,stim/3.jpg,stim/2.jpg,stim/latef.jpg,AB,1,2,0,21,21,1,,,,,,,,,,,,,,,,,,2,1,0.733085508488,,,,,,2015_Nov_10_1400,P3,PLC_L_D1S1,NHG,60.0156727895,
stim/posf.jpg,stim/negf.jpg,stim/1.jpg,stim/5.jpg,stim/latef.jpg,CD,2,4,0,22,22,30,,,,,,,,,,,,,,,,,,2,0,0.599798842123,,,,,,2015_Nov_10_1400,P3,PLC_L_D1S1,NHG,60.0156727895,
stim/negf.jpg,stim/posf.jpg,stim/5.jpg,stim/1.jpg,stim/latef.jpg,CD,1,2,0,23,23,27,,,,,,,,,,,,,,,,,,2,1,0.683092648231,,,,,,2015_Nov_10_1400,P3,PLC_L_D1S1,NHG,60.0156727895,
stim/negf.jpg,stim/posf.jpg,stim/2.jpg,stim/3.jpg,stim/latef.jpg,AB,2,4,0,24,24,18,,,,,,,,,,,,,,,,,,4,1,0.916365008045,,,,,,2015_Nov_10_1400,P3,PLC_L_D1S1,NHG,60.0156727895,
stim/posf.jpg,stim/negf.jpg,stim/2.jpg,stim/3.jpg,stim/latef.jpg,AB,2,4,0,25,25,13,,,,,,,,,,,,,,,,,,4,1,1.16627776124,,,,,,2015_Nov_10_1400,P3,PLC_L_D1S1,NHG,60.0156727895,
stim/negf.jpg,stim/posf.jpg,stim/1.jpg,stim/5.jpg,stim/latef.jpg,CD,2,4,0,26,26,38,,,,,,,,,,,,,,,,,,4,1,0.733082488985,,,,,,2015_Nov_10_1400,P3,PLC_L_D1S1,NHG,60.0156727895,
stim/posf.jpg,stim/negf.jpg,stim/4.jpg,stim/6.jpg,stim/latef.jpg,EF,2,4,0,27,27,53,,,,,,,,,,,,,,,,,,2,0,0.666432646126,,,,,,2015_Nov_10_1400,P3,PLC_L_D1S1,NHG,60.0156727895,
stim/negf.jpg,stim/posf.jpg,stim/3.jpg,stim/2.jpg,stim/latef.jpg,AB,1,2,0,28,28,8,,,,,,,,,,,,,,,,,,2,1,0.783066254643,,,,,,2015_Nov_10_1400,P3,PLC_L_D1S1,NHG,60.0156727895,
stim/posf.jpg,stim/negf.jpg,stim/2.jpg,stim/3.jpg,stim/latef.jpg,AB,2,4,0,29,29,17,,,,,,,,,,,,,,,,,,4,1,0.716415410295,,,,,,2015_Nov_10_1400,P3,PLC_L_D1S1,NHG,60.0156727895,
stim/posf.jpg,stim/negf.jpg,stim/5.jpg,stim/1.jpg,stim/latef.jpg,CD,1,2,0,30,30,25,,,,,,,,,,,,,,,,,,2,1,0.916354289409,,,,,,2015_Nov_10_1400,P3,PLC_L_D1S1,NHG,60.0156727895,
stim/posf.jpg,stim/negf.jpg,stim/6.jpg,stim/4.jpg,stim/latef.jpg,EF,1,2,0,31,31,45,,,,,,,,,,,,,,,,,,2,1,0.883010414881,,,,,,2015_Nov_10_1400,P3,PLC_L_D1S1,NHG,60.0156727895,
stim/posf.jpg,stim/negf.jpg,stim/4.jpg,stim/6.jpg,stim/latef.jpg,EF,2,4,0,32,32,54,,,,,,,,,,,,,,,,,,4,1,1.11632822664,,,,,,2015_Nov_10_1400,P3,PLC_L_D1S1,NHG,60.0156727895,
stim/negf.jpg,stim/posf.jpg,stim/6.jpg,stim/4.jpg,stim/latef.jpg,EF,1,2,0,33,33,48,,,,,,,,,,,,,,,,,,2,1,1.13299609931,,,,,,2015_Nov_10_1400,P3,PLC_L_D1S1,NHG,60.0156727895,
stim/posf.jpg,stim/negf.jpg,stim/3.jpg,stim/2.jpg,stim/latef.jpg,AB,1,2,0,34,34,6,,,,,,,,,,,,,,,,,,2,1,0.699759630682,,,,,,2015_Nov_10_1400,P3,PLC_L_D1S1,NHG,60.0156727895,
stim/negf.jpg,stim/posf.jpg,stim/6.jpg,stim/4.jpg,stim/latef.jpg,EF,1,2,0,35,35,46,,,,,,,,,,,,,,,,,,2,1,1.16629009188,,,,,,2015_Nov_10_1400,P3,PLC_L_D1S1,NHG,60.0156727895,
stim/posf.jpg,stim/negf.jpg,stim/3.jpg,stim/2.jpg,stim/latef.jpg,AB,1,2,0,36,36,4,,,,,,,,,,,,,,,,,,2,1,0.683105757808,,,,,,2015_Nov_10_1400,P3,PLC_L_D1S1,NHG,60.0156727895,
stim/negf.jpg,stim/posf.jpg,stim/5.jpg,stim/1.jpg,stim/latef.jpg,CD,1,2,0,37,37,29,,,,,,,,,,,,,,,,,,2,1,0.899702705223,,,,,,2015_Nov_10_1400,P3,PLC_L_D1S1,NHG,60.0156727895,
stim/negf.jpg,stim/posf.jpg,stim/4.jpg,stim/6.jpg,stim/latef.jpg,EF,2,4,0,38,38,58,,,,,,,,,,,,,,,,,,4,1,0.883032471692,,,,,,2015_Nov_10_1400,P3,PLC_L_D1S1,NHG,60.0156727895,
stim/negf.jpg,stim/posf.jpg,stim/4.jpg,stim/6.jpg,stim/latef.jpg,EF,2,4,0,39,39,57,,,,,,,,,,,,,,,,,,2,0,0.83304466399,,,,,,2015_Nov_10_1400,P3,PLC_L_D1S1,NHG,60.0156727895,
stim/posf.jpg,stim/negf.jpg,stim/2.jpg,stim/3.jpg,stim/latef.jpg,AB,2,4,0,40,40,16,,,,,,,,,,,,,,,,,,4,1,0.833045166238,,,,,,2015_Nov_10_1400,P3,PLC_L_D1S1,NHG,60.0156727895,
stim/posf.jpg,stim/negf.jpg,stim/2.jpg,stim/3.jpg,stim/latef.jpg,AB,2,4,0,41,41,14,,,,,,,,,,,,,,,,,,4,1,0.799690136991,,,,,,2015_Nov_10_1400,P3,PLC_L_D1S1,NHG,60.0156727895,
stim/posf.jpg,stim/negf.jpg,stim/2.jpg,stim/3.jpg,stim/latef.jpg,AB,2,4,0,42,42,10,,,,,,,,,,,,,,,,,,4,1,0.833008372806,,,,,,2015_Nov_10_1400,P3,PLC_L_D1S1,NHG,60.0156727895,
stim/posf.jpg,stim/negf.jpg,stim/5.jpg,stim/1.jpg,stim/latef.jpg,CD,1,2,0,43,43,23,,,,,,,,,,,,,,,,,,2,1,0.783057731463,,,,,,2015_Nov_10_1400,P3,PLC_L_D1S1,NHG,60.0156727895,
stim/posf.jpg,stim/negf.jpg,stim/6.jpg,stim/4.jpg,stim/latef.jpg,EF,1,2,0,44,44,44,,,,,,,,,,,,,,,,,,2,1,0.799724259786,,,,,,2015_Nov_10_1400,P3,PLC_L_D1S1,NHG,60.0156727895,
stim/negf.jpg,stim/posf.jpg,stim/5.jpg,stim/1.jpg,stim/latef.jpg,CD,1,2,0,45,45,28,,,,,,,,,,,,,,,,,,2,1,0.78305492549,,,,,,2015_Nov_10_1400,P3,PLC_L_D1S1,NHG,60.0156727895,
stim/posf.jpg,stim/negf.jpg,stim/4.jpg,stim/6.jpg,stim/latef.jpg,EF,2,4,0,46,46,52,,,,,,,,,,,,,,,,,,2,0,0.749759173546,,,,,,2015_Nov_10_1400,P3,PLC_L_D1S1,NHG,60.0156727895,
stim/posf.jpg,stim/negf.jpg,stim/2.jpg,stim/3.jpg,stim/latef.jpg,AB,2,4,0,47,47,11,,,,,,,,,,,,,,,,,,4,1,0.833046420355,,,,,,2015_Nov_10_1400,P3,PLC_L_D1S1,NHG,60.0156727895,
stim/negf.jpg,stim/posf.jpg,stim/3.jpg,stim/2.jpg,stim/latef.jpg,AB,1,2,0,48,48,9,,,,,,,,,,,,,,,,,,2,1,0.699734220538,,,,,,2015_Nov_10_1400,P3,PLC_L_D1S1,NHG,60.0156727895,
stim/posf.jpg,stim/negf.jpg,stim/3.jpg,stim/2.jpg,stim/latef.jpg,AB,1,2,0,49,49,7,,,,,,,,,,,,,,,,,,2,1,0.666428387543,,,,,,2015_Nov_10_1400,P3,PLC_L_D1S1,NHG,60.0156727895,
stim/posf.jpg,stim/negf.jpg,stim/6.jpg,stim/4.jpg,stim/latef.jpg,EF,1,2,0,50,50,42,,,,,,,,,,,,,,,,,,4,0,1.03306947865,,,,,,2015_Nov_10_1400,P3,PLC_L_D1S1,NHG,60.0156727895,
stim/posf.jpg,stim/negf.jpg,stim/1.jpg,stim/5.jpg,stim/latef.jpg,CD,2,4,0,51,51,34,,,,,,,,,,,,,,,,,,4,1,0.73310952918,,,,,,2015_Nov_10_1400,P3,PLC_L_D1S1,NHG,60.0156727895,
stim/posf.jpg,stim/negf.jpg,stim/3.jpg,stim/2.jpg,stim/latef.jpg,AB,1,2,0,52,52,5,,,,,,,,,,,,,,,,,,2,1,0.633084383694,,,,,,2015_Nov_10_1400,P3,PLC_L_D1S1,NHG,60.0156727895,
stim/negf.jpg,stim/posf.jpg,stim/6.jpg,stim/4.jpg,stim/latef.jpg,EF,1,2,0,53,53,49,,,,,,,,,,,,,,,,,,4,0,0.866390039247,,,,,,2015_Nov_10_1400,P3,PLC_L_D1S1,NHG,60.0156727895,
stim/negf.jpg,stim/posf.jpg,stim/2.jpg,stim/3.jpg,stim/latef.jpg,AB,2,4,0,54,54,19,,,,,,,,,,,,,,,,,,4,1,0.949627933414,,,,,,2015_Nov_10_1400,P3,PLC_L_D1S1,NHG,60.0156727895,
stim/posf.jpg,stim/negf.jpg,stim/4.jpg,stim/6.jpg,stim/latef.jpg,EF,2,4,0,55,55,51,,,,,,,,,,,,,,,,,,2,0,0.833045151201,,,,,,2015_Nov_10_1400,P3,PLC_L_D1S1,NHG,60.0156727895,
stim/negf.jpg,stim/posf.jpg,stim/6.jpg,stim/4.jpg,stim/latef.jpg,EF,1,2,0,56,56,47,,,,,,,,,,,,,,,,,,4,0,0.766413217846,,,,,,2015_Nov_10_1400,P3,PLC_L_D1S1,NHG,60.0156727895,
stim/posf.jpg,stim/negf.jpg,stim/3.jpg,stim/2.jpg,stim/latef.jpg,AB,1,2,0,57,57,0,,,,,,,,,,,,,,,,,,2,1,0.749736232538,,,,,,2015_Nov_10_1400,P3,PLC_L_D1S1,NHG,60.0156727895,
stim/posf.jpg,stim/negf.jpg,stim/1.jpg,stim/5.jpg,stim/latef.jpg,CD,2,4,0,58,58,31,,,,,,,,,,,,,,,,,,4,1,0.849699066179,,,,,,2015_Nov_10_1400,P3,PLC_L_D1S1,NHG,60.0156727895,
stim/posf.jpg,stim/negf.jpg,stim/5.jpg,stim/1.jpg,stim/latef.jpg,CD,1,2,0,59,59,24,,,,,,,,,,,,,,,,,,2,1,0.999678654456,,,,,,2015_Nov_10_1400,P3,PLC_L_D1S1,NHG,60.0156727895,
,,,,,,,,,,,,,,,,,,,,,,,,,,,,,,,,0.9984375,1.0,1,0,0,2015_Nov_10_1400,P3,PLC_L_D1S1,NHG,60.0156727895,
stim/negf.jpg,stim/posf.jpg,stim/6.jpg,stim/4.jpg,stim/latef.jpg,EF,1,2,,,,,0,0,0,48,,,,,,,,,,,,,,4,0,0.866339429482,,,,,,2015_Nov_10_1400,P3,PLC_L_D1S1,NHG,60.0156727895,
stim/posf.jpg,stim/negf.jpg,stim/6.jpg,stim/4.jpg,stim/latef.jpg,EF,1,2,,,,,0,1,1,44,,,,,,,,,,,,,,4,0,1.04963653479,,,,,,2015_Nov_10_1400,P3,PLC_L_D1S1,NHG,60.0156727895,
stim/posf.jpg,stim/negf.jpg,stim/3.jpg,stim/2.jpg,stim/latef.jpg,AB,1,2,,,,,0,2,2,3,,,,,,,,,,,,,,2,1,0.732997804544,,,,,,2015_Nov_10_1400,P3,PLC_L_D1S1,NHG,60.0156727895,
stim/negf.jpg,stim/posf.jpg,stim/4.jpg,stim/6.jpg,stim/latef.jpg,EF,2,4,,,,,0,3,3,57,,,,,,,,,,,,,,2,0,0.883019413242,,,,,,2015_Nov_10_1400,P3,PLC_L_D1S1,NHG,60.0156727895,
stim/posf.jpg,stim/negf.jpg,stim/2.jpg,stim/3.jpg,stim/latef.jpg,AB,2,4,,,,,0,4,4,17,,,,,,,,,,,,,,4,1,0.749741203892,,,,,,2015_Nov_10_1400,P3,PLC_L_D1S1,NHG,60.0156727895,
stim/posf.jpg,stim/negf.jpg,stim/4.jpg,stim/6.jpg,stim/latef.jpg,EF,2,4,,,,,0,5,5,52,,,,,,,,,,,,,,2,0,0.883084639329,,,,,,2015_Nov_10_1400,P3,PLC_L_D1S1,NHG,60.0156727895,
stim/negf.jpg,stim/posf.jpg,stim/3.jpg,stim/2.jpg,stim/latef.jpg,AB,1,2,,,,,0,6,6,8,,,,,,,,,,,,,,2,1,0.666430417587,,,,,,2015_Nov_10_1400,P3,PLC_L_D1S1,NHG,60.0156727895,
stim/posf.jpg,stim/negf.jpg,stim/5.jpg,stim/1.jpg,stim/latef.jpg,CD,1,2,,,,,0,7,7,23,,,,,,,,,,,,,,2,1,0.799744485045,,,,,,2015_Nov_10_1400,P3,PLC_L_D1S1,NHG,60.0156727895,
stim/posf.jpg,stim/negf.jpg,stim/1.jpg,stim/5.jpg,stim/latef.jpg,CD,2,4,,,,,0,8,8,34,,,,,,,,,,,,,,4,1,0.7997206839,,,,,,2015_Nov_10_1400,P3,PLC_L_D1S1,NHG,60.0156727895,
stim/posf.jpg,stim/negf.jpg,stim/6.jpg,stim/4.jpg,stim/latef.jpg,EF,1,2,,,,,0,9,9,42,,,,,,,,,,,,,,4,0,0.999631049157,,,,,,2015_Nov_10_1400,P3,PLC_L_D1S1,NHG,60.0156727895,
stim/negf.jpg,stim/posf.jpg,stim/6.jpg,stim/4.jpg,stim/latef.jpg,EF,1,2,,,,,0,10,10,49,,,,,,,,,,,,,,2,1,1.13295351047,,,,,,2015_Nov_10_1400,P3,PLC_L_D1S1,NHG,60.0156727895,
stim/posf.jpg,stim/negf.jpg,stim/6.jpg,stim/4.jpg,stim/latef.jpg,EF,1,2,,,,,0,11,11,41,,,,,,,,,,,,,,2,1,0.583139910678,,,,,,2015_Nov_10_1400,P3,PLC_L_D1S1,NHG,60.0156727895,
stim/posf.jpg,stim/negf.jpg,stim/1.jpg,stim/5.jpg,stim/latef.jpg,CD,2,4,,,,,0,12,12,35,,,,,,,,,,,,,,4,1,0.76639940452,,,,,,2015_Nov_10_1400,P3,PLC_L_D1S1,NHG,60.0156727895,
stim/posf.jpg,stim/negf.jpg,stim/5.jpg,stim/1.jpg,stim/latef.jpg,CD,1,2,,,,,0,13,13,25,,,,,,,,,,,,,,2,1,1.03303361453,,,,,,2015_Nov_10_1400,P3,PLC_L_D1S1,NHG,60.0156727895,
stim/negf.jpg,stim/posf.jpg,stim/4.jpg,stim/6.jpg,stim/latef.jpg,EF,2,4,,,,,0,14,14,59,,,,,,,,,,,,,,4,1,0.966342172298,,,,,,2015_Nov_10_1400,P3,PLC_L_D1S1,NHG,60.0156727895,
stim/posf.jpg,stim/negf.jpg,stim/3.jpg,stim/2.jpg,stim/latef.jpg,AB,1,2,,,,,0,15,15,6,,,,,,,,,,,,,,2,1,0.683117808755,,,,,,2015_Nov_10_1400,P3,PLC_L_D1S1,NHG,60.0156727895,
stim/negf.jpg,stim/posf.jpg,stim/4.jpg,stim/6.jpg,stim/latef.jpg,EF,2,4,,,,,0,16,16,58,,,,,,,,,,,,,,4,1,0.832988288898,,,,,,2015_Nov_10_1400,P3,PLC_L_D1S1,NHG,60.0156727895,
stim/negf.jpg,stim/posf.jpg,stim/6.jpg,stim/4.jpg,stim/latef.jpg,EF,1,2,,,,,0,17,17,46,,,,,,,,,,,,,,2,1,0.733077514624,,,,,,2015_Nov_10_1400,P3,PLC_L_D1S1,NHG,60.0156727895,
stim/posf.jpg,stim/negf.jpg,stim/1.jpg,stim/5.jpg,stim/latef.jpg,CD,2,4,,,,,0,18,18,31,,,,,,,,,,,,,,4,1,1.09968841672,,,,,,2015_Nov_10_1400,P3,PLC_L_D1S1,NHG,60.0156727895,
stim/posf.jpg,stim/negf.jpg,stim/2.jpg,stim/3.jpg,stim/latef.jpg,AB,2,4,,,,,0,19,19,16,,,,,,,,,,,,,,4,1,1.18296194944,,,,,,2015_Nov_10_1400,P3,PLC_L_D1S1,NHG,60.0156727895,
stim/posf.jpg,stim/negf.jpg,stim/5.jpg,stim/1.jpg,stim/latef.jpg,CD,1,2,,,,,0,20,20,22,,,,,,,,,,,,,,2,1,0.833077108615,,,,,,2015_Nov_10_1400,P3,PLC_L_D1S1,NHG,60.0156727895,
stim/negf.jpg,stim/posf.jpg,stim/2.jpg,stim/3.jpg,stim/latef.jpg,AB,2,4,,,,,0,21,21,18,,,,,,,,,,,,,,4,1,0.766410279544,,,,,,2015_Nov_10_1400,P3,PLC_L_D1S1,NHG,60.0156727895,
stim/posf.jpg,stim/negf.jpg,stim/1.jpg,stim/5.jpg,stim/latef.jpg,CD,2,4,,,,,0,22,22,32,,,,,,,,,,,,,,4,1,0.849702542819,,,,,,2015_Nov_10_1400,P3,PLC_L_D1S1,NHG,60.0156727895,
stim/posf.jpg,stim/negf.jpg,stim/3.jpg,stim/2.jpg,stim/latef.jpg,AB,1,2,,,,,0,23,23,2,,,,,,,,,,,,,,2,1,0.783003897685,,,,,,2015_Nov_10_1400,P3,PLC_L_D1S1,NHG,60.0156727895,
stim/posf.jpg,stim/negf.jpg,stim/5.jpg,stim/1.jpg,stim/latef.jpg,CD,1,2,,,,,0,24,24,26,,,,,,,,,,,,,,2,1,0.816390797131,,,,,,2015_Nov_10_1400,P3,PLC_L_D1S1,NHG,60.0156727895,
stim/negf.jpg,stim/posf.jpg,stim/1.jpg,stim/5.jpg,stim/latef.jpg,CD,2,4,,,,,0,25,25,37,,,,,,,,,,,,,,4,1,0.816446534639,,,,,,2015_Nov_10_1400,P3,PLC_L_D1S1,NHG,60.0156727895,
stim/negf.jpg,stim/posf.jpg,stim/1.jpg,stim/5.jpg,stim/latef.jpg,CD,2,4,,,,,0,26,26,39,,,,,,,,,,,,,,4,1,0.999665180975,,,,,,2015_Nov_10_1400,P3,PLC_L_D1S1,NHG,60.0156727895,
stim/negf.jpg,stim/posf.jpg,stim/5.jpg,stim/1.jpg,stim/latef.jpg,CD,1,2,,,,,0,27,27,27,,,,,,,,,,,,,,2,1,0.5998705433,,,,,,2015_Nov_10_1400,P3,PLC_L_D1S1,NHG,60.0156727895,
stim/posf.jpg,stim/negf.jpg,stim/5.jpg,stim/1.jpg,stim/latef.jpg,CD,1,2,,,,,0,28,28,24,,,,,,,,,,,,,,2,1,0.799768773402,,,,,,2015_Nov_10_1400,P3,PLC_L_D1S1,NHG,60.0156727895,
stim/negf.jpg,stim/posf.jpg,stim/5.jpg,stim/1.jpg,stim/latef.jpg,CD,1,2,,,,,0,29,29,29,,,,,,,,,,,,,,2,1,0.683152713493,,,,,,2015_Nov_10_1400,P3,PLC_L_D1S1,NHG,60.0156727895,
stim/posf.jpg,stim/negf.jpg,stim/4.jpg,stim/6.jpg,stim/latef.jpg,EF,2,4,,,,,0,30,30,55,,,,,,,,,,,,,,4,1,0.766373152283,,,,,,2015_Nov_10_1400,P3,PLC_L_D1S1,NHG,60.0156727895,
stim/posf.jpg,stim/negf.jpg,stim/4.jpg,stim/6.jpg,stim/latef.jpg,EF,2,4,,,,,0,31,31,54,,,,,,,,,,,,,,4,1,0.733047042901,,,,,,2015_Nov_10_1400,P3,PLC_L_D1S1,NHG,60.0156727895,
stim/posf.jpg,stim/negf.jpg,stim/1.jpg,stim/5.jpg,stim/latef.jpg,CD,2,4,,,,,0,32,32,30,,,,,,,,,,,,,,4,1,0.999654519481,,,,,,2015_Nov_10_1400,P3,PLC_L_D1S1,NHG,60.0156727895,
stim/negf.jpg,stim/posf.jpg,stim/1.jpg,stim/5.jpg,stim/latef.jpg,CD,2,4,,,,,0,33,33,38,,,,,,,,,,,,,,2,0,0.982998078225,,,,,,2015_Nov_10_1400,P3,PLC_L_D1S1,NHG,60.0156727895,
stim/posf.jpg,stim/negf.jpg,stim/4.jpg,stim/6.jpg,stim/latef.jpg,EF,2,4,,,,,0,34,34,50,,,,,,,,,,,,,,4,1,0.749756689373,,,,,,2015_Nov_10_1400,P3,PLC_L_D1S1,NHG,60.0156727895,
stim/posf.jpg,stim/negf.jpg,stim/2.jpg,stim/3.jpg,stim/latef.jpg,AB,2,4,,,,,0,35,35,12,,,,,,,,,,,,,,4,1,0.866377846949,,,,,,2015_Nov_10_1400,P3,PLC_L_D1S1,NHG,60.0156727895,
stim/posf.jpg,stim/negf.jpg,stim/2.jpg,stim/3.jpg,stim/latef.jpg,AB,2,4,,,,,0,36,36,10,,,,,,,,,,,,,,4,1,0.683114425347,,,,,,2015_Nov_10_1400,P3,PLC_L_D1S1,NHG,60.0156727895,
stim/posf.jpg,stim/negf.jpg,stim/6.jpg,stim/4.jpg,stim/latef.jpg,EF,1,2,,,,,0,37,37,45,,,,,,,,,,,,,,4,0,0.999612114103,,,,,,2015_Nov_10_1400,P3,PLC_L_D1S1,NHG,60.0156727895,
stim/posf.jpg,stim/negf.jpg,stim/3.jpg,stim/2.jpg,stim/latef.jpg,AB,1,2,,,,,0,38,38,7,,,,,,,,,,,,,,2,1,1.28290281951,,,,,,2015_Nov_10_1400,P3,PLC_L_D1S1,NHG,60.0156727895,
stim/posf.jpg,stim/negf.jpg,stim/2.jpg,stim/3.jpg,stim/latef.jpg,AB,2,4,,,,,0,39,39,11,,,,,,,,,,,,,,4,1,0.733075355258,,,,,,2015_Nov_10_1400,P3,PLC_L_D1S1,NHG,60.0156727895,
stim/posf.jpg,stim/negf.jpg,stim/3.jpg,stim/2.jpg,stim/latef.jpg,AB,1,2,,,,,0,40,40,0,,,,,,,,,,,,,,2,1,0.649772454549,,,,,,2015_Nov_10_1400,P3,PLC_L_D1S1,NHG,60.0156727895,
stim/negf.jpg,stim/posf.jpg,stim/6.jpg,stim/4.jpg,stim/latef.jpg,EF,1,2,,,,,0,41,41,47,,,,,,,,,,,,,,2,1,0.733093559496,,,,,,2015_Nov_10_1400,P3,PLC_L_D1S1,NHG,60.0156727895,
stim/posf.jpg,stim/negf.jpg,stim/6.jpg,stim/4.jpg,stim/latef.jpg,EF,1,2,,,,,0,42,42,40,,,,,,,,,,,,,,2,1,0.633084263394,,,,,,2015_Nov_10_1400,P3,PLC_L_D1S1,NHG,60.0156727895,
stim/negf.jpg,stim/posf.jpg,stim/3.jpg,stim/2.jpg,stim/latef.jpg,AB,1,2,,,,,0,43,43,9,,,,,,,,,,,,,,2,1,0.799730966452,,,,,,2015_Nov_10_1400,P3,PLC_L_D1S1,NHG,60.0156727895,
stim/posf.jpg,stim/negf.jpg,stim/1.jpg,stim/5.jpg,stim/latef.jpg,CD,2,4,,,,,0,44,44,33,,,,,,,,,,,,,,4,1,0.799713511075,,,,,,2015_Nov_10_1400,P3,PLC_L_D1S1,NHG,60.0156727895,
stim/negf.jpg,stim/posf.jpg,stim/4.jpg,stim/6.jpg,stim/latef.jpg,EF,2,4,,,,,0,45,45,56,,,,,,,,,,,,,,4,1,0.583133820544,,,,,,2015_Nov_10_1400,P3,PLC_L_D1S1,NHG,60.0156727895,
stim/negf.jpg,stim/posf.jpg,stim/5.jpg,stim/1.jpg,stim/latef.jpg,CD,1,2,,,,,0,46,46,28,,,,,,,,,,,,,,4,0,0.64977495376,,,,,,2015_Nov_10_1400,P3,PLC_L_D1S1,NHG,60.0156727895,
stim/posf.jpg,stim/negf.jpg,stim/3.jpg,stim/2.jpg,stim/latef.jpg,AB,1,2,,,,,0,47,47,1,,,,,,,,,,,,,,2,1,0.649773044014,,,,,,2015_Nov_10_1400,P3,PLC_L_D1S1,NHG,60.0156727895,
stim/posf.jpg,stim/negf.jpg,stim/4.jpg,stim/6.jpg,stim/latef.jpg,EF,2,4,,,,,0,48,48,51,,,,,,,,,,,,,,4,1,0.733083562653,,,,,,2015_Nov_10_1400,P3,PLC_L_D1S1,NHG,60.0156727895,
stim/posf.jpg,stim/negf.jpg,stim/2.jpg,stim/3.jpg,stim/latef.jpg,AB,2,4,,,,,0,49,49,14,,,,,,,,,,,,,,2,0,0.566455388641,,,,,,2015_Nov_10_1400,P3,PLC_L_D1S1,NHG,60.0156727895,
stim/posf.jpg,stim/negf.jpg,stim/4.jpg,stim/6.jpg,stim/latef.jpg,EF,2,4,,,,,0,50,50,53,,,,,,,,,,,,,,4,1,0.649792742966,,,,,,2015_Nov_10_1400,P3,PLC_L_D1S1,NHG,60.0156727895,
stim/posf.jpg,stim/negf.jpg,stim/3.jpg,stim/2.jpg,stim/latef.jpg,AB,1,2,,,,,0,51,51,4,,,,,,,,,,,,,,2,1,0.616396598547,,,,,,2015_Nov_10_1400,P3,PLC_L_D1S1,NHG,60.0156727895,
stim/posf.jpg,stim/negf.jpg,stim/3.jpg,stim/2.jpg,stim/latef.jpg,AB,1,2,,,,,0,52,52,5,,,,,,,,,,,,,,2,1,0.616427229666,,,,,,2015_Nov_10_1400,P3,PLC_L_D1S1,NHG,60.0156727895,
stim/posf.jpg,stim/negf.jpg,stim/2.jpg,stim/3.jpg,stim/latef.jpg,AB,2,4,,,,,0,53,53,13,,,,,,,,,,,,,,4,1,0.733050684952,,,,,,2015_Nov_10_1400,P3,PLC_L_D1S1,NHG,60.0156727895,
stim/posf.jpg,stim/negf.jpg,stim/2.jpg,stim/3.jpg,stim/latef.jpg,AB,2,4,,,,,0,54,54,15,,,,,,,,,,,,,,4,1,0.666427689809,,,,,,2015_Nov_10_1400,P3,PLC_L_D1S1,NHG,60.0156727895,
stim/posf.jpg,stim/negf.jpg,stim/1.jpg,stim/5.jpg,stim/latef.jpg,CD,2,4,,,,,0,55,55,36,,,,,,,,,,,,,,2,0,0.766364671208,,,,,,2015_Nov_10_1400,P3,PLC_L_D1S1,NHG,60.0156727895,
stim/negf.jpg,stim/posf.jpg,stim/2.jpg,stim/3.jpg,stim/latef.jpg,AB,2,4,,,,,0,56,56,19,,,,,,,,,,,,,,4,1,0.716388391152,,,,,,2015_Nov_10_1400,P3,PLC_L_D1S1,NHG,60.0156727895,
stim/posf.jpg,stim/negf.jpg,stim/5.jpg,stim/1.jpg,stim/latef.jpg,CD,1,2,,,,,0,57,57,21,,,,,,,,,,,,,,2,1,0.699750078946,,,,,,2015_Nov_10_1400,P3,PLC_L_D1S1,NHG,60.0156727895,
stim/posf.jpg,stim/negf.jpg,stim/5.jpg,stim/1.jpg,stim/latef.jpg,CD,1,2,,,,,0,58,58,20,,,,,,,,,,,,,,2,1,0.833045584277,,,,,,2015_Nov_10_1400,P3,PLC_L_D1S1,NHG,60.0156727895,
stim/posf.jpg,stim/negf.jpg,stim/6.jpg,stim/4.jpg,stim/latef.jpg,EF,1,2,,,,,0,59,59,43,,,,,,,,,,,,,,2,1,0.599783813777,,,,,,2015_Nov_10_1400,P3,PLC_L_D1S1,NHG,60.0156727895,
,,,,,,,,,,,,,,,,,,,,,,,,,,,,,,,,0.9984375,1.0,1,0,0,2015_Nov_10_1400,P3,PLC_L_D1S1,NHG,60.0156727895,
stim/posf.jpg,stim/negf.jpg,stim/4.jpg,stim/6.jpg,stim/latef.jpg,EF,2,4,,,,,,,,,0,0,0,51,,,,,,,,,,4,1,0.849631704786,,,,,,2015_Nov_10_1400,P3,PLC_L_D1S1,NHG,60.0156727895,
stim/posf.jpg,stim/negf.jpg,stim/2.jpg,stim/3.jpg,stim/latef.jpg,AB,2,4,,,,,,,,,0,1,1,12,,,,,,,,,,4,1,0.84971065999,,,,,,2015_Nov_10_1400,P3,PLC_L_D1S1,NHG,60.0156727895,
stim/posf.jpg,stim/negf.jpg,stim/6.jpg,stim/4.jpg,stim/latef.jpg,EF,1,2,,,,,,,,,0,2,2,43,,,,,,,,,,2,1,0.68310303003,,,,,,2015_Nov_10_1400,P3,PLC_L_D1S1,NHG,60.0156727895,
stim/posf.jpg,stim/negf.jpg,stim/2.jpg,stim/3.jpg,stim/latef.jpg,AB,2,4,,,,,,,,,0,3,3,11,,,,,,,,,,4,1,0.866388791146,,,,,,2015_Nov_10_1400,P3,PLC_L_D1S1,NHG,60.0156727895,
stim/posf.jpg,stim/negf.jpg,stim/1.jpg,stim/5.jpg,stim/latef.jpg,CD,2,4,,,,,,,,,0,4,4,35,,,,,,,,,,4,1,0.799720286913,,,,,,2015_Nov_10_1400,P3,PLC_L_D1S1,NHG,60.0156727895,
stim/posf.jpg,stim/negf.jpg,stim/6.jpg,stim/4.jpg,stim/latef.jpg,EF,1,2,,,,,,,,,0,5,5,42,,,,,,,,,,2,1,0.86630866002,,,,,,2015_Nov_10_1400,P3,PLC_L_D1S1,NHG,60.0156727895,
stim/negf.jpg,stim/posf.jpg,stim/3.jpg,stim/2.jpg,stim/latef.jpg,AB,1,2,,,,,,,,,0,6,6,9,,,,,,,,,,2,1,0.666435494203,,,,,,2015_Nov_10_1400,P3,PLC_L_D1S1,NHG,60.0156727895,
stim/posf.jpg,stim/negf.jpg,stim/3.jpg,stim/2.jpg,stim/latef.jpg,AB,1,2,,,,,,,,,0,7,7,7,,,,,,,,,,2,1,0.599781329604,,,,,,2015_Nov_10_1400,P3,PLC_L_D1S1,NHG,60.0156727895,
stim/posf.jpg,stim/negf.jpg,stim/1.jpg,stim/5.jpg,stim/latef.jpg,CD,2,4,,,,,,,,,0,8,8,33,,,,,,,,,,4,1,0.883043349724,,,,,,2015_Nov_10_1400,P3,PLC_L_D1S1,NHG,60.0156727895,
stim/posf.jpg,stim/negf.jpg,stim/4.jpg,stim/6.jpg,stim/latef.jpg,EF,2,4,,,,,,,,,0,9,9,52,,,,,,,,,,4,1,0.716424995112,,,,,,2015_Nov_10_1400,P3,PLC_L_D1S1,NHG,60.0156727895,
stim/negf.jpg,stim/posf.jpg,stim/1.jpg,stim/5.jpg,stim/latef.jpg,CD,2,4,,,,,,,,,0,10,10,39,,,,,,,,,,4,1,0.74976846664,,,,,,2015_Nov_10_1400,P3,PLC_L_D1S1,NHG,60.0156727895,
stim/posf.jpg,stim/negf.jpg,stim/1.jpg,stim/5.jpg,stim/latef.jpg,CD,2,4,,,,,,,,,0,11,11,36,,,,,,,,,,4,1,0.849712798304,,,,,,2015_Nov_10_1400,P3,PLC_L_D1S1,NHG,60.0156727895,
stim/negf.jpg,stim/posf.jpg,stim/4.jpg,stim/6.jpg,stim/latef.jpg,EF,2,4,,,,,,,,,0,12,12,58,,,,,,,,,,4,1,0.633097075232,,,,,,2015_Nov_10_1400,P3,PLC_L_D1S1,NHG,60.0156727895,
stim/posf.jpg,stim/negf.jpg,stim/1.jpg,stim/5.jpg,stim/latef.jpg,CD,2,4,,,,,,,,,0,13,13,30,,,,,,,,,,4,1,0.8996717102,,,,,,2015_Nov_10_1400,P3,PLC_L_D1S1,NHG,60.0156727895,
stim/posf.jpg,stim/negf.jpg,stim/5.jpg,stim/1.jpg,stim/latef.jpg,CD,1,2,,,,,,,,,0,14,14,26,,,,,,,,,,2,1,0.833067644096,,,,,,2015_Nov_10_1400,P3,PLC_L_D1S1,NHG,60.0156727895,
stim/posf.jpg,stim/negf.jpg,stim/2.jpg,stim/3.jpg,stim/latef.jpg,AB,2,4,,,,,,,,,0,15,15,13,,,,,,,,,,4,1,0.683071442535,,,,,,2015_Nov_10_1400,P3,PLC_L_D1S1,NHG,60.0156727895,
stim/negf.jpg,stim/posf.jpg,stim/1.jpg,stim/5.jpg,stim/latef.jpg,CD,2,4,,,,,,,,,0,16,16,38,,,,,,,,,,4,1,0.899688004692,,,,,,2015_Nov_10_1400,P3,PLC_L_D1S1,NHG,60.0156727895,
stim/posf.jpg,stim/negf.jpg,stim/2.jpg,stim/3.jpg,stim/latef.jpg,AB,2,4,,,,,,,,,0,17,17,16,,,,,,,,,,4,1,0.666431292763,,,,,,2015_Nov_10_1400,P3,PLC_L_D1S1,NHG,60.0156727895,
stim/posf.jpg,stim/negf.jpg,stim/3.jpg,stim/2.jpg,stim/latef.jpg,AB,1,2,,,,,,,,,0,18,18,4,,,,,,,,,,2,1,0.616439858047,,,,,,2015_Nov_10_1400,P3,PLC_L_D1S1,NHG,60.0156727895,
stim/negf.jpg,stim/posf.jpg,stim/4.jpg,stim/6.jpg,stim/latef.jpg,EF,2,4,,,,,,,,,0,19,19,59,,,,,,,,,,4,1,0.816350060902,,,,,,2015_Nov_10_1400,P3,PLC_L_D1S1,NHG,60.0156727895,
stim/negf.jpg,stim/posf.jpg,stim/2.jpg,stim/3.jpg,stim/latef.jpg,AB,2,4,,,,,,,,,0,20,20,19,,,,,,,,,,4,1,0.666437746801,,,,,,2015_Nov_10_1400,P3,PLC_L_D1S1,NHG,60.0156727895,
stim/posf.jpg,stim/negf.jpg,stim/1.jpg,stim/5.jpg,stim/latef.jpg,CD,2,4,,,,,,,,,0,21,21,31,,,,,,,,,,4,1,0.716411172764,,,,,,2015_Nov_10_1400,P3,PLC_L_D1S1,NHG,60.0156727895,
stim/posf.jpg,stim/negf.jpg,stim/3.jpg,stim/2.jpg,stim/latef.jpg,AB,1,2,,,,,,,,,0,22,22,6,,,,,,,,,,2,1,0.999652116509,,,,,,2015_Nov_10_1400,P3,PLC_L_D1S1,NHG,60.0156727895,
stim/negf.jpg,stim/posf.jpg,stim/2.jpg,stim/3.jpg,stim/latef.jpg,AB,2,4,,,,,,,,,0,23,23,18,,,,,,,,,,4,1,0.766393657238,,,,,,2015_Nov_10_1400,P3,PLC_L_D1S1,NHG,60.0156727895,
stim/posf.jpg,stim/negf.jpg,stim/2.jpg,stim/3.jpg,stim/latef.jpg,AB,2,4,,,,,,,,,0,24,24,14,,,,,,,,,,4,1,0.716423518444,,,,,,2015_Nov_10_1400,P3,PLC_L_D1S1,NHG,60.0156727895,
stim/negf.jpg,stim/posf.jpg,stim/1.jpg,stim/5.jpg,stim/latef.jpg,CD,2,4,,,,,,,,,0,25,25,37,,,,,,,,,,4,1,0.899747321093,,,,,,2015_Nov_10_1400,P3,PLC_L_D1S1,NHG,60.0156727895,
stim/posf.jpg,stim/negf.jpg,stim/3.jpg,stim/2.jpg,stim/latef.jpg,AB,1,2,,,,,,,,,0,26,26,3,,,,,,,,,,2,1,0.683040002406,,,,,,2015_Nov_10_1400,P3,PLC_L_D1S1,NHG,60.0156727895,
stim/posf.jpg,stim/negf.jpg,stim/5.jpg,stim/1.jpg,stim/latef.jpg,CD,1,2,,,,,,,,,0,27,27,25,,,,,,,,,,2,1,0.783072904167,,,,,,2015_Nov_10_1400,P3,PLC_L_D1S1,NHG,60.0156727895,
stim/posf.jpg,stim/negf.jpg,stim/6.jpg,stim/4.jpg,stim/latef.jpg,EF,1,2,,,,,,,,,0,28,28,41,,,,,,,,,,2,1,0.932994983534,,,,,,2015_Nov_10_1400,P3,PLC_L_D1S1,NHG,60.0156727895,
stim/posf.jpg,stim/negf.jpg,stim/4.jpg,stim/6.jpg,stim/latef.jpg,EF,2,4,,,,,,,,,0,29,29,50,,,,,,,,,,4,1,1.0163313093,,,,,,2015_Nov_10_1400,P3,PLC_L_D1S1,NHG,60.0156727895,
stim/posf.jpg,stim/negf.jpg,stim/3.jpg,stim/2.jpg,stim/latef.jpg,AB,1,2,,,,,,,,,0,30,30,1,,,,,,,,,,2,1,1.06630249771,,,,,,2015_Nov_10_1400,P3,PLC_L_D1S1,NHG,60.0156727895,
stim/negf.jpg,stim/posf.jpg,stim/6.jpg,stim/4.jpg,stim/latef.jpg,EF,1,2,,,,,,,,,0,31,31,47,,,,,,,,,,2,1,0.933012664471,,,,,,2015_Nov_10_1400,P3,PLC_L_D1S1,NHG,60.0156727895,
stim/posf.jpg,stim/negf.jpg,stim/6.jpg,stim/4.jpg,stim/latef.jpg,EF,1,2,,,,,,,,,0,32,32,40,,,,,,,,,,2,1,0.699754653313,,,,,,2015_Nov_10_1400,P3,PLC_L_D1S1,NHG,60.0156727895,
stim/negf.jpg,stim/posf.jpg,stim/4.jpg,stim/6.jpg,stim/latef.jpg,EF,2,4,,,,,,,,,0,33,33,56,,,,,,,,,,4,1,0.633102548834,,,,,,2015_Nov_10_1400,P3,PLC_L_D1S1,NHG,60.0156727895,
stim/posf.jpg,stim/negf.jpg,stim/2.jpg,stim/3.jpg,stim/latef.jpg,AB,2,4,,,,,,,,,0,34,34,17,,,,,,,,,,4,1,0.699748578217,,,,,,2015_Nov_10_1400,P3,PLC_L_D1S1,NHG,60.0156727895,
stim/posf.jpg,stim/negf.jpg,stim/4.jpg,stim/6.jpg,stim/latef.jpg,EF,2,4,,,,,,,,,0,35,35,53,,,,,,,,,,4,1,0.833069514744,,,,,,2015_Nov_10_1400,P3,PLC_L_D1S1,NHG,60.0156727895,
stim/negf.jpg,stim/posf.jpg,stim/5.jpg,stim/1.jpg,stim/latef.jpg,CD,1,2,,,,,,,,,0,36,36,27,,,,,,,,,,2,1,0.849736346822,,,,,,2015_Nov_10_1400,P3,PLC_L_D1S1,NHG,60.0156727895,
stim/negf.jpg,stim/posf.jpg,stim/6.jpg,stim/4.jpg,stim/latef.jpg,EF,1,2,,,,,,,,,0,37,37,49,,,,,,,,,,2,1,0.983044035428,,,,,,2015_Nov_10_1400,P3,PLC_L_D1S1,NHG,60.0156727895,
stim/posf.jpg,stim/negf.jpg,stim/5.jpg,stim/1.jpg,stim/latef.jpg,CD,1,2,,,,,,,,,0,38,38,23,,,,,,,,,,2,1,0.683124756019,,,,,,2015_Nov_10_1400,P3,PLC_L_D1S1,NHG,60.0156727895,
stim/posf.jpg,stim/negf.jpg,stim/2.jpg,stim/3.jpg,stim/latef.jpg,AB,2,4,,,,,,,,,0,39,39,10,,,,,,,,,,4,1,0.699778574759,,,,,,2015_Nov_10_1400,P3,PLC_L_D1S1,NHG,60.0156727895,
stim/posf.jpg,stim/negf.jpg,stim/1.jpg,stim/5.jpg,stim/latef.jpg,CD,2,4,,,,,,,,,0,40,40,34,,,,,,,,,,4,1,0.699661535917,,,,,,2015_Nov_10_1400,P3,PLC_L_D1S1,NHG,60.0156727895,
stim/posf.jpg,stim/negf.jpg,stim/4.jpg,stim/6.jpg,stim/latef.jpg,EF,2,4,,,,,,,,,0,41,41,55,,,,,,,,,,4,1,0.616393789567,,,,,,2015_Nov_10_1400,P3,PLC_L_D1S1,NHG,60.0156727895,
stim/posf.jpg,stim/negf.jpg,stim/5.jpg,stim/1.jpg,stim/latef.jpg,CD,1,2,,,,,,,,,0,42,42,20,,,,,,,,,,2,1,0.766404132269,,,,,,2015_Nov_10_1400,P3,PLC_L_D1S1,NHG,60.0156727895,
stim/negf.jpg,stim/posf.jpg,stim/5.jpg,stim/1.jpg,stim/latef.jpg,CD,1,2,,,,,,,,,0,43,43,29,,,,,,,,,,2,1,0.699763374987,,,,,,2015_Nov_10_1400,P3,PLC_L_D1S1,NHG,60.0156727895,
stim/posf.jpg,stim/negf.jpg,stim/6.jpg,stim/4.jpg,stim/latef.jpg,EF,1,2,,,,,,,,,0,44,44,44,,,,,,,,,,2,1,0.666363991519,,,,,,2015_Nov_10_1400,P3,PLC_L_D1S1,NHG,60.0156727895,
stim/posf.jpg,stim/negf.jpg,stim/3.jpg,stim/2.jpg,stim/latef.jpg,AB,1,2,,,,,,,,,0,45,45,0,,,,,,,,,,2,1,0.81638663178,,,,,,2015_Nov_10_1400,P3,PLC_L_D1S1,NHG,60.0156727895,
stim/posf.jpg,stim/negf.jpg,stim/6.jpg,stim/4.jpg,stim/latef.jpg,EF,1,2,,,,,,,,,0,46,46,45,,,,,,,,,,2,1,0.6330634607,,,,,,2015_Nov_10_1400,P3,PLC_L_D1S1,NHG,60.0156727895,
stim/posf.jpg,stim/negf.jpg,stim/2.jpg,stim/3.jpg,stim/latef.jpg,AB,2,4,,,,,,,,,0,47,47,15,,,,,,,,,,4,1,0.9330222132,,,,,,2015_Nov_10_1400,P3,PLC_L_D1S1,NHG,60.0156727895,
stim/negf.jpg,stim/posf.jpg,stim/6.jpg,stim/4.jpg,stim/latef.jpg,EF,1,2,,,,,,,,,0,48,48,46,,,,,,,,,,2,1,0.733096203065,,,,,,2015_Nov_10_1400,P3,PLC_L_D1S1,NHG,60.0156727895,
stim/posf.jpg,stim/negf.jpg,stim/3.jpg,stim/2.jpg,stim/latef.jpg,AB,1,2,,,,,,,,,0,49,49,2,,,,,,,,,,2,1,0.749761122389,,,,,,2015_Nov_10_1400,P3,PLC_L_D1S1,NHG,60.0156727895,
stim/negf.jpg,stim/posf.jpg,stim/4.jpg,stim/6.jpg,stim/latef.jpg,EF,2,4,,,,,,,,,0,50,50,57,,,,,,,,,,4,1,0.583126653735,,,,,,2015_Nov_10_1400,P3,PLC_L_D1S1,NHG,60.0156727895,
stim/negf.jpg,stim/posf.jpg,stim/5.jpg,stim/1.jpg,stim/latef.jpg,CD,1,2,,,,,,,,,0,51,51,28,,,,,,,,,,2,1,0.816412306582,,,,,,2015_Nov_10_1400,P3,PLC_L_D1S1,NHG,60.0156727895,
stim/posf.jpg,stim/negf.jpg,stim/1.jpg,stim/5.jpg,stim/latef.jpg,CD,2,4,,,,,,,,,0,52,52,32,,,,,,,,,,4,1,0.916360166013,,,,,,2015_Nov_10_1400,P3,PLC_L_D1S1,NHG,60.0156727895,
stim/negf.jpg,stim/posf.jpg,stim/6.jpg,stim/4.jpg,stim/latef.jpg,EF,1,2,,,,,,,,,0,53,53,48,,,,,,,,,,2,1,0.66641655915,,,,,,2015_Nov_10_1400,P3,PLC_L_D1S1,NHG,60.0156727895,
stim/posf.jpg,stim/negf.jpg,stim/5.jpg,stim/1.jpg,stim/latef.jpg,CD,1,2,,,,,,,,,0,54,54,21,,,,,,,,,,2,1,0.932945095562,,,,,,2015_Nov_10_1400,P3,PLC_L_D1S1,NHG,60.0156727895,
stim/posf.jpg,stim/negf.jpg,stim/4.jpg,stim/6.jpg,stim/latef.jpg,EF,2,4,,,,,,,,,0,55,55,54,,,,,,,,,,4,1,0.899660206614,,,,,,2015_Nov_10_1400,P3,PLC_L_D1S1,NHG,60.0156727895,
stim/negf.jpg,stim/posf.jpg,stim/3.jpg,stim/2.jpg,stim/latef.jpg,AB,1,2,,,,,,,,,0,56,56,8,,,,,,,,,,2,1,0.716418044841,,,,,,2015_Nov_10_1400,P3,PLC_L_D1S1,NHG,60.0156727895,
stim/posf.jpg,stim/negf.jpg,stim/5.jpg,stim/1.jpg,stim/latef.jpg,CD,1,2,,,,,,,,,0,57,57,22,,,,,,,,,,2,1,0.983004451061,,,,,,2015_Nov_10_1400,P3,PLC_L_D1S1,NHG,60.0156727895,
stim/posf.jpg,stim/negf.jpg,stim/5.jpg,stim/1.jpg,stim/latef.jpg,CD,1,2,,,,,,,,,0,58,58,24,,,,,,,,,,2,1,0.749732707779,,,,,,2015_Nov_10_1400,P3,PLC_L_D1S1,NHG,60.0156727895,
stim/posf.jpg,stim/negf.jpg,stim/3.jpg,stim/2.jpg,stim/latef.jpg,AB,1,2,,,,,,,,,0,59,59,5,,,,,,,,,,2,1,0.716431262688,,,,,,2015_Nov_10_1400,P3,PLC_L_D1S1,NHG,60.0156727895,
,,,,,,,,,,,,,,,,,,,,,,,,,,,,,,,,0.9984375,1.0,1,0,0,2015_Nov_10_1400,P3,PLC_L_D1S1,NHG,60.0156727895,
stim/negf.jpg,stim/posf.jpg,stim/6.jpg,stim/4.jpg,stim/latef.jpg,EF,1,2,,,,,,,,,,,,,0,0,0,48,,,,,,2,1,0.766415945625,,,,,,2015_Nov_10_1400,P3,PLC_L_D1S1,NHG,60.0156727895,
stim/negf.jpg,stim/posf.jpg,stim/4.jpg,stim/6.jpg,stim/latef.jpg,EF,2,4,,,,,,,,,,,,,0,1,1,59,,,,,,4,1,0.899709204373,,,,,,2015_Nov_10_1400,P3,PLC_L_D1S1,NHG,60.0156727895,
stim/posf.jpg,stim/negf.jpg,stim/3.jpg,stim/2.jpg,stim/latef.jpg,AB,1,2,,,,,,,,,,,,,0,2,2,7,,,,,,2,1,0.88304125953,,,,,,2015_Nov_10_1400,P3,PLC_L_D1S1,NHG,60.0156727895,
stim/posf.jpg,stim/negf.jpg,stim/5.jpg,stim/1.jpg,stim/latef.jpg,CD,1,2,,,,,,,,,,,,,0,3,3,21,,,,,,2,1,0.783045097066,,,,,,2015_Nov_10_1400,P3,PLC_L_D1S1,NHG,60.0156727895,
stim/posf.jpg,stim/negf.jpg,stim/3.jpg,stim/2.jpg,stim/latef.jpg,AB,1,2,,,,,,,,,,,,,0,4,4,1,,,,,,2,1,0.599759552488,,,,,,2015_Nov_10_1400,P3,PLC_L_D1S1,NHG,60.0156727895,
stim/negf.jpg,stim/posf.jpg,stim/6.jpg,stim/4.jpg,stim/latef.jpg,EF,1,2,,,,,,,,,,,,,0,5,5,46,,,,,,2,1,0.599722915445,,,,,,2015_Nov_10_1400,P3,PLC_L_D1S1,NHG,60.0156727895,
stim/posf.jpg,stim/negf.jpg,stim/6.jpg,stim/4.jpg,stim/latef.jpg,EF,1,2,,,,,,,,,,,,,0,6,6,43,,,,,,2,1,0.599766950873,,,,,,2015_Nov_10_1400,P3,PLC_L_D1S1,NHG,60.0156727895,
stim/posf.jpg,stim/negf.jpg,stim/4.jpg,stim/6.jpg,stim/latef.jpg,EF,2,4,,,,,,,,,,,,,0,7,7,52,,,,,,4,1,0.683095261726,,,,,,2015_Nov_10_1400,P3,PLC_L_D1S1,NHG,60.0156727895,
stim/posf.jpg,stim/negf.jpg,stim/4.jpg,stim/6.jpg,stim/latef.jpg,EF,2,4,,,,,,,,,,,,,0,8,8,55,,,,,,4,1,0.599810577285,,,,,,2015_Nov_10_1400,P3,PLC_L_D1S1,NHG,60.0156727895,
stim/negf.jpg,stim/posf.jpg,stim/1.jpg,stim/5.jpg,stim/latef.jpg,CD,2,4,,,,,,,,,,,,,0,9,9,38,,,,,,4,1,0.799739414445,,,,,,2015_Nov_10_1400,P3,PLC_L_D1S1,NHG,60.0156727895,
stim/posf.jpg,stim/negf.jpg,stim/6.jpg,stim/4.jpg,stim/latef.jpg,EF,1,2,,,,,,,,,,,,,0,10,10,44,,,,,,2,1,0.549805160825,,,,,,2015_Nov_10_1400,P3,PLC_L_D1S1,NHG,60.0156727895,
stim/posf.jpg,stim/negf.jpg,stim/2.jpg,stim/3.jpg,stim/latef.jpg,AB,2,4,,,,,,,,,,,,,0,11,11,15,,,,,,4,1,0.66643583104,,,,,,2015_Nov_10_1400,P3,PLC_L_D1S1,NHG,60.0156727895,
stim/negf.jpg,stim/posf.jpg,stim/4.jpg,stim/6.jpg,stim/latef.jpg,EF,2,4,,,,,,,,,,,,,0,12,12,56,,,,,,4,1,0.699694182043,,,,,,2015_Nov_10_1400,P3,PLC_L_D1S1,NHG,60.0156727895,
stim/negf.jpg,stim/posf.jpg,stim/1.jpg,stim/5.jpg,stim/latef.jpg,CD,2,4,,,,,,,,,,,,,0,13,13,39,,,,,,4,1,0.849738843025,,,,,,2015_Nov_10_1400,P3,PLC_L_D1S1,NHG,60.0156727895,
stim/posf.jpg,stim/negf.jpg,stim/2.jpg,stim/3.jpg,stim/latef.jpg,AB,2,4,,,,,,,,,,,,,0,14,14,12,,,,,,4,1,0.899679929625,,,,,,2015_Nov_10_1400,P3,PLC_L_D1S1,NHG,60.0156727895,
stim/posf.jpg,stim/negf.jpg,stim/3.jpg,stim/2.jpg,stim/latef.jpg,AB,1,2,,,,,,,,,,,,,0,15,15,6,,,,,,2,1,0.833081743132,,,,,,2015_Nov_10_1400,P3,PLC_L_D1S1,NHG,60.0156727895,
stim/posf.jpg,stim/negf.jpg,stim/5.jpg,stim/1.jpg,stim/latef.jpg,CD,1,2,,,,,,,,,,,,,0,16,16,24,,,,,,2,1,0.866360033684,,,,,,2015_Nov_10_1400,P3,PLC_L_D1S1,NHG,60.0156727895,
stim/posf.jpg,stim/negf.jpg,stim/2.jpg,stim/3.jpg,stim/latef.jpg,AB,2,4,,,,,,,,,,,,,0,17,17,11,,,,,,4,1,0.733086392686,,,,,,2015_Nov_10_1400,P3,PLC_L_D1S1,NHG,60.0156727895,
stim/posf.jpg,stim/negf.jpg,stim/3.jpg,stim/2.jpg,stim/latef.jpg,AB,1,2,,,,,,,,,,,,,0,18,18,5,,,,,,2,1,0.866294936918,,,,,,2015_Nov_10_1400,P3,PLC_L_D1S1,NHG,60.0156727895,
stim/posf.jpg,stim/negf.jpg,stim/4.jpg,stim/6.jpg,stim/latef.jpg,EF,2,4,,,,,,,,,,,,,0,19,19,50,,,,,,4,1,0.982969080164,,,,,,2015_Nov_10_1400,P3,PLC_L_D1S1,NHG,60.0156727895,
stim/posf.jpg,stim/negf.jpg,stim/1.jpg,stim/5.jpg,stim/latef.jpg,CD,2,4,,,,,,,,,,,,,0,20,20,31,,,,,,4,1,1.23289315048,,,,,,2015_Nov_10_1400,P3,PLC_L_D1S1,NHG,60.0156727895,
stim/posf.jpg,stim/negf.jpg,stim/2.jpg,stim/3.jpg,stim/latef.jpg,AB,2,4,,,,,,,,,,,,,0,21,21,17,,,,,,4,1,0.88303502203,,,,,,2015_Nov_10_1400,P3,PLC_L_D1S1,NHG,60.0156727895,
stim/posf.jpg,stim/negf.jpg,stim/5.jpg,stim/1.jpg,stim/latef.jpg,CD,1,2,,,,,,,,,,,,,0,22,22,26,,,,,,2,1,0.766391164043,,,,,,2015_Nov_10_1400,P3,PLC_L_D1S1,NHG,60.0156727895,
stim/posf.jpg,stim/negf.jpg,stim/5.jpg,stim/1.jpg,stim/latef.jpg,CD,1,2,,,,,,,,,,,,,0,23,23,23,,,,,,2,1,0.716445175261,,,,,,2015_Nov_10_1400,P3,PLC_L_D1S1,NHG,60.0156727895,
stim/posf.jpg,stim/negf.jpg,stim/4.jpg,stim/6.jpg,stim/latef.jpg,EF,2,4,,,,,,,,,,,,,0,24,24,54,,,,,,4,1,0.79973825356,,,,,,2015_Nov_10_1400,P3,PLC_L_D1S1,NHG,60.0156727895,
stim/negf.jpg,stim/posf.jpg,stim/3.jpg,stim/2.jpg,stim/latef.jpg,AB,1,2,,,,,,,,,,,,,0,25,25,8,,,,,,2,1,0.766438315213,,,,,,2015_Nov_10_1400,P3,PLC_L_D1S1,NHG,60.0156727895,
stim/posf.jpg,stim/negf.jpg,stim/3.jpg,stim/2.jpg,stim/latef.jpg,AB,1,2,,,,,,,,,,,,,0,26,26,3,,,,,,2,1,1.01626521406,,,,,,2015_Nov_10_1400,P3,PLC_L_D1S1,NHG,60.0156727895,
stim/posf.jpg,stim/negf.jpg,stim/1.jpg,stim/5.jpg,stim/latef.jpg,CD,2,4,,,,,,,,,,,,,0,27,27,34,,,,,,4,1,0.699755450294,,,,,,2015_Nov_10_1400,P3,PLC_L_D1S1,NHG,60.0156727895,
stim/posf.jpg,stim/negf.jpg,stim/2.jpg,stim/3.jpg,stim/latef.jpg,AB,2,4,,,,,,,,,,,,,0,28,28,16,,,,,,4,1,0.716451271409,,,,,,2015_Nov_10_1400,P3,PLC_L_D1S1,NHG,60.0156727895,
stim/negf.jpg,stim/posf.jpg,stim/1.jpg,stim/5.jpg,stim/latef.jpg,CD,2,4,,,,,,,,,,,,,0,29,29,37,,,,,,2,0,1.01630616081,,,,,,2015_Nov_10_1400,P3,PLC_L_D1S1,NHG,60.0156727895,
stim/posf.jpg,stim/negf.jpg,stim/3.jpg,stim/2.jpg,stim/latef.jpg,AB,1,2,,,,,,,,,,,,,0,30,30,2,,,,,,2,1,0.766390806153,,,,,,2015_Nov_10_1400,P3,PLC_L_D1S1,NHG,60.0156727895,
stim/posf.jpg,stim/negf.jpg,stim/4.jpg,stim/6.jpg,stim/latef.jpg,EF,2,4,,,,,,,,,,,,,0,31,31,51,,,,,,4,1,0.599783771672,,,,,,2015_Nov_10_1400,P3,PLC_L_D1S1,NHG,60.0156727895,
stim/posf.jpg,stim/negf.jpg,stim/2.jpg,stim/3.jpg,stim/latef.jpg,AB,2,4,,,,,,,,,,,,,0,32,32,10,,,,,,4,1,0.749757068315,,,,,,2015_Nov_10_1400,P3,PLC_L_D1S1,NHG,60.0156727895,
stim/posf.jpg,stim/negf.jpg,stim/1.jpg,stim/5.jpg,stim/latef.jpg,CD,2,4,,,,,,,,,,,,,0,33,33,30,,,,,,4,1,0.733101024045,,,,,,2015_Nov_10_1400,P3,PLC_L_D1S1,NHG,60.0156727895,
stim/posf.jpg,stim/negf.jpg,stim/1.jpg,stim/5.jpg,stim/latef.jpg,CD,2,4,,,,,,,,,,,,,0,34,34,33,,,,,,4,1,0.666425768034,,,,,,2015_Nov_10_1400,P3,PLC_L_D1S1,NHG,60.0156727895,
stim/posf.jpg,stim/negf.jpg,stim/2.jpg,stim/3.jpg,stim/latef.jpg,AB,2,4,,,,,,,,,,,,,0,35,35,13,,,,,,4,1,0.78305315108,,,,,,2015_Nov_10_1400,P3,PLC_L_D1S1,NHG,60.0156727895,
stim/posf.jpg,stim/negf.jpg,stim/5.jpg,stim/1.jpg,stim/latef.jpg,CD,1,2,,,,,,,,,,,,,0,36,36,25,,,,,,2,1,0.749747985745,,,,,,2015_Nov_10_1400,P3,PLC_L_D1S1,NHG,60.0156727895,
stim/posf.jpg,stim/negf.jpg,stim/3.jpg,stim/2.jpg,stim/latef.jpg,AB,1,2,,,,,,,,,,,,,0,37,37,0,,,,,,2,1,1.03304940978,,,,,,2015_Nov_10_1400,P3,PLC_L_D1S1,NHG,60.0156727895,
stim/posf.jpg,stim/negf.jpg,stim/6.jpg,stim/4.jpg,stim/latef.jpg,EF,1,2,,,,,,,,,,,,,0,38,38,41,,,,,,2,1,0.83302560563,,,,,,2015_Nov_10_1400,P3,PLC_L_D1S1,NHG,60.0156727895,
stim/negf.jpg,stim/posf.jpg,stim/5.jpg,stim/1.jpg,stim/latef.jpg,CD,1,2,,,,,,,,,,,,,0,39,39,28,,,,,,2,1,0.716410890062,,,,,,2015_Nov_10_1400,P3,PLC_L_D1S1,NHG,60.0156727895,
stim/posf.jpg,stim/negf.jpg,stim/2.jpg,stim/3.jpg,stim/latef.jpg,AB,2,4,,,,,,,,,,,,,0,40,40,14,,,,,,4,1,0.633115856905,,,,,,2015_Nov_10_1400,P3,PLC_L_D1S1,NHG,60.0156727895,
stim/negf.jpg,stim/posf.jpg,stim/5.jpg,stim/1.jpg,stim/latef.jpg,CD,1,2,,,,,,,,,,,,,0,41,41,27,,,,,,2,1,0.799711841927,,,,,,2015_Nov_10_1400,P3,PLC_L_D1S1,NHG,60.0156727895,
stim/posf.jpg,stim/negf.jpg,stim/1.jpg,stim/5.jpg,stim/latef.jpg,CD,2,4,,,,,,,,,,,,,0,42,42,36,,,,,,4,1,0.749748006797,,,,,,2015_Nov_10_1400,P3,PLC_L_D1S1,NHG,60.0156727895,
stim/negf.jpg,stim/posf.jpg,stim/5.jpg,stim/1.jpg,stim/latef.jpg,CD,1,2,,,,,,,,,,,,,0,43,43,29,,,,,,2,1,0.583132632592,,,,,,2015_Nov_10_1400,P3,PLC_L_D1S1,NHG,60.0156727895,
stim/posf.jpg,stim/negf.jpg,stim/1.jpg,stim/5.jpg,stim/latef.jpg,CD,2,4,,,,,,,,,,,,,0,44,44,35,,,,,,4,1,0.616442540713,,,,,,2015_Nov_10_1400,P3,PLC_L_D1S1,NHG,60.0156727895,
stim/negf.jpg,stim/posf.jpg,stim/6.jpg,stim/4.jpg,stim/latef.jpg,EF,1,2,,,,,,,,,,,,,0,45,45,47,,,,,,4,0,0.633122795146,,,,,,2015_Nov_10_1400,P3,PLC_L_D1S1,NHG,60.0156727895,
stim/negf.jpg,stim/posf.jpg,stim/2.jpg,stim/3.jpg,stim/latef.jpg,AB,2,4,,,,,,,,,,,,,0,46,46,19,,,,,,4,1,0.749715694501,,,,,,2015_Nov_10_1400,P3,PLC_L_D1S1,NHG,60.0156727895,
stim/negf.jpg,stim/posf.jpg,stim/6.jpg,stim/4.jpg,stim/latef.jpg,EF,1,2,,,,,,,,,,,,,0,47,47,49,,,,,,2,1,0.683105577359,,,,,,2015_Nov_10_1400,P3,PLC_L_D1S1,NHG,60.0156727895,
stim/posf.jpg,stim/negf.jpg,stim/3.jpg,stim/2.jpg,stim/latef.jpg,AB,1,2,,,,,,,,,,,,,0,48,48,4,,,,,,2,1,0.666427398085,,,,,,2015_Nov_10_1400,P3,PLC_L_D1S1,NHG,60.0156727895,
stim/posf.jpg,stim/negf.jpg,stim/5.jpg,stim/1.jpg,stim/latef.jpg,CD,1,2,,,,,,,,,,,,,0,49,49,20,,,,,,2,1,0.833047536127,,,,,,2015_Nov_10_1400,P3,PLC_L_D1S1,NHG,60.0156727895,
stim/posf.jpg,stim/negf.jpg,stim/6.jpg,stim/4.jpg,stim/latef.jpg,EF,1,2,,,,,,,,,,,,,0,50,50,45,,,,,,2,1,0.799731435617,,,,,,2015_Nov_10_1400,P3,PLC_L_D1S1,NHG,60.0156727895,
stim/posf.jpg,stim/negf.jpg,stim/6.jpg,stim/4.jpg,stim/latef.jpg,EF,1,2,,,,,,,,,,,,,0,51,51,40,,,,,,2,1,0.533099499256,,,,,,2015_Nov_10_1400,P3,PLC_L_D1S1,NHG,60.0156727895,
stim/posf.jpg,stim/negf.jpg,stim/1.jpg,stim/5.jpg,stim/latef.jpg,CD,2,4,,,,,,,,,,,,,0,52,52,32,,,,,,4,1,0.666430465707,,,,,,2015_Nov_10_1400,P3,PLC_L_D1S1,NHG,60.0156727895,
stim/negf.jpg,stim/posf.jpg,stim/3.jpg,stim/2.jpg,stim/latef.jpg,AB,1,2,,,,,,,,,,,,,0,53,53,9,,,,,,2,1,0.683145997805,,,,,,2015_Nov_10_1400,P3,PLC_L_D1S1,NHG,60.0156727895,
stim/negf.jpg,stim/posf.jpg,stim/4.jpg,stim/6.jpg,stim/latef.jpg,EF,2,4,,,,,,,,,,,,,0,54,54,57,,,,,,4,1,0.716355606683,,,,,,2015_Nov_10_1400,P3,PLC_L_D1S1,NHG,60.0156727895,
stim/posf.jpg,stim/negf.jpg,stim/5.jpg,stim/1.jpg,stim/latef.jpg,CD,1,2,,,,,,,,,,,,,0,55,55,22,,,,,,4,0,0.883038934752,,,,,,2015_Nov_10_1400,P3,PLC_L_D1S1,NHG,60.0156727895,
stim/posf.jpg,stim/negf.jpg,stim/4.jpg,stim/6.jpg,stim/latef.jpg,EF,2,4,,,,,,,,,,,,,0,56,56,53,,,,,,4,1,0.733156707418,,,,,,2015_Nov_10_1400,P3,PLC_L_D1S1,NHG,60.0156727895,
stim/negf.jpg,stim/posf.jpg,stim/2.jpg,stim/3.jpg,stim/latef.jpg,AB,2,4,,,,,,,,,,,,,0,57,57,18,,,,,,4,1,0.766417286957,,,,,,2015_Nov_10_1400,P3,PLC_L_D1S1,NHG,60.0156727895,
stim/posf.jpg,stim/negf.jpg,stim/6.jpg,stim/4.jpg,stim/latef.jpg,EF,1,2,,,,,,,,,,,,,0,58,58,42,,,,,,2,1,0.76643099803,,,,,,2015_Nov_10_1400,P3,PLC_L_D1S1,NHG,60.0156727895,
stim/negf.jpg,stim/posf.jpg,stim/4.jpg,stim/6.jpg,stim/latef.jpg,EF,2,4,,,,,,,,,,,,,0,59,59,58,,,,,,4,1,0.583141591856,,,,,,2015_Nov_10_1400,P3,PLC_L_D1S1,NHG,60.0156727895,
