fb_corr,fb_incorr,symbol2,symbol1,fb_late,pair,position,correct,block_01.thisRepN,block_01.thisTrialN,block_01.thisN,block_01.thisIndex,block_02.thisRepN,block_02.thisTrialN,block_02.thisN,block_02.thisIndex,block_03.thisRepN,block_03.thisTrialN,block_03.thisN,block_03.thisIndex,block_04.thisRepN,block_04.thisTrialN,block_04.thisN,block_04.thisIndex,mouse.x,mouse.y,mouse.leftButton,mouse.midButton,mouse.rightButton,buttonBox_2.keys,buttonBox_2.corr,buttonBox_2.rt,mouse_2.x,mouse_2.y,mouse_2.leftButton,mouse_2.midButton,mouse_2.rightButton,date,Participant,expName,Group,frameRate,
,,,,,,,,,,,,,,,,,,,,,,,,0.9984375,1.0,1,0,0,,,,,,,,,2015_Nov_16_1715,P6,PLC_L_D1S1,NHG,60.0129952467,
stim/posf.jpg,stim/negf.jpg,stim/5.jpg,stim/3.jpg,stim/latef.jpg,CD,2,4,0,0,0,33,,,,,,,,,,,,,,,,,,2,0,0.799785946669,,,,,,2015_Nov_16_1715,P6,PLC_L_D1S1,NHG,60.0129952467,
stim/posf.jpg,stim/negf.jpg,stim/1.jpg,stim/2.jpg,stim/latef.jpg,AB,1,2,0,1,1,6,,,,,,,,,,,,,,,,,,2,1,0.866380357968,,,,,,2015_Nov_16_1715,P6,PLC_L_D1S1,NHG,60.0129952467,
stim/posf.jpg,stim/negf.jpg,stim/6.jpg,stim/4.jpg,stim/latef.jpg,EF,1,2,0,2,2,44,,,,,,,,,,,,,,,,,,2,1,0.949688005685,,,,,,2015_Nov_16_1715,P6,PLC_L_D1S1,NHG,60.0129952467,
stim/negf.jpg,stim/posf.jpg,stim/3.jpg,stim/5.jpg,stim/latef.jpg,CD,1,2,0,3,3,28,,,,,,,,,,,,,,,,,,2,1,0.94962910365,,,,,,2015_Nov_16_1715,P6,PLC_L_D1S1,NHG,60.0129952467,
stim/negf.jpg,stim/posf.jpg,stim/4.jpg,stim/6.jpg,stim/latef.jpg,EF,2,4,0,4,4,56,,,,,,,,,,,,,,,,,,2,0,0.716427760797,,,,,,2015_Nov_16_1715,P6,PLC_L_D1S1,NHG,60.0129952467,
stim/posf.jpg,stim/negf.jpg,stim/2.jpg,stim/1.jpg,stim/latef.jpg,AB,2,4,0,5,5,11,,,,,,,,,,,,,,,,,,4,1,0.866382108339,,,,,,2015_Nov_16_1715,P6,PLC_L_D1S1,NHG,60.0129952467,
stim/posf.jpg,stim/negf.jpg,stim/1.jpg,stim/2.jpg,stim/latef.jpg,AB,1,2,0,6,6,4,,,,,,,,,,,,,,,,,,2,1,0.716423823971,,,,,,2015_Nov_16_1715,P6,PLC_L_D1S1,NHG,60.0129952467,
stim/posf.jpg,stim/negf.jpg,stim/3.jpg,stim/5.jpg,stim/latef.jpg,CD,1,2,0,7,7,26,,,,,,,,,,,,,,,,,,4,0,0.783067630571,,,,,,2015_Nov_16_1715,P6,PLC_L_D1S1,NHG,60.0129952467,
stim/negf.jpg,stim/posf.jpg,stim/4.jpg,stim/6.jpg,stim/latef.jpg,EF,2,4,0,8,8,58,,,,,,,,,,,,,,,,,,2,0,0.816435793851,,,,,,2015_Nov_16_1715,P6,PLC_L_D1S1,NHG,60.0129952467,
stim/posf.jpg,stim/negf.jpg,stim/6.jpg,stim/4.jpg,stim/latef.jpg,EF,1,2,0,9,9,40,,,,,,,,,,,,,,,,,,4,0,0.849731852135,,,,,,2015_Nov_16_1715,P6,PLC_L_D1S1,NHG,60.0129952467,
stim/posf.jpg,stim/negf.jpg,stim/5.jpg,stim/3.jpg,stim/latef.jpg,CD,2,4,0,10,10,36,,,,,,,,,,,,,,,,,,2,0,0.733105728174,,,,,,2015_Nov_16_1715,P6,PLC_L_D1S1,NHG,60.0129952467,
stim/posf.jpg,stim/negf.jpg,stim/5.jpg,stim/3.jpg,stim/latef.jpg,CD,2,4,0,11,11,31,,,,,,,,,,,,,,,,,,4,1,0.299887068093,,,,,,2015_Nov_16_1715,P6,PLC_L_D1S1,NHG,60.0129952467,
stim/negf.jpg,stim/posf.jpg,stim/5.jpg,stim/3.jpg,stim/latef.jpg,CD,2,4,0,12,12,37,,,,,,,,,,,,,,,,,,2,0,0.566466908018,,,,,,2015_Nov_16_1715,P6,PLC_L_D1S1,NHG,60.0129952467,
stim/posf.jpg,stim/negf.jpg,stim/1.jpg,stim/2.jpg,stim/latef.jpg,AB,1,2,0,13,13,5,,,,,,,,,,,,,,,,,,2,1,0.849745482159,,,,,,2015_Nov_16_1715,P6,PLC_L_D1S1,NHG,60.0129952467,
stim/posf.jpg,stim/negf.jpg,stim/2.jpg,stim/1.jpg,stim/latef.jpg,AB,2,4,0,14,14,12,,,,,,,,,,,,,,,,,,4,1,0.89971058154,,,,,,2015_Nov_16_1715,P6,PLC_L_D1S1,NHG,60.0129952467,
stim/negf.jpg,stim/posf.jpg,stim/6.jpg,stim/4.jpg,stim/latef.jpg,EF,1,2,0,15,15,49,,,,,,,,,,,,,,,,,,2,1,0.816408088691,,,,,,2015_Nov_16_1715,P6,PLC_L_D1S1,NHG,60.0129952467,
stim/posf.jpg,stim/negf.jpg,stim/6.jpg,stim/4.jpg,stim/latef.jpg,EF,1,2,0,16,16,42,,,,,,,,,,,,,,,,,,4,0,0.583167260273,,,,,,2015_Nov_16_1715,P6,PLC_L_D1S1,NHG,60.0129952467,
stim/posf.jpg,stim/negf.jpg,stim/2.jpg,stim/1.jpg,stim/latef.jpg,AB,2,4,0,17,17,15,,,,,,,,,,,,,,,,,,4,1,0.583158857298,,,,,,2015_Nov_16_1715,P6,PLC_L_D1S1,NHG,60.0129952467,
stim/posf.jpg,stim/negf.jpg,stim/1.jpg,stim/2.jpg,stim/latef.jpg,AB,1,2,0,18,18,3,,,,,,,,,,,,,,,,,,4,0,1.1329134492,,,,,,2015_Nov_16_1715,P6,PLC_L_D1S1,NHG,60.0129952467,
stim/posf.jpg,stim/negf.jpg,stim/5.jpg,stim/3.jpg,stim/latef.jpg,CD,2,4,0,19,19,32,,,,,,,,,,,,,,,,,,2,0,1.31622793899,,,,,,2015_Nov_16_1715,P6,PLC_L_D1S1,NHG,60.0129952467,
stim/posf.jpg,stim/negf.jpg,stim/4.jpg,stim/6.jpg,stim/latef.jpg,EF,2,4,0,20,20,52,,,,,,,,,,,,,,,,,,2,0,0.933003824797,,,,,,2015_Nov_16_1715,P6,PLC_L_D1S1,NHG,60.0129952467,
stim/posf.jpg,stim/negf.jpg,stim/1.jpg,stim/2.jpg,stim/latef.jpg,AB,1,2,0,21,21,1,,,,,,,,,,,,,,,,,,2,1,0.366491611687,,,,,,2015_Nov_16_1715,P6,PLC_L_D1S1,NHG,60.0129952467,
stim/posf.jpg,stim/negf.jpg,stim/3.jpg,stim/5.jpg,stim/latef.jpg,CD,1,2,0,22,22,24,,,,,,,,,,,,,,,,,,4,0,0.799756000917,,,,,,2015_Nov_16_1715,P6,PLC_L_D1S1,NHG,60.0129952467,
stim/posf.jpg,stim/negf.jpg,stim/4.jpg,stim/6.jpg,stim/latef.jpg,EF,2,4,0,23,23,54,,,,,,,,,,,,,,,,,,4,1,0.79977886399,,,,,,2015_Nov_16_1715,P6,PLC_L_D1S1,NHG,60.0129952467,
stim/posf.jpg,stim/negf.jpg,stim/3.jpg,stim/5.jpg,stim/latef.jpg,CD,1,2,0,24,24,25,,,,,,,,,,,,,,,,,,2,1,1.19959896391,,,,,,2015_Nov_16_1715,P6,PLC_L_D1S1,NHG,60.0129952467,
stim/posf.jpg,stim/negf.jpg,stim/2.jpg,stim/1.jpg,stim/latef.jpg,AB,2,4,0,25,25,16,,,,,,,,,,,,,,,,,,4,1,0.833004540586,,,,,,2015_Nov_16_1715,P6,PLC_L_D1S1,NHG,60.0129952467,
stim/posf.jpg,stim/negf.jpg,stim/6.jpg,stim/4.jpg,stim/latef.jpg,EF,1,2,0,26,26,43,,,,,,,,,,,,,,,,,,4,0,1.33284904643,,,,,,2015_Nov_16_1715,P6,PLC_L_D1S1,NHG,60.0129952467,
stim/negf.jpg,stim/posf.jpg,stim/2.jpg,stim/1.jpg,stim/latef.jpg,AB,2,4,0,27,27,18,,,,,,,,,,,,,,,,,,4,1,0.816410317255,,,,,,2015_Nov_16_1715,P6,PLC_L_D1S1,NHG,60.0129952467,
stim/posf.jpg,stim/negf.jpg,stim/4.jpg,stim/6.jpg,stim/latef.jpg,EF,2,4,0,28,28,55,,,,,,,,,,,,,,,,,,2,0,0.299901591346,,,,,,2015_Nov_16_1715,P6,PLC_L_D1S1,NHG,60.0129952467,
stim/negf.jpg,stim/posf.jpg,stim/6.jpg,stim/4.jpg,stim/latef.jpg,EF,1,2,0,29,29,46,,,,,,,,,,,,,,,,,,2,1,0.533154224231,,,,,,2015_Nov_16_1715,P6,PLC_L_D1S1,NHG,60.0129952467,
stim/posf.jpg,stim/negf.jpg,stim/6.jpg,stim/4.jpg,stim/latef.jpg,EF,1,2,0,30,30,41,,,,,,,,,,,,,,,,,,4,0,0.516511968,,,,,,2015_Nov_16_1715,P6,PLC_L_D1S1,NHG,60.0129952467,
stim/posf.jpg,stim/negf.jpg,stim/3.jpg,stim/5.jpg,stim/latef.jpg,CD,1,2,0,31,31,20,,,,,,,,,,,,,,,,,,4,0,0.649788278992,,,,,,2015_Nov_16_1715,P6,PLC_L_D1S1,NHG,60.0129952467,
stim/posf.jpg,stim/negf.jpg,stim/3.jpg,stim/5.jpg,stim/latef.jpg,CD,1,2,0,32,32,22,,,,,,,,,,,,,,,,,,4,0,0.683061317814,,,,,,2015_Nov_16_1715,P6,PLC_L_D1S1,NHG,60.0129952467,
stim/posf.jpg,stim/negf.jpg,stim/5.jpg,stim/3.jpg,stim/latef.jpg,CD,2,4,0,33,33,35,,,,,,,,,,,,,,,,,,4,1,0.383183834647,,,,,,2015_Nov_16_1715,P6,PLC_L_D1S1,NHG,60.0129952467,
stim/posf.jpg,stim/negf.jpg,stim/1.jpg,stim/2.jpg,stim/latef.jpg,AB,1,2,0,34,34,7,,,,,,,,,,,,,,,,,,4,0,1.29960404059,,,,,,2015_Nov_16_1715,P6,PLC_L_D1S1,NHG,60.0129952467,
stim/posf.jpg,stim/negf.jpg,stim/2.jpg,stim/1.jpg,stim/latef.jpg,AB,2,4,0,35,35,14,,,,,,,,,,,,,,,,,,4,1,0.79972847621,,,,,,2015_Nov_16_1715,P6,PLC_L_D1S1,NHG,60.0129952467,
stim/negf.jpg,stim/posf.jpg,stim/1.jpg,stim/2.jpg,stim/latef.jpg,AB,1,2,0,36,36,8,,,,,,,,,,,,,,,,,,2,1,0.899716740914,,,,,,2015_Nov_16_1715,P6,PLC_L_D1S1,NHG,60.0129952467,
stim/posf.jpg,stim/negf.jpg,stim/3.jpg,stim/5.jpg,stim/latef.jpg,CD,1,2,0,37,37,21,,,,,,,,,,,,,,,,,,4,0,1.04965785241,,,,,,2015_Nov_16_1715,P6,PLC_L_D1S1,NHG,60.0129952467,
stim/negf.jpg,stim/posf.jpg,stim/4.jpg,stim/6.jpg,stim/latef.jpg,EF,2,4,0,38,38,57,,,,,,,,,,,,,,,,,,2,0,0.699773790324,,,,,,2015_Nov_16_1715,P6,PLC_L_D1S1,NHG,60.0129952467,
stim/posf.jpg,stim/negf.jpg,stim/4.jpg,stim/6.jpg,stim/latef.jpg,EF,2,4,0,39,39,50,,,,,,,,,,,,,,,,,,2,0,0.69978616321,,,,,,2015_Nov_16_1715,P6,PLC_L_D1S1,NHG,60.0129952467,
stim/negf.jpg,stim/posf.jpg,stim/5.jpg,stim/3.jpg,stim/latef.jpg,CD,2,4,0,40,40,38,,,,,,,,,,,,,,,,,,2,0,0.866424017955,,,,,,2015_Nov_16_1715,P6,PLC_L_D1S1,NHG,60.0129952467,
stim/negf.jpg,stim/posf.jpg,stim/6.jpg,stim/4.jpg,stim/latef.jpg,EF,1,2,0,41,41,48,,,,,,,,,,,,,,,,,,2,1,1.26628984703,,,,,,2015_Nov_16_1715,P6,PLC_L_D1S1,NHG,60.0129952467,
stim/posf.jpg,stim/negf.jpg,stim/1.jpg,stim/2.jpg,stim/latef.jpg,AB,1,2,0,42,42,2,,,,,,,,,,,,,,,,,,2,1,0.633130091992,,,,,,2015_Nov_16_1715,P6,PLC_L_D1S1,NHG,60.0129952467,
stim/posf.jpg,stim/negf.jpg,stim/2.jpg,stim/1.jpg,stim/latef.jpg,AB,2,4,0,43,43,13,,,,,,,,,,,,,,,,,,4,1,0.79970842215,,,,,,2015_Nov_16_1715,P6,PLC_L_D1S1,NHG,60.0129952467,
stim/posf.jpg,stim/negf.jpg,stim/5.jpg,stim/3.jpg,stim/latef.jpg,CD,2,4,0,44,44,30,,,,,,,,,,,,,,,,,,None,0,,,,,,,2015_Nov_16_1715,P6,PLC_L_D1S1,NHG,60.0129952467,
stim/posf.jpg,stim/negf.jpg,stim/4.jpg,stim/6.jpg,stim/latef.jpg,EF,2,4,0,45,45,51,,,,,,,,,,,,,,,,,,2,0,1.18295802798,,,,,,2015_Nov_16_1715,P6,PLC_L_D1S1,NHG,60.0129952467,
stim/posf.jpg,stim/negf.jpg,stim/1.jpg,stim/2.jpg,stim/latef.jpg,AB,1,2,0,46,46,0,,,,,,,,,,,,,,,,,,4,0,0.399812626269,,,,,,2015_Nov_16_1715,P6,PLC_L_D1S1,NHG,60.0129952467,
stim/negf.jpg,stim/posf.jpg,stim/2.jpg,stim/1.jpg,stim/latef.jpg,AB,2,4,0,47,47,19,,,,,,,,,,,,,,,,,,2,0,0.399853531377,,,,,,2015_Nov_16_1715,P6,PLC_L_D1S1,NHG,60.0129952467,
stim/posf.jpg,stim/negf.jpg,stim/3.jpg,stim/5.jpg,stim/latef.jpg,CD,1,2,0,48,48,23,,,,,,,,,,,,,,,,,,4,0,0.466501232702,,,,,,2015_Nov_16_1715,P6,PLC_L_D1S1,NHG,60.0129952467,
stim/posf.jpg,stim/negf.jpg,stim/2.jpg,stim/1.jpg,stim/latef.jpg,AB,2,4,0,49,49,17,,,,,,,,,,,,,,,,,,4,1,0.833096633471,,,,,,2015_Nov_16_1715,P6,PLC_L_D1S1,NHG,60.0129952467,
stim/posf.jpg,stim/negf.jpg,stim/5.jpg,stim/3.jpg,stim/latef.jpg,CD,2,4,0,50,50,34,,,,,,,,,,,,,,,,,,2,0,0.933029508913,,,,,,2015_Nov_16_1715,P6,PLC_L_D1S1,NHG,60.0129952467,
stim/posf.jpg,stim/negf.jpg,stim/2.jpg,stim/1.jpg,stim/latef.jpg,AB,2,4,0,51,51,10,,,,,,,,,,,,,,,,,,4,1,0.766418619478,,,,,,2015_Nov_16_1715,P6,PLC_L_D1S1,NHG,60.0129952467,
stim/posf.jpg,stim/negf.jpg,stim/4.jpg,stim/6.jpg,stim/latef.jpg,EF,2,4,0,52,52,53,,,,,,,,,,,,,,,,,,2,0,1.04961372927,,,,,,2015_Nov_16_1715,P6,PLC_L_D1S1,NHG,60.0129952467,
stim/negf.jpg,stim/posf.jpg,stim/1.jpg,stim/2.jpg,stim/latef.jpg,AB,1,2,0,53,53,9,,,,,,,,,,,,,,,,,,4,0,0.516491874843,,,,,,2015_Nov_16_1715,P6,PLC_L_D1S1,NHG,60.0129952467,
stim/negf.jpg,stim/posf.jpg,stim/4.jpg,stim/6.jpg,stim/latef.jpg,EF,2,4,0,54,54,59,,,,,,,,,,,,,,,,,,2,0,1.09964338179,,,,,,2015_Nov_16_1715,P6,PLC_L_D1S1,NHG,60.0129952467,
stim/posf.jpg,stim/negf.jpg,stim/6.jpg,stim/4.jpg,stim/latef.jpg,EF,1,2,0,55,55,45,,,,,,,,,,,,,,,,,,2,1,0.783073711753,,,,,,2015_Nov_16_1715,P6,PLC_L_D1S1,NHG,60.0129952467,
stim/negf.jpg,stim/posf.jpg,stim/3.jpg,stim/5.jpg,stim/latef.jpg,CD,1,2,0,56,56,29,,,,,,,,,,,,,,,,,,2,1,0.966353269348,,,,,,2015_Nov_16_1715,P6,PLC_L_D1S1,NHG,60.0129952467,
stim/negf.jpg,stim/posf.jpg,stim/3.jpg,stim/5.jpg,stim/latef.jpg,CD,1,2,0,57,57,27,,,,,,,,,,,,,,,,,,4,0,0.8663805715,,,,,,2015_Nov_16_1715,P6,PLC_L_D1S1,NHG,60.0129952467,
stim/negf.jpg,stim/posf.jpg,stim/5.jpg,stim/3.jpg,stim/latef.jpg,CD,2,4,0,58,58,39,,,,,,,,,,,,,,,,,,2,0,0.783059293761,,,,,,2015_Nov_16_1715,P6,PLC_L_D1S1,NHG,60.0129952467,
stim/negf.jpg,stim/posf.jpg,stim/6.jpg,stim/4.jpg,stim/latef.jpg,EF,1,2,0,59,59,47,,,,,,,,,,,,,,,,,,4,0,1.06630515825,,,,,,2015_Nov_16_1715,P6,PLC_L_D1S1,NHG,60.0129952467,
,,,,,,,,,,,,,,,,,,,,,,,,,,,,,,,,0.9984375,1.0,1,0,0,2015_Nov_16_1715,P6,PLC_L_D1S1,NHG,60.0129952467,
stim/negf.jpg,stim/posf.jpg,stim/5.jpg,stim/3.jpg,stim/latef.jpg,CD,2,4,,,,,0,0,0,38,,,,,,,,,,,,,,2,0,0.899731616046,,,,,,2015_Nov_16_1715,P6,PLC_L_D1S1,NHG,60.0129952467,
stim/negf.jpg,stim/posf.jpg,stim/6.jpg,stim/4.jpg,stim/latef.jpg,EF,1,2,,,,,0,1,1,46,,,,,,,,,,,,,,4,0,0.549878654592,,,,,,2015_Nov_16_1715,P6,PLC_L_D1S1,NHG,60.0129952467,
stim/posf.jpg,stim/negf.jpg,stim/1.jpg,stim/2.jpg,stim/latef.jpg,AB,1,2,,,,,0,2,2,2,,,,,,,,,,,,,,2,1,0.783078695193,,,,,,2015_Nov_16_1715,P6,PLC_L_D1S1,NHG,60.0129952467,
stim/posf.jpg,stim/negf.jpg,stim/2.jpg,stim/1.jpg,stim/latef.jpg,AB,2,4,,,,,0,3,3,13,,,,,,,,,,,,,,2,0,1.16630501991,,,,,,2015_Nov_16_1715,P6,PLC_L_D1S1,NHG,60.0129952467,
stim/posf.jpg,stim/negf.jpg,stim/6.jpg,stim/4.jpg,stim/latef.jpg,EF,1,2,,,,,0,4,4,40,,,,,,,,,,,,,,4,0,0.716388988012,,,,,,2015_Nov_16_1715,P6,PLC_L_D1S1,NHG,60.0129952467,
stim/posf.jpg,stim/negf.jpg,stim/5.jpg,stim/3.jpg,stim/latef.jpg,CD,2,4,,,,,0,5,5,30,,,,,,,,,,,,,,2,0,0.433180130902,,,,,,2015_Nov_16_1715,P6,PLC_L_D1S1,NHG,60.0129952467,
stim/posf.jpg,stim/negf.jpg,stim/2.jpg,stim/1.jpg,stim/latef.jpg,AB,2,4,,,,,0,6,6,10,,,,,,,,,,,,,,4,1,0.449825713436,,,,,,2015_Nov_16_1715,P6,PLC_L_D1S1,NHG,60.0129952467,
stim/negf.jpg,stim/posf.jpg,stim/1.jpg,stim/2.jpg,stim/latef.jpg,AB,1,2,,,,,0,7,7,8,,,,,,,,,,,,,,2,1,0.699762752773,,,,,,2015_Nov_16_1715,P6,PLC_L_D1S1,NHG,60.0129952467,
stim/posf.jpg,stim/negf.jpg,stim/4.jpg,stim/6.jpg,stim/latef.jpg,EF,2,4,,,,,0,8,8,50,,,,,,,,,,,,,,4,1,0.533179249702,,,,,,2015_Nov_16_1715,P6,PLC_L_D1S1,NHG,60.0129952467,
stim/posf.jpg,stim/negf.jpg,stim/1.jpg,stim/2.jpg,stim/latef.jpg,AB,1,2,,,,,0,9,9,5,,,,,,,,,,,,,,2,1,1.29958675343,,,,,,2015_Nov_16_1715,P6,PLC_L_D1S1,NHG,60.0129952467,
stim/posf.jpg,stim/negf.jpg,stim/1.jpg,stim/2.jpg,stim/latef.jpg,AB,1,2,,,,,0,10,10,1,,,,,,,,,,,,,,2,1,0.483187236139,,,,,,2015_Nov_16_1715,P6,PLC_L_D1S1,NHG,60.0129952467,
stim/negf.jpg,stim/posf.jpg,stim/6.jpg,stim/4.jpg,stim/latef.jpg,EF,1,2,,,,,0,11,11,48,,,,,,,,,,,,,,4,0,0.683158114443,,,,,,2015_Nov_16_1715,P6,PLC_L_D1S1,NHG,60.0129952467,
stim/posf.jpg,stim/negf.jpg,stim/3.jpg,stim/5.jpg,stim/latef.jpg,CD,1,2,,,,,0,12,12,23,,,,,,,,,,,,,,2,1,1.26629110417,,,,,,2015_Nov_16_1715,P6,PLC_L_D1S1,NHG,60.0129952467,
stim/negf.jpg,stim/posf.jpg,stim/2.jpg,stim/1.jpg,stim/latef.jpg,AB,2,4,,,,,0,13,13,19,,,,,,,,,,,,,,4,1,0.883044427654,,,,,,2015_Nov_16_1715,P6,PLC_L_D1S1,NHG,60.0129952467,
stim/posf.jpg,stim/negf.jpg,stim/2.jpg,stim/1.jpg,stim/latef.jpg,AB,2,4,,,,,0,14,14,11,,,,,,,,,,,,,,4,1,0.949663308034,,,,,,2015_Nov_16_1715,P6,PLC_L_D1S1,NHG,60.0129952467,
stim/posf.jpg,stim/negf.jpg,stim/1.jpg,stim/2.jpg,stim/latef.jpg,AB,1,2,,,,,0,15,15,0,,,,,,,,,,,,,,2,1,0.849729563422,,,,,,2015_Nov_16_1715,P6,PLC_L_D1S1,NHG,60.0129952467,
stim/posf.jpg,stim/negf.jpg,stim/3.jpg,stim/5.jpg,stim/latef.jpg,CD,1,2,,,,,0,16,16,24,,,,,,,,,,,,,,4,0,0.733105391333,,,,,,2015_Nov_16_1715,P6,PLC_L_D1S1,NHG,60.0129952467,
stim/posf.jpg,stim/negf.jpg,stim/5.jpg,stim/3.jpg,stim/latef.jpg,CD,2,4,,,,,0,17,17,33,,,,,,,,,,,,,,2,0,0.516499832707,,,,,,2015_Nov_16_1715,P6,PLC_L_D1S1,NHG,60.0129952467,
stim/negf.jpg,stim/posf.jpg,stim/4.jpg,stim/6.jpg,stim/latef.jpg,EF,2,4,,,,,0,18,18,59,,,,,,,,,,,,,,4,1,0.74974854681,,,,,,2015_Nov_16_1715,P6,PLC_L_D1S1,NHG,60.0129952467,
stim/posf.jpg,stim/negf.jpg,stim/5.jpg,stim/3.jpg,stim/latef.jpg,CD,2,4,,,,,0,19,19,36,,,,,,,,,,,,,,2,0,0.433182025632,,,,,,2015_Nov_16_1715,P6,PLC_L_D1S1,NHG,60.0129952467,
stim/posf.jpg,stim/negf.jpg,stim/2.jpg,stim/1.jpg,stim/latef.jpg,AB,2,4,,,,,0,20,20,14,,,,,,,,,,,,,,4,1,0.633125631857,,,,,,2015_Nov_16_1715,P6,PLC_L_D1S1,NHG,60.0129952467,
stim/posf.jpg,stim/negf.jpg,stim/4.jpg,stim/6.jpg,stim/latef.jpg,EF,2,4,,,,,0,21,21,54,,,,,,,,,,,,,,4,1,0.399832205143,,,,,,2015_Nov_16_1715,P6,PLC_L_D1S1,NHG,60.0129952467,
stim/posf.jpg,stim/negf.jpg,stim/5.jpg,stim/3.jpg,stim/latef.jpg,CD,2,4,,,,,0,22,22,34,,,,,,,,,,,,,,4,1,0.649799596242,,,,,,2015_Nov_16_1715,P6,PLC_L_D1S1,NHG,60.0129952467,
stim/posf.jpg,stim/negf.jpg,stim/2.jpg,stim/1.jpg,stim/latef.jpg,AB,2,4,,,,,0,23,23,15,,,,,,,,,,,,,,4,1,0.899714978515,,,,,,2015_Nov_16_1715,P6,PLC_L_D1S1,NHG,60.0129952467,
stim/negf.jpg,stim/posf.jpg,stim/5.jpg,stim/3.jpg,stim/latef.jpg,CD,2,4,,,,,0,24,24,39,,,,,,,,,,,,,,2,0,0.683121573227,,,,,,2015_Nov_16_1715,P6,PLC_L_D1S1,NHG,60.0129952467,
stim/posf.jpg,stim/negf.jpg,stim/5.jpg,stim/3.jpg,stim/latef.jpg,CD,2,4,,,,,0,25,25,31,,,,,,,,,,,,,,2,0,0.899700145488,,,,,,2015_Nov_16_1715,P6,PLC_L_D1S1,NHG,60.0129952467,
stim/posf.jpg,stim/negf.jpg,stim/4.jpg,stim/6.jpg,stim/latef.jpg,EF,2,4,,,,,0,26,26,53,,,,,,,,,,,,,,4,1,0.516445502084,,,,,,2015_Nov_16_1715,P6,PLC_L_D1S1,NHG,60.0129952467,
stim/negf.jpg,stim/posf.jpg,stim/6.jpg,stim/4.jpg,stim/latef.jpg,EF,1,2,,,,,0,27,27,49,,,,,,,,,,,,,,4,0,0.566400129323,,,,,,2015_Nov_16_1715,P6,PLC_L_D1S1,NHG,60.0129952467,
stim/negf.jpg,stim/posf.jpg,stim/5.jpg,stim/3.jpg,stim/latef.jpg,CD,2,4,,,,,0,28,28,37,,,,,,,,,,,,,,2,0,0.683051414093,,,,,,2015_Nov_16_1715,P6,PLC_L_D1S1,NHG,60.0129952467,
stim/posf.jpg,stim/negf.jpg,stim/3.jpg,stim/5.jpg,stim/latef.jpg,CD,1,2,,,,,0,29,29,22,,,,,,,,,,,,,,4,0,0.633036152496,,,,,,2015_Nov_16_1715,P6,PLC_L_D1S1,NHG,60.0129952467,
stim/negf.jpg,stim/posf.jpg,stim/4.jpg,stim/6.jpg,stim/latef.jpg,EF,2,4,,,,,0,30,30,56,,,,,,,,,,,,,,2,0,0.599809059364,,,,,,2015_Nov_16_1715,P6,PLC_L_D1S1,NHG,60.0129952467,
stim/posf.jpg,stim/negf.jpg,stim/6.jpg,stim/4.jpg,stim/latef.jpg,EF,1,2,,,,,0,31,31,41,,,,,,,,,,,,,,4,0,0.616455682497,,,,,,2015_Nov_16_1715,P6,PLC_L_D1S1,NHG,60.0129952467,
stim/negf.jpg,stim/posf.jpg,stim/3.jpg,stim/5.jpg,stim/latef.jpg,CD,1,2,,,,,0,32,32,29,,,,,,,,,,,,,,2,1,0.4165241063,,,,,,2015_Nov_16_1715,P6,PLC_L_D1S1,NHG,60.0129952467,
stim/posf.jpg,stim/negf.jpg,stim/2.jpg,stim/1.jpg,stim/latef.jpg,AB,2,4,,,,,0,33,33,16,,,,,,,,,,,,,,4,1,0.399912006347,,,,,,2015_Nov_16_1715,P6,PLC_L_D1S1,NHG,60.0129952467,
stim/posf.jpg,stim/negf.jpg,stim/1.jpg,stim/2.jpg,stim/latef.jpg,AB,1,2,,,,,0,34,34,7,,,,,,,,,,,,,,2,1,0.699763519686,,,,,,2015_Nov_16_1715,P6,PLC_L_D1S1,NHG,60.0129952467,
stim/posf.jpg,stim/negf.jpg,stim/4.jpg,stim/6.jpg,stim/latef.jpg,EF,2,4,,,,,0,35,35,51,,,,,,,,,,,,,,2,0,0.449853409575,,,,,,2015_Nov_16_1715,P6,PLC_L_D1S1,NHG,60.0129952467,
stim/posf.jpg,stim/negf.jpg,stim/2.jpg,stim/1.jpg,stim/latef.jpg,AB,2,4,,,,,0,36,36,17,,,,,,,,,,,,,,2,0,0.39991953113,,,,,,2015_Nov_16_1715,P6,PLC_L_D1S1,NHG,60.0129952467,
stim/posf.jpg,stim/negf.jpg,stim/3.jpg,stim/5.jpg,stim/latef.jpg,CD,1,2,,,,,0,37,37,21,,,,,,,,,,,,,,4,0,0.366546552832,,,,,,2015_Nov_16_1715,P6,PLC_L_D1S1,NHG,60.0129952467,
stim/posf.jpg,stim/negf.jpg,stim/3.jpg,stim/5.jpg,stim/latef.jpg,CD,1,2,,,,,0,38,38,20,,,,,,,,,,,,,,4,0,0.383216234526,,,,,,2015_Nov_16_1715,P6,PLC_L_D1S1,NHG,60.0129952467,
stim/posf.jpg,stim/negf.jpg,stim/1.jpg,stim/2.jpg,stim/latef.jpg,AB,1,2,,,,,0,39,39,6,,,,,,,,,,,,,,2,1,0.916362813674,,,,,,2015_Nov_16_1715,P6,PLC_L_D1S1,NHG,60.0129952467,
stim/posf.jpg,stim/negf.jpg,stim/6.jpg,stim/4.jpg,stim/latef.jpg,EF,1,2,,,,,0,40,40,44,,,,,,,,,,,,,,4,0,0.783091786874,,,,,,2015_Nov_16_1715,P6,PLC_L_D1S1,NHG,60.0129952467,
stim/posf.jpg,stim/negf.jpg,stim/2.jpg,stim/1.jpg,stim/latef.jpg,AB,2,4,,,,,0,41,41,12,,,,,,,,,,,,,,4,1,0.649795310545,,,,,,2015_Nov_16_1715,P6,PLC_L_D1S1,NHG,60.0129952467,
stim/negf.jpg,stim/posf.jpg,stim/4.jpg,stim/6.jpg,stim/latef.jpg,EF,2,4,,,,,0,42,42,58,,,,,,,,,,,,,,2,0,0.699759360303,,,,,,2015_Nov_16_1715,P6,PLC_L_D1S1,NHG,60.0129952467,
stim/posf.jpg,stim/negf.jpg,stim/6.jpg,stim/4.jpg,stim/latef.jpg,EF,1,2,,,,,0,43,43,42,,,,,,,,,,,,,,4,0,0.866367461776,,,,,,2015_Nov_16_1715,P6,PLC_L_D1S1,NHG,60.0129952467,
stim/negf.jpg,stim/posf.jpg,stim/3.jpg,stim/5.jpg,stim/latef.jpg,CD,1,2,,,,,0,44,44,28,,,,,,,,,,,,,,2,1,0.399872445592,,,,,,2015_Nov_16_1715,P6,PLC_L_D1S1,NHG,60.0129952467,
stim/posf.jpg,stim/negf.jpg,stim/6.jpg,stim/4.jpg,stim/latef.jpg,EF,1,2,,,,,0,45,45,45,,,,,,,,,,,,,,4,0,0.666441052477,,,,,,2015_Nov_16_1715,P6,PLC_L_D1S1,NHG,60.0129952467,
stim/posf.jpg,stim/negf.jpg,stim/5.jpg,stim/3.jpg,stim/latef.jpg,CD,2,4,,,,,0,46,46,35,,,,,,,,,,,,,,2,0,0.533152759577,,,,,,2015_Nov_16_1715,P6,PLC_L_D1S1,NHG,60.0129952467,
stim/posf.jpg,stim/negf.jpg,stim/3.jpg,stim/5.jpg,stim/latef.jpg,CD,1,2,,,,,0,47,47,26,,,,,,,,,,,,,,4,0,0.349930308532,,,,,,2015_Nov_16_1715,P6,PLC_L_D1S1,NHG,60.0129952467,
stim/posf.jpg,stim/negf.jpg,stim/4.jpg,stim/6.jpg,stim/latef.jpg,EF,2,4,,,,,0,48,48,52,,,,,,,,,,,,,,2,0,0.283188378991,,,,,,2015_Nov_16_1715,P6,PLC_L_D1S1,NHG,60.0129952467,
stim/posf.jpg,stim/negf.jpg,stim/1.jpg,stim/2.jpg,stim/latef.jpg,AB,1,2,,,,,0,49,49,3,,,,,,,,,,,,,,4,0,0.283160992629,,,,,,2015_Nov_16_1715,P6,PLC_L_D1S1,NHG,60.0129952467,
stim/posf.jpg,stim/negf.jpg,stim/1.jpg,stim/2.jpg,stim/latef.jpg,AB,1,2,,,,,0,50,50,4,,,,,,,,,,,,,,2,1,0.366546649073,,,,,,2015_Nov_16_1715,P6,PLC_L_D1S1,NHG,60.0129952467,
stim/negf.jpg,stim/posf.jpg,stim/4.jpg,stim/6.jpg,stim/latef.jpg,EF,2,4,,,,,0,51,51,57,,,,,,,,,,,,,,2,0,0.416529667182,,,,,,2015_Nov_16_1715,P6,PLC_L_D1S1,NHG,60.0129952467,
stim/posf.jpg,stim/negf.jpg,stim/3.jpg,stim/5.jpg,stim/latef.jpg,CD,1,2,,,,,0,52,52,25,,,,,,,,,,,,,,2,1,0.999669610264,,,,,,2015_Nov_16_1715,P6,PLC_L_D1S1,NHG,60.0129952467,
stim/negf.jpg,stim/posf.jpg,stim/3.jpg,stim/5.jpg,stim/latef.jpg,CD,1,2,,,,,0,53,53,27,,,,,,,,,,,,,,4,0,0.833021421724,,,,,,2015_Nov_16_1715,P6,PLC_L_D1S1,NHG,60.0129952467,
stim/negf.jpg,stim/posf.jpg,stim/6.jpg,stim/4.jpg,stim/latef.jpg,EF,1,2,,,,,0,54,54,47,,,,,,,,,,,,,,4,0,0.749742787433,,,,,,2015_Nov_16_1715,P6,PLC_L_D1S1,NHG,60.0129952467,
stim/negf.jpg,stim/posf.jpg,stim/2.jpg,stim/1.jpg,stim/latef.jpg,AB,2,4,,,,,0,55,55,18,,,,,,,,,,,,,,4,1,0.816345998699,,,,,,2015_Nov_16_1715,P6,PLC_L_D1S1,NHG,60.0129952467,
stim/posf.jpg,stim/negf.jpg,stim/6.jpg,stim/4.jpg,stim/latef.jpg,EF,1,2,,,,,0,56,56,43,,,,,,,,,,,,,,4,0,0.566498724442,,,,,,2015_Nov_16_1715,P6,PLC_L_D1S1,NHG,60.0129952467,
stim/posf.jpg,stim/negf.jpg,stim/4.jpg,stim/6.jpg,stim/latef.jpg,EF,2,4,,,,,0,57,57,55,,,,,,,,,,,,,,2,0,0.516523778482,,,,,,2015_Nov_16_1715,P6,PLC_L_D1S1,NHG,60.0129952467,
stim/negf.jpg,stim/posf.jpg,stim/1.jpg,stim/2.jpg,stim/latef.jpg,AB,1,2,,,,,0,58,58,9,,,,,,,,,,,,,,4,0,0.699771769279,,,,,,2015_Nov_16_1715,P6,PLC_L_D1S1,NHG,60.0129952467,
stim/posf.jpg,stim/negf.jpg,stim/5.jpg,stim/3.jpg,stim/latef.jpg,CD,2,4,,,,,0,59,59,32,,,,,,,,,,,,,,4,1,0.666464715547,,,,,,2015_Nov_16_1715,P6,PLC_L_D1S1,NHG,60.0129952467,
,,,,,,,,,,,,,,,,,,,,,,,,,,,,,,,,0.9984375,1.0,1,0,0,2015_Nov_16_1715,P6,PLC_L_D1S1,NHG,60.0129952467,
stim/posf.jpg,stim/negf.jpg,stim/1.jpg,stim/2.jpg,stim/latef.jpg,AB,1,2,,,,,,,,,0,0,0,5,,,,,,,,,,2,1,0.683058301285,,,,,,2015_Nov_16_1715,P6,PLC_L_D1S1,NHG,60.0129952467,
stim/posf.jpg,stim/negf.jpg,stim/6.jpg,stim/4.jpg,stim/latef.jpg,EF,1,2,,,,,,,,,0,1,1,45,,,,,,,,,,4,0,0.533123195777,,,,,,2015_Nov_16_1715,P6,PLC_L_D1S1,NHG,60.0129952467,
stim/posf.jpg,stim/negf.jpg,stim/6.jpg,stim/4.jpg,stim/latef.jpg,EF,1,2,,,,,,,,,0,2,2,41,,,,,,,,,,4,0,0.999671914014,,,,,,2015_Nov_16_1715,P6,PLC_L_D1S1,NHG,60.0129952467,
stim/posf.jpg,stim/negf.jpg,stim/2.jpg,stim/1.jpg,stim/latef.jpg,AB,2,4,,,,,,,,,0,3,3,13,,,,,,,,,,4,1,0.849707322905,,,,,,2015_Nov_16_1715,P6,PLC_L_D1S1,NHG,60.0129952467,
stim/negf.jpg,stim/posf.jpg,stim/6.jpg,stim/4.jpg,stim/latef.jpg,EF,1,2,,,,,,,,,0,4,4,49,,,,,,,,,,2,1,1.08297699933,,,,,,2015_Nov_16_1715,P6,PLC_L_D1S1,NHG,60.0129952467,
stim/posf.jpg,stim/negf.jpg,stim/2.jpg,stim/1.jpg,stim/latef.jpg,AB,2,4,,,,,,,,,0,5,5,16,,,,,,,,,,4,1,1.1829399318,,,,,,2015_Nov_16_1715,P6,PLC_L_D1S1,NHG,60.0129952467,
stim/posf.jpg,stim/negf.jpg,stim/6.jpg,stim/4.jpg,stim/latef.jpg,EF,1,2,,,,,,,,,0,6,6,43,,,,,,,,,,2,1,1.24959153687,,,,,,2015_Nov_16_1715,P6,PLC_L_D1S1,NHG,60.0129952467,
stim/negf.jpg,stim/posf.jpg,stim/6.jpg,stim/4.jpg,stim/latef.jpg,EF,1,2,,,,,,,,,0,7,7,48,,,,,,,,,,2,1,0.699761516686,,,,,,2015_Nov_16_1715,P6,PLC_L_D1S1,NHG,60.0129952467,
stim/negf.jpg,stim/posf.jpg,stim/4.jpg,stim/6.jpg,stim/latef.jpg,EF,2,4,,,,,,,,,0,8,8,58,,,,,,,,,,4,1,0.733051238154,,,,,,2015_Nov_16_1715,P6,PLC_L_D1S1,NHG,60.0129952467,
stim/negf.jpg,stim/posf.jpg,stim/6.jpg,stim/4.jpg,stim/latef.jpg,EF,1,2,,,,,,,,,0,9,9,47,,,,,,,,,,2,1,0.933047710347,,,,,,2015_Nov_16_1715,P6,PLC_L_D1S1,NHG,60.0129952467,
stim/posf.jpg,stim/negf.jpg,stim/5.jpg,stim/3.jpg,stim/latef.jpg,CD,2,4,,,,,,,,,0,10,10,30,,,,,,,,,,4,1,0.333230263044,,,,,,2015_Nov_16_1715,P6,PLC_L_D1S1,NHG,60.0129952467,
stim/posf.jpg,stim/negf.jpg,stim/3.jpg,stim/5.jpg,stim/latef.jpg,CD,1,2,,,,,,,,,0,11,11,21,,,,,,,,,,2,1,0.699786797793,,,,,,2015_Nov_16_1715,P6,PLC_L_D1S1,NHG,60.0129952467,
stim/posf.jpg,stim/negf.jpg,stim/1.jpg,stim/2.jpg,stim/latef.jpg,AB,1,2,,,,,,,,,0,12,12,0,,,,,,,,,,2,1,0.699769098612,,,,,,2015_Nov_16_1715,P6,PLC_L_D1S1,NHG,60.0129952467,
stim/posf.jpg,stim/negf.jpg,stim/2.jpg,stim/1.jpg,stim/latef.jpg,AB,2,4,,,,,,,,,0,13,13,11,,,,,,,,,,2,0,0.466517259709,,,,,,2015_Nov_16_1715,P6,PLC_L_D1S1,NHG,60.0129952467,
stim/posf.jpg,stim/negf.jpg,stim/1.jpg,stim/2.jpg,stim/latef.jpg,AB,1,2,,,,,,,,,0,14,14,3,,,,,,,,,,2,1,0.633071872662,,,,,,2015_Nov_16_1715,P6,PLC_L_D1S1,NHG,60.0129952467,
stim/posf.jpg,stim/negf.jpg,stim/4.jpg,stim/6.jpg,stim/latef.jpg,EF,2,4,,,,,,,,,0,15,15,51,,,,,,,,,,2,0,0.566486757567,,,,,,2015_Nov_16_1715,P6,PLC_L_D1S1,NHG,60.0129952467,
stim/posf.jpg,stim/negf.jpg,stim/3.jpg,stim/5.jpg,stim/latef.jpg,CD,1,2,,,,,,,,,0,16,16,20,,,,,,,,,,2,1,0.649775325657,,,,,,2015_Nov_16_1715,P6,PLC_L_D1S1,NHG,60.0129952467,
stim/negf.jpg,stim/posf.jpg,stim/4.jpg,stim/6.jpg,stim/latef.jpg,EF,2,4,,,,,,,,,0,17,17,56,,,,,,,,,,2,0,0.566482026759,,,,,,2015_Nov_16_1715,P6,PLC_L_D1S1,NHG,60.0129952467,
stim/posf.jpg,stim/negf.jpg,stim/4.jpg,stim/6.jpg,stim/latef.jpg,EF,2,4,,,,,,,,,0,18,18,55,,,,,,,,,,2,0,0.583149970113,,,,,,2015_Nov_16_1715,P6,PLC_L_D1S1,NHG,60.0129952467,
stim/negf.jpg,stim/posf.jpg,stim/1.jpg,stim/2.jpg,stim/latef.jpg,AB,1,2,,,,,,,,,0,19,19,8,,,,,,,,,,4,0,0.566473638821,,,,,,2015_Nov_16_1715,P6,PLC_L_D1S1,NHG,60.0129952467,
stim/posf.jpg,stim/negf.jpg,stim/2.jpg,stim/1.jpg,stim/latef.jpg,AB,2,4,,,,,,,,,0,20,20,15,,,,,,,,,,2,0,0.699773985811,,,,,,2015_Nov_16_1715,P6,PLC_L_D1S1,NHG,60.0129952467,
stim/negf.jpg,stim/posf.jpg,stim/3.jpg,stim/5.jpg,stim/latef.jpg,CD,1,2,,,,,,,,,0,21,21,27,,,,,,,,,,2,1,0.616471700483,,,,,,2015_Nov_16_1715,P6,PLC_L_D1S1,NHG,60.0129952467,
stim/negf.jpg,stim/posf.jpg,stim/5.jpg,stim/3.jpg,stim/latef.jpg,CD,2,4,,,,,,,,,0,22,22,38,,,,,,,,,,4,1,0.666453136642,,,,,,2015_Nov_16_1715,P6,PLC_L_D1S1,NHG,60.0129952467,
stim/negf.jpg,stim/posf.jpg,stim/1.jpg,stim/2.jpg,stim/latef.jpg,AB,1,2,,,,,,,,,0,23,23,9,,,,,,,,,,4,0,0.399866346368,,,,,,2015_Nov_16_1715,P6,PLC_L_D1S1,NHG,60.0129952467,
stim/posf.jpg,stim/negf.jpg,stim/2.jpg,stim/1.jpg,stim/latef.jpg,AB,2,4,,,,,,,,,0,24,24,10,,,,,,,,,,4,1,0.433244416374,,,,,,2015_Nov_16_1715,P6,PLC_L_D1S1,NHG,60.0129952467,
stim/posf.jpg,stim/negf.jpg,stim/6.jpg,stim/4.jpg,stim/latef.jpg,EF,1,2,,,,,,,,,0,25,25,40,,,,,,,,,,2,1,0.96636212345,,,,,,2015_Nov_16_1715,P6,PLC_L_D1S1,NHG,60.0129952467,
stim/negf.jpg,stim/posf.jpg,stim/5.jpg,stim/3.jpg,stim/latef.jpg,CD,2,4,,,,,,,,,0,26,26,39,,,,,,,,,,2,0,0.849723346904,,,,,,2015_Nov_16_1715,P6,PLC_L_D1S1,NHG,60.0129952467,
stim/posf.jpg,stim/negf.jpg,stim/5.jpg,stim/3.jpg,stim/latef.jpg,CD,2,4,,,,,,,,,0,27,27,31,,,,,,,,,,2,0,1.04965257725,,,,,,2015_Nov_16_1715,P6,PLC_L_D1S1,NHG,60.0129952467,
stim/posf.jpg,stim/negf.jpg,stim/5.jpg,stim/3.jpg,stim/latef.jpg,CD,2,4,,,,,,,,,0,28,28,32,,,,,,,,,,2,0,0.533135986707,,,,,,2015_Nov_16_1715,P6,PLC_L_D1S1,NHG,60.0129952467,
stim/negf.jpg,stim/posf.jpg,stim/3.jpg,stim/5.jpg,stim/latef.jpg,CD,1,2,,,,,,,,,0,29,29,28,,,,,,,,,,2,1,0.616455348665,,,,,,2015_Nov_16_1715,P6,PLC_L_D1S1,NHG,60.0129952467,
stim/negf.jpg,stim/posf.jpg,stim/6.jpg,stim/4.jpg,stim/latef.jpg,EF,1,2,,,,,,,,,0,30,30,46,,,,,,,,,,2,1,1.08303485476,,,,,,2015_Nov_16_1715,P6,PLC_L_D1S1,NHG,60.0129952467,
stim/posf.jpg,stim/negf.jpg,stim/3.jpg,stim/5.jpg,stim/latef.jpg,CD,1,2,,,,,,,,,0,31,31,22,,,,,,,,,,2,1,0.816395400017,,,,,,2015_Nov_16_1715,P6,PLC_L_D1S1,NHG,60.0129952467,
stim/posf.jpg,stim/negf.jpg,stim/2.jpg,stim/1.jpg,stim/latef.jpg,AB,2,4,,,,,,,,,0,32,32,17,,,,,,,,,,4,1,0.89971121913,,,,,,2015_Nov_16_1715,P6,PLC_L_D1S1,NHG,60.0129952467,
stim/negf.jpg,stim/posf.jpg,stim/2.jpg,stim/1.jpg,stim/latef.jpg,AB,2,4,,,,,,,,,0,33,33,19,,,,,,,,,,4,1,0.716423577356,,,,,,2015_Nov_16_1715,P6,PLC_L_D1S1,NHG,60.0129952467,
stim/posf.jpg,stim/negf.jpg,stim/4.jpg,stim/6.jpg,stim/latef.jpg,EF,2,4,,,,,,,,,0,34,34,53,,,,,,,,,,2,0,0.316549032523,,,,,,2015_Nov_16_1715,P6,PLC_L_D1S1,NHG,60.0129952467,
stim/posf.jpg,stim/negf.jpg,stim/5.jpg,stim/3.jpg,stim/latef.jpg,CD,2,4,,,,,,,,,0,35,35,34,,,,,,,,,,2,0,0.266516086782,,,,,,2015_Nov_16_1715,P6,PLC_L_D1S1,NHG,60.0129952467,
stim/posf.jpg,stim/negf.jpg,stim/1.jpg,stim/2.jpg,stim/latef.jpg,AB,1,2,,,,,,,,,0,36,36,1,,,,,,,,,,2,1,0.483218225496,,,,,,2015_Nov_16_1715,P6,PLC_L_D1S1,NHG,60.0129952467,
stim/posf.jpg,stim/negf.jpg,stim/1.jpg,stim/2.jpg,stim/latef.jpg,AB,1,2,,,,,,,,,0,37,37,6,,,,,,,,,,4,0,0.866376213622,,,,,,2015_Nov_16_1715,P6,PLC_L_D1S1,NHG,60.0129952467,
stim/posf.jpg,stim/negf.jpg,stim/4.jpg,stim/6.jpg,stim/latef.jpg,EF,2,4,,,,,,,,,0,38,38,50,,,,,,,,,,4,1,0.399913822881,,,,,,2015_Nov_16_1715,P6,PLC_L_D1S1,NHG,60.0129952467,
stim/posf.jpg,stim/negf.jpg,stim/3.jpg,stim/5.jpg,stim/latef.jpg,CD,1,2,,,,,,,,,0,39,39,26,,,,,,,,,,2,1,0.616458386246,,,,,,2015_Nov_16_1715,P6,PLC_L_D1S1,NHG,60.0129952467,
stim/posf.jpg,stim/negf.jpg,stim/3.jpg,stim/5.jpg,stim/latef.jpg,CD,1,2,,,,,,,,,0,40,40,24,,,,,,,,,,2,1,0.566478974139,,,,,,2015_Nov_16_1715,P6,PLC_L_D1S1,NHG,60.0129952467,
stim/posf.jpg,stim/negf.jpg,stim/3.jpg,stim/5.jpg,stim/latef.jpg,CD,1,2,,,,,,,,,0,41,41,23,,,,,,,,,,2,1,0.516498554516,,,,,,2015_Nov_16_1715,P6,PLC_L_D1S1,NHG,60.0129952467,
stim/posf.jpg,stim/negf.jpg,stim/1.jpg,stim/2.jpg,stim/latef.jpg,AB,1,2,,,,,,,,,0,42,42,2,,,,,,,,,,2,1,0.566414577388,,,,,,2015_Nov_16_1715,P6,PLC_L_D1S1,NHG,60.0129952467,
stim/negf.jpg,stim/posf.jpg,stim/4.jpg,stim/6.jpg,stim/latef.jpg,EF,2,4,,,,,,,,,0,43,43,59,,,,,,,,,,2,0,0.449810432292,,,,,,2015_Nov_16_1715,P6,PLC_L_D1S1,NHG,60.0129952467,
stim/posf.jpg,stim/negf.jpg,stim/5.jpg,stim/3.jpg,stim/latef.jpg,CD,2,4,,,,,,,,,0,44,44,36,,,,,,,,,,2,0,0.466477635799,,,,,,2015_Nov_16_1715,P6,PLC_L_D1S1,NHG,60.0129952467,
stim/negf.jpg,stim/posf.jpg,stim/2.jpg,stim/1.jpg,stim/latef.jpg,AB,2,4,,,,,,,,,0,45,45,18,,,,,,,,,,2,0,0.366573024912,,,,,,2015_Nov_16_1715,P6,PLC_L_D1S1,NHG,60.0129952467,
stim/posf.jpg,stim/negf.jpg,stim/4.jpg,stim/6.jpg,stim/latef.jpg,EF,2,4,,,,,,,,,0,46,46,52,,,,,,,,,,2,0,0.316527922827,,,,,,2015_Nov_16_1715,P6,PLC_L_D1S1,NHG,60.0129952467,
stim/posf.jpg,stim/negf.jpg,stim/2.jpg,stim/1.jpg,stim/latef.jpg,AB,2,4,,,,,,,,,0,47,47,14,,,,,,,,,,2,0,0.266602970665,,,,,,2015_Nov_16_1715,P6,PLC_L_D1S1,NHG,60.0129952467,
stim/negf.jpg,stim/posf.jpg,stim/5.jpg,stim/3.jpg,stim/latef.jpg,CD,2,4,,,,,,,,,0,48,48,37,,,,,,,,,,2,0,0.249960245263,,,,,,2015_Nov_16_1715,P6,PLC_L_D1S1,NHG,60.0129952467,
stim/posf.jpg,stim/negf.jpg,stim/5.jpg,stim/3.jpg,stim/latef.jpg,CD,2,4,,,,,,,,,0,49,49,35,,,,,,,,,,2,0,0.416529360416,,,,,,2015_Nov_16_1715,P6,PLC_L_D1S1,NHG,60.0129952467,
stim/negf.jpg,stim/posf.jpg,stim/4.jpg,stim/6.jpg,stim/latef.jpg,EF,2,4,,,,,,,,,0,50,50,57,,,,,,,,,,4,1,0.233264735094,,,,,,2015_Nov_16_1715,P6,PLC_L_D1S1,NHG,60.0129952467,
stim/posf.jpg,stim/negf.jpg,stim/5.jpg,stim/3.jpg,stim/latef.jpg,CD,2,4,,,,,,,,,0,51,51,33,,,,,,,,,,2,0,0.283224697652,,,,,,2015_Nov_16_1715,P6,PLC_L_D1S1,NHG,60.0129952467,
stim/posf.jpg,stim/negf.jpg,stim/4.jpg,stim/6.jpg,stim/latef.jpg,EF,2,4,,,,,,,,,0,52,52,54,,,,,,,,,,2,0,0.20000302856,,,,,,2015_Nov_16_1715,P6,PLC_L_D1S1,NHG,60.0129952467,
stim/posf.jpg,stim/negf.jpg,stim/1.jpg,stim/2.jpg,stim/latef.jpg,AB,1,2,,,,,,,,,0,53,53,4,,,,,,,,,,2,1,0.266580549696,,,,,,2015_Nov_16_1715,P6,PLC_L_D1S1,NHG,60.0129952467,
stim/posf.jpg,stim/negf.jpg,stim/3.jpg,stim/5.jpg,stim/latef.jpg,CD,1,2,,,,,,,,,0,54,54,25,,,,,,,,,,4,0,0.249922296533,,,,,,2015_Nov_16_1715,P6,PLC_L_D1S1,NHG,60.0129952467,
stim/posf.jpg,stim/negf.jpg,stim/1.jpg,stim/2.jpg,stim/latef.jpg,AB,1,2,,,,,,,,,0,55,55,7,,,,,,,,,,2,1,0.549811866873,,,,,,2015_Nov_16_1715,P6,PLC_L_D1S1,NHG,60.0129952467,
stim/negf.jpg,stim/posf.jpg,stim/3.jpg,stim/5.jpg,stim/latef.jpg,CD,1,2,,,,,,,,,0,56,56,29,,,,,,,,,,2,1,0.28315508889,,,,,,2015_Nov_16_1715,P6,PLC_L_D1S1,NHG,60.0129952467,
stim/posf.jpg,stim/negf.jpg,stim/2.jpg,stim/1.jpg,stim/latef.jpg,AB,2,4,,,,,,,,,0,57,57,12,,,,,,,,,,4,1,0.349886233509,,,,,,2015_Nov_16_1715,P6,PLC_L_D1S1,NHG,60.0129952467,
stim/posf.jpg,stim/negf.jpg,stim/6.jpg,stim/4.jpg,stim/latef.jpg,EF,1,2,,,,,,,,,0,58,58,44,,,,,,,,,,4,0,0.299950442291,,,,,,2015_Nov_16_1715,P6,PLC_L_D1S1,NHG,60.0129952467,
stim/posf.jpg,stim/negf.jpg,stim/6.jpg,stim/4.jpg,stim/latef.jpg,EF,1,2,,,,,,,,,0,59,59,42,,,,,,,,,,4,0,0.316569775303,,,,,,2015_Nov_16_1715,P6,PLC_L_D1S1,NHG,60.0129952467,
,,,,,,,,,,,,,,,,,,,,,,,,,,,,,,,,0.9984375,1.0,1,0,0,2015_Nov_16_1715,P6,PLC_L_D1S1,NHG,60.0129952467,
stim/posf.jpg,stim/negf.jpg,stim/5.jpg,stim/3.jpg,stim/latef.jpg,CD,2,4,,,,,,,,,,,,,0,0,0,35,,,,,,2,0,0.749819220229,,,,,,2015_Nov_16_1715,P6,PLC_L_D1S1,NHG,60.0129952467,
stim/negf.jpg,stim/posf.jpg,stim/5.jpg,stim/3.jpg,stim/latef.jpg,CD,2,4,,,,,,,,,,,,,0,1,1,37,,,,,,2,0,0.699753880624,,,,,,2015_Nov_16_1715,P6,PLC_L_D1S1,NHG,60.0129952467,
stim/posf.jpg,stim/negf.jpg,stim/6.jpg,stim/4.jpg,stim/latef.jpg,EF,1,2,,,,,,,,,,,,,0,2,2,40,,,,,,4,0,0.866382297811,,,,,,2015_Nov_16_1715,P6,PLC_L_D1S1,NHG,60.0129952467,
stim/posf.jpg,stim/negf.jpg,stim/6.jpg,stim/4.jpg,stim/latef.jpg,EF,1,2,,,,,,,,,,,,,0,3,3,41,,,,,,2,1,0.699790650411,,,,,,2015_Nov_16_1715,P6,PLC_L_D1S1,NHG,60.0129952467,
stim/negf.jpg,stim/posf.jpg,stim/2.jpg,stim/1.jpg,stim/latef.jpg,AB,2,4,,,,,,,,,,,,,0,4,4,18,,,,,,2,0,1.19959319552,,,,,,2015_Nov_16_1715,P6,PLC_L_D1S1,NHG,60.0129952467,
stim/posf.jpg,stim/negf.jpg,stim/1.jpg,stim/2.jpg,stim/latef.jpg,AB,1,2,,,,,,,,,,,,,0,5,5,2,,,,,,2,1,1.282930798,,,,,,2015_Nov_16_1715,P6,PLC_L_D1S1,NHG,60.0129952467,
stim/posf.jpg,stim/negf.jpg,stim/1.jpg,stim/2.jpg,stim/latef.jpg,AB,1,2,,,,,,,,,,,,,0,6,6,3,,,,,,2,1,1.11628964102,,,,,,2015_Nov_16_1715,P6,PLC_L_D1S1,NHG,60.0129952467,
stim/negf.jpg,stim/posf.jpg,stim/6.jpg,stim/4.jpg,stim/latef.jpg,EF,1,2,,,,,,,,,,,,,0,7,7,46,,,,,,2,1,1.19960785411,,,,,,2015_Nov_16_1715,P6,PLC_L_D1S1,NHG,60.0129952467,
stim/negf.jpg,stim/posf.jpg,stim/1.jpg,stim/2.jpg,stim/latef.jpg,AB,1,2,,,,,,,,,,,,,0,8,8,8,,,,,,2,1,1.11627999293,,,,,,2015_Nov_16_1715,P6,PLC_L_D1S1,NHG,60.0129952467,
stim/posf.jpg,stim/negf.jpg,stim/1.jpg,stim/2.jpg,stim/latef.jpg,AB,1,2,,,,,,,,,,,,,0,9,9,4,,,,,,2,1,1.53284207202,,,,,,2015_Nov_16_1715,P6,PLC_L_D1S1,NHG,60.0129952467,
stim/negf.jpg,stim/posf.jpg,stim/4.jpg,stim/6.jpg,stim/latef.jpg,EF,2,4,,,,,,,,,,,,,0,10,10,56,,,,,,2,0,0.766410048082,,,,,,2015_Nov_16_1715,P6,PLC_L_D1S1,NHG,60.0129952467,
stim/posf.jpg,stim/negf.jpg,stim/5.jpg,stim/3.jpg,stim/latef.jpg,CD,2,4,,,,,,,,,,,,,0,11,11,36,,,,,,2,0,0.816443944195,,,,,,2015_Nov_16_1715,P6,PLC_L_D1S1,NHG,60.0129952467,
stim/negf.jpg,stim/posf.jpg,stim/4.jpg,stim/6.jpg,stim/latef.jpg,EF,2,4,,,,,,,,,,,,,0,12,12,57,,,,,,2,0,0.399861937361,,,,,,2015_Nov_16_1715,P6,PLC_L_D1S1,NHG,60.0129952467,
stim/negf.jpg,stim/posf.jpg,stim/3.jpg,stim/5.jpg,stim/latef.jpg,CD,1,2,,,,,,,,,,,,,0,13,13,28,,,,,,2,1,0.466435972798,,,,,,2015_Nov_16_1715,P6,PLC_L_D1S1,NHG,60.0129952467,
stim/posf.jpg,stim/negf.jpg,stim/2.jpg,stim/1.jpg,stim/latef.jpg,AB,2,4,,,,,,,,,,,,,0,14,14,13,,,,,,2,0,0.649836877306,,,,,,2015_Nov_16_1715,P6,PLC_L_D1S1,NHG,60.0129952467,
stim/posf.jpg,stim/negf.jpg,stim/5.jpg,stim/3.jpg,stim/latef.jpg,CD,2,4,,,,,,,,,,,,,0,15,15,32,,,,,,2,0,0.699774650471,,,,,,2015_Nov_16_1715,P6,PLC_L_D1S1,NHG,60.0129952467,
stim/posf.jpg,stim/negf.jpg,stim/5.jpg,stim/3.jpg,stim/latef.jpg,CD,2,4,,,,,,,,,,,,,0,16,16,31,,,,,,2,0,0.716486771102,,,,,,2015_Nov_16_1715,P6,PLC_L_D1S1,NHG,60.0129952467,
stim/posf.jpg,stim/negf.jpg,stim/2.jpg,stim/1.jpg,stim/latef.jpg,AB,2,4,,,,,,,,,,,,,0,17,17,10,,,,,,4,1,0.999675114002,,,,,,2015_Nov_16_1715,P6,PLC_L_D1S1,NHG,60.0129952467,
stim/negf.jpg,stim/posf.jpg,stim/3.jpg,stim/5.jpg,stim/latef.jpg,CD,1,2,,,,,,,,,,,,,0,18,18,27,,,,,,4,0,1.31625569829,,,,,,2015_Nov_16_1715,P6,PLC_L_D1S1,NHG,60.0129952467,
stim/posf.jpg,stim/negf.jpg,stim/5.jpg,stim/3.jpg,stim/latef.jpg,CD,2,4,,,,,,,,,,,,,0,19,19,33,,,,,,2,0,1.18294508366,,,,,,2015_Nov_16_1715,P6,PLC_L_D1S1,NHG,60.0129952467,
stim/negf.jpg,stim/posf.jpg,stim/5.jpg,stim/3.jpg,stim/latef.jpg,CD,2,4,,,,,,,,,,,,,0,20,20,39,,,,,,4,1,1.39951504844,,,,,,2015_Nov_16_1715,P6,PLC_L_D1S1,NHG,60.0129952467,
stim/posf.jpg,stim/negf.jpg,stim/2.jpg,stim/1.jpg,stim/latef.jpg,AB,2,4,,,,,,,,,,,,,0,21,21,12,,,,,,2,0,0.416587802301,,,,,,2015_Nov_16_1715,P6,PLC_L_D1S1,NHG,60.0129952467,
stim/posf.jpg,stim/negf.jpg,stim/6.jpg,stim/4.jpg,stim/latef.jpg,EF,1,2,,,,,,,,,,,,,0,22,22,44,,,,,,2,1,0.316577441437,,,,,,2015_Nov_16_1715,P6,PLC_L_D1S1,NHG,60.0129952467,
stim/posf.jpg,stim/negf.jpg,stim/3.jpg,stim/5.jpg,stim/latef.jpg,CD,1,2,,,,,,,,,,,,,0,23,23,24,,,,,,2,1,0.866391657173,,,,,,2015_Nov_16_1715,P6,PLC_L_D1S1,NHG,60.0129952467,
stim/negf.jpg,stim/posf.jpg,stim/6.jpg,stim/4.jpg,stim/latef.jpg,EF,1,2,,,,,,,,,,,,,0,24,24,47,,,,,,2,1,1.36623846076,,,,,,2015_Nov_16_1715,P6,PLC_L_D1S1,NHG,60.0129952467,
stim/posf.jpg,stim/negf.jpg,stim/2.jpg,stim/1.jpg,stim/latef.jpg,AB,2,4,,,,,,,,,,,,,0,25,25,11,,,,,,2,0,0.383206643584,,,,,,2015_Nov_16_1715,P6,PLC_L_D1S1,NHG,60.0129952467,
stim/posf.jpg,stim/negf.jpg,stim/4.jpg,stim/6.jpg,stim/latef.jpg,EF,2,4,,,,,,,,,,,,,0,26,26,53,,,,,,2,0,0.333208242073,,,,,,2015_Nov_16_1715,P6,PLC_L_D1S1,NHG,60.0129952467,
stim/posf.jpg,stim/negf.jpg,stim/3.jpg,stim/5.jpg,stim/latef.jpg,CD,1,2,,,,,,,,,,,,,0,27,27,23,,,,,,2,1,0.316563646002,,,,,,2015_Nov_16_1715,P6,PLC_L_D1S1,NHG,60.0129952467,
stim/negf.jpg,stim/posf.jpg,stim/1.jpg,stim/2.jpg,stim/latef.jpg,AB,1,2,,,,,,,,,,,,,0,28,28,9,,,,,,4,0,0.566480216239,,,,,,2015_Nov_16_1715,P6,PLC_L_D1S1,NHG,60.0129952467,
stim/posf.jpg,stim/negf.jpg,stim/3.jpg,stim/5.jpg,stim/latef.jpg,CD,1,2,,,,,,,,,,,,,0,29,29,25,,,,,,2,1,0.466503136455,,,,,,2015_Nov_16_1715,P6,PLC_L_D1S1,NHG,60.0129952467,
stim/negf.jpg,stim/posf.jpg,stim/6.jpg,stim/4.jpg,stim/latef.jpg,EF,1,2,,,,,,,,,,,,,0,30,30,48,,,,,,4,0,0.966341365634,,,,,,2015_Nov_16_1715,P6,PLC_L_D1S1,NHG,60.0129952467,
stim/posf.jpg,stim/negf.jpg,stim/2.jpg,stim/1.jpg,stim/latef.jpg,AB,2,4,,,,,,,,,,,,,0,31,31,16,,,,,,2,0,0.666427611926,,,,,,2015_Nov_16_1715,P6,PLC_L_D1S1,NHG,60.0129952467,
stim/posf.jpg,stim/negf.jpg,stim/6.jpg,stim/4.jpg,stim/latef.jpg,EF,1,2,,,,,,,,,,,,,0,32,32,45,,,,,,2,1,0.433187306815,,,,,,2015_Nov_16_1715,P6,PLC_L_D1S1,NHG,60.0129952467,
stim/negf.jpg,stim/posf.jpg,stim/4.jpg,stim/6.jpg,stim/latef.jpg,EF,2,4,,,,,,,,,,,,,0,33,33,58,,,,,,2,0,0.566528035608,,,,,,2015_Nov_16_1715,P6,PLC_L_D1S1,NHG,60.0129952467,
stim/negf.jpg,stim/posf.jpg,stim/2.jpg,stim/1.jpg,stim/latef.jpg,AB,2,4,,,,,,,,,,,,,0,34,34,19,,,,,,4,1,0.616432241985,,,,,,2015_Nov_16_1715,P6,PLC_L_D1S1,NHG,60.0129952467,
stim/posf.jpg,stim/negf.jpg,stim/4.jpg,stim/6.jpg,stim/latef.jpg,EF,2,4,,,,,,,,,,,,,0,35,35,54,,,,,,2,0,0.383201103756,,,,,,2015_Nov_16_1715,P6,PLC_L_D1S1,NHG,60.0129952467,
stim/posf.jpg,stim/negf.jpg,stim/3.jpg,stim/5.jpg,stim/latef.jpg,CD,1,2,,,,,,,,,,,,,0,36,36,22,,,,,,2,1,0.249871929804,,,,,,2015_Nov_16_1715,P6,PLC_L_D1S1,NHG,60.0129952467,
stim/negf.jpg,stim/posf.jpg,stim/4.jpg,stim/6.jpg,stim/latef.jpg,EF,2,4,,,,,,,,,,,,,0,37,37,59,,,,,,4,1,0.299959714437,,,,,,2015_Nov_16_1715,P6,PLC_L_D1S1,NHG,60.0129952467,
stim/negf.jpg,stim/posf.jpg,stim/5.jpg,stim/3.jpg,stim/latef.jpg,CD,2,4,,,,,,,,,,,,,0,38,38,38,,,,,,2,0,0.299909239438,,,,,,2015_Nov_16_1715,P6,PLC_L_D1S1,NHG,60.0129952467,
stim/posf.jpg,stim/negf.jpg,stim/3.jpg,stim/5.jpg,stim/latef.jpg,CD,1,2,,,,,,,,,,,,,0,39,39,26,,,,,,2,1,0.54980568043,,,,,,2015_Nov_16_1715,P6,PLC_L_D1S1,NHG,60.0129952467,
stim/negf.jpg,stim/posf.jpg,stim/6.jpg,stim/4.jpg,stim/latef.jpg,EF,1,2,,,,,,,,,,,,,0,40,40,49,,,,,,2,1,0.266592348149,,,,,,2015_Nov_16_1715,P6,PLC_L_D1S1,NHG,60.0129952467,
stim/posf.jpg,stim/negf.jpg,stim/6.jpg,stim/4.jpg,stim/latef.jpg,EF,1,2,,,,,,,,,,,,,0,41,41,43,,,,,,2,1,0.266571512137,,,,,,2015_Nov_16_1715,P6,PLC_L_D1S1,NHG,60.0129952467,
stim/posf.jpg,stim/negf.jpg,stim/1.jpg,stim/2.jpg,stim/latef.jpg,AB,1,2,,,,,,,,,,,,,0,42,42,5,,,,,,2,1,0.416506097346,,,,,,2015_Nov_16_1715,P6,PLC_L_D1S1,NHG,60.0129952467,
stim/posf.jpg,stim/negf.jpg,stim/4.jpg,stim/6.jpg,stim/latef.jpg,EF,2,4,,,,,,,,,,,,,0,43,43,51,,,,,,2,0,0.666451500558,,,,,,2015_Nov_16_1715,P6,PLC_L_D1S1,NHG,60.0129952467,
stim/posf.jpg,stim/negf.jpg,stim/1.jpg,stim/2.jpg,stim/latef.jpg,AB,1,2,,,,,,,,,,,,,0,44,44,1,,,,,,2,1,0.333225637498,,,,,,2015_Nov_16_1715,P6,PLC_L_D1S1,NHG,60.0129952467,
stim/posf.jpg,stim/negf.jpg,stim/1.jpg,stim/2.jpg,stim/latef.jpg,AB,1,2,,,,,,,,,,,,,0,45,45,0,,,,,,4,0,0.399895140243,,,,,,2015_Nov_16_1715,P6,PLC_L_D1S1,NHG,60.0129952467,
stim/posf.jpg,stim/negf.jpg,stim/4.jpg,stim/6.jpg,stim/latef.jpg,EF,2,4,,,,,,,,,,,,,0,46,46,50,,,,,,2,0,0.366591608301,,,,,,2015_Nov_16_1715,P6,PLC_L_D1S1,NHG,60.0129952467,
stim/posf.jpg,stim/negf.jpg,stim/4.jpg,stim/6.jpg,stim/latef.jpg,EF,2,4,,,,,,,,,,,,,0,47,47,52,,,,,,2,0,0.366542664126,,,,,,2015_Nov_16_1715,P6,PLC_L_D1S1,NHG,60.0129952467,
stim/posf.jpg,stim/negf.jpg,stim/2.jpg,stim/1.jpg,stim/latef.jpg,AB,2,4,,,,,,,,,,,,,0,48,48,17,,,,,,2,0,0.366454938139,,,,,,2015_Nov_16_1715,P6,PLC_L_D1S1,NHG,60.0129952467,
stim/posf.jpg,stim/negf.jpg,stim/1.jpg,stim/2.jpg,stim/latef.jpg,AB,1,2,,,,,,,,,,,,,0,49,49,7,,,,,,2,1,0.333226061557,,,,,,2015_Nov_16_1715,P6,PLC_L_D1S1,NHG,60.0129952467,
stim/posf.jpg,stim/negf.jpg,stim/4.jpg,stim/6.jpg,stim/latef.jpg,EF,2,4,,,,,,,,,,,,,0,50,50,55,,,,,,2,0,0.249917186777,,,,,,2015_Nov_16_1715,P6,PLC_L_D1S1,NHG,60.0129952467,
stim/posf.jpg,stim/negf.jpg,stim/3.jpg,stim/5.jpg,stim/latef.jpg,CD,1,2,,,,,,,,,,,,,0,51,51,20,,,,,,2,1,0.283230622441,,,,,,2015_Nov_16_1715,P6,PLC_L_D1S1,NHG,60.0129952467,
stim/posf.jpg,stim/negf.jpg,stim/1.jpg,stim/2.jpg,stim/latef.jpg,AB,1,2,,,,,,,,,,,,,0,52,52,6,,,,,,4,0,0.383221975859,,,,,,2015_Nov_16_1715,P6,PLC_L_D1S1,NHG,60.0129952467,
stim/posf.jpg,stim/negf.jpg,stim/3.jpg,stim/5.jpg,stim/latef.jpg,CD,1,2,,,,,,,,,,,,,0,53,53,21,,,,,,4,0,0.84973390927,,,,,,2015_Nov_16_1715,P6,PLC_L_D1S1,NHG,60.0129952467,
stim/posf.jpg,stim/negf.jpg,stim/2.jpg,stim/1.jpg,stim/latef.jpg,AB,2,4,,,,,,,,,,,,,0,54,54,14,,,,,,2,0,0.349908843953,,,,,,2015_Nov_16_1715,P6,PLC_L_D1S1,NHG,60.0129952467,
stim/posf.jpg,stim/negf.jpg,stim/6.jpg,stim/4.jpg,stim/latef.jpg,EF,1,2,,,,,,,,,,,,,0,55,55,42,,,,,,2,1,0.549846221631,,,,,,2015_Nov_16_1715,P6,PLC_L_D1S1,NHG,60.0129952467,
stim/negf.jpg,stim/posf.jpg,stim/3.jpg,stim/5.jpg,stim/latef.jpg,CD,1,2,,,,,,,,,,,,,0,56,56,29,,,,,,4,0,1.06629751317,,,,,,2015_Nov_16_1715,P6,PLC_L_D1S1,NHG,60.0129952467,
stim/posf.jpg,stim/negf.jpg,stim/2.jpg,stim/1.jpg,stim/latef.jpg,AB,2,4,,,,,,,,,,,,,0,57,57,15,,,,,,2,0,1.04966881478,,,,,,2015_Nov_16_1715,P6,PLC_L_D1S1,NHG,60.0129952467,
stim/posf.jpg,stim/negf.jpg,stim/5.jpg,stim/3.jpg,stim/latef.jpg,CD,2,4,,,,,,,,,,,,,0,58,58,30,,,,,,4,1,0.483181218116,,,,,,2015_Nov_16_1715,P6,PLC_L_D1S1,NHG,60.0129952467,
stim/posf.jpg,stim/negf.jpg,stim/5.jpg,stim/3.jpg,stim/latef.jpg,CD,2,4,,,,,,,,,,,,,0,59,59,34,,,,,,4,1,0.799740127291,,,,,,2015_Nov_16_1715,P6,PLC_L_D1S1,NHG,60.0129952467,
