fb_corr,fb_incorr,symbol2,symbol1,fb_late,pair,position,correct,block_01.thisRepN,block_01.thisTrialN,block_01.thisN,block_01.thisIndex,block_02.thisRepN,block_02.thisTrialN,block_02.thisN,block_02.thisIndex,block_03.thisRepN,block_03.thisTrialN,block_03.thisN,block_03.thisIndex,block_04.thisRepN,block_04.thisTrialN,block_04.thisN,block_04.thisIndex,mouse.x,mouse.y,mouse.leftButton,mouse.midButton,mouse.rightButton,buttonBox_2.keys,buttonBox_2.corr,buttonBox_2.rt,mouse_2.x,mouse_2.y,mouse_2.leftButton,mouse_2.midButton,mouse_2.rightButton,date,Participant,expName,Group,frameRate,
,,,,,,,,,,,,,,,,,,,,,,,,0.9984375,1.0,1,0,0,,,,,,,,,2015_Nov_18_1524,P7,PLC_L_D1S1,NHG,60.0191951677,
stim/negf.jpg,stim/posf.jpg,stim/4.jpg,stim/5.jpg,stim/latef.jpg,CD,2,4,0,0,0,39,,,,,,,,,,,,,,,,,,4,1,0.96636636717,,,,,,2015_Nov_18_1524,P7,PLC_L_D1S1,NHG,60.0191951677,
stim/posf.jpg,stim/negf.jpg,stim/5.jpg,stim/4.jpg,stim/latef.jpg,CD,1,2,0,1,1,26,,,,,,,,,,,,,,,,,,2,1,1.31623720724,,,,,,2015_Nov_18_1524,P7,PLC_L_D1S1,NHG,60.0191951677,
stim/posf.jpg,stim/negf.jpg,stim/4.jpg,stim/5.jpg,stim/latef.jpg,CD,2,4,0,2,2,35,,,,,,,,,,,,,,,,,,2,0,1.26627341749,,,,,,2015_Nov_18_1524,P7,PLC_L_D1S1,NHG,60.0191951677,
stim/posf.jpg,stim/negf.jpg,stim/2.jpg,stim/3.jpg,stim/latef.jpg,AB,1,2,0,3,3,4,,,,,,,,,,,,,,,,,,2,1,1.41621443448,,,,,,2015_Nov_18_1524,P7,PLC_L_D1S1,NHG,60.0191951677,
stim/negf.jpg,stim/posf.jpg,stim/1.jpg,stim/6.jpg,stim/latef.jpg,EF,2,4,0,4,4,56,,,,,,,,,,,,,,,,,,4,1,1.4162129969,,,,,,2015_Nov_18_1524,P7,PLC_L_D1S1,NHG,60.0191951677,
stim/posf.jpg,stim/negf.jpg,stim/4.jpg,stim/5.jpg,stim/latef.jpg,CD,2,4,0,5,5,34,,,,,,,,,,,,,,,,,,2,0,1.299568307,,,,,,2015_Nov_18_1524,P7,PLC_L_D1S1,NHG,60.0191951677,
stim/posf.jpg,stim/negf.jpg,stim/1.jpg,stim/6.jpg,stim/latef.jpg,EF,2,4,0,6,6,52,,,,,,,,,,,,,,,,,,2,0,1.58276873708,,,,,,2015_Nov_18_1524,P7,PLC_L_D1S1,NHG,60.0191951677,
stim/negf.jpg,stim/posf.jpg,stim/6.jpg,stim/1.jpg,stim/latef.jpg,EF,1,2,0,7,7,49,,,,,,,,,,,,,,,,,,2,1,1.38285802062,,,,,,2015_Nov_18_1524,P7,PLC_L_D1S1,NHG,60.0191951677,
stim/posf.jpg,stim/negf.jpg,stim/2.jpg,stim/3.jpg,stim/latef.jpg,AB,1,2,0,8,8,2,,,,,,,,,,,,,,,,,,2,1,1.1496432508,,,,,,2015_Nov_18_1524,P7,PLC_L_D1S1,NHG,60.0191951677,
stim/posf.jpg,stim/negf.jpg,stim/3.jpg,stim/2.jpg,stim/latef.jpg,AB,2,4,0,9,9,13,,,,,,,,,,,,,,,,,,4,1,1.61615493718,,,,,,2015_Nov_18_1524,P7,PLC_L_D1S1,NHG,60.0191951677,
stim/posf.jpg,stim/negf.jpg,stim/4.jpg,stim/5.jpg,stim/latef.jpg,CD,2,4,0,10,10,33,,,,,,,,,,,,,,,,,,2,0,1.63281384651,,,,,,2015_Nov_18_1524,P7,PLC_L_D1S1,NHG,60.0191951677,
stim/negf.jpg,stim/posf.jpg,stim/5.jpg,stim/4.jpg,stim/latef.jpg,CD,1,2,0,11,11,28,,,,,,,,,,,,,,,,,,2,1,1.56619702709,,,,,,2015_Nov_18_1524,P7,PLC_L_D1S1,NHG,60.0191951677,
stim/negf.jpg,stim/posf.jpg,stim/6.jpg,stim/1.jpg,stim/latef.jpg,EF,1,2,0,12,12,46,,,,,,,,,,,,,,,,,,2,1,0.999734113277,,,,,,2015_Nov_18_1524,P7,PLC_L_D1S1,NHG,60.0191951677,
stim/negf.jpg,stim/posf.jpg,stim/2.jpg,stim/3.jpg,stim/latef.jpg,AB,1,2,0,13,13,8,,,,,,,,,,,,,,,,,,2,1,1.29958918504,,,,,,2015_Nov_18_1524,P7,PLC_L_D1S1,NHG,60.0191951677,
stim/negf.jpg,stim/posf.jpg,stim/1.jpg,stim/6.jpg,stim/latef.jpg,EF,2,4,0,14,14,58,,,,,,,,,,,,,,,,,,4,1,1.06629394065,,,,,,2015_Nov_18_1524,P7,PLC_L_D1S1,NHG,60.0191951677,
stim/negf.jpg,stim/posf.jpg,stim/1.jpg,stim/6.jpg,stim/latef.jpg,EF,2,4,0,15,15,57,,,,,,,,,,,,,,,,,,2,0,1.14962172615,,,,,,2015_Nov_18_1524,P7,PLC_L_D1S1,NHG,60.0191951677,
stim/posf.jpg,stim/negf.jpg,stim/2.jpg,stim/3.jpg,stim/latef.jpg,AB,1,2,0,16,16,5,,,,,,,,,,,,,,,,,,4,0,1.44953781701,,,,,,2015_Nov_18_1524,P7,PLC_L_D1S1,NHG,60.0191951677,
stim/negf.jpg,stim/posf.jpg,stim/1.jpg,stim/6.jpg,stim/latef.jpg,EF,2,4,0,17,17,59,,,,,,,,,,,,,,,,,,2,0,1.41618733694,,,,,,2015_Nov_18_1524,P7,PLC_L_D1S1,NHG,60.0191951677,
stim/posf.jpg,stim/negf.jpg,stim/6.jpg,stim/1.jpg,stim/latef.jpg,EF,1,2,0,18,18,43,,,,,,,,,,,,,,,,,,2,1,1.44951474651,,,,,,2015_Nov_18_1524,P7,PLC_L_D1S1,NHG,60.0191951677,
stim/posf.jpg,stim/negf.jpg,stim/5.jpg,stim/4.jpg,stim/latef.jpg,CD,1,2,0,19,19,24,,,,,,,,,,,,,,,,,,4,0,1.29956075819,,,,,,2015_Nov_18_1524,P7,PLC_L_D1S1,NHG,60.0191951677,
stim/posf.jpg,stim/negf.jpg,stim/4.jpg,stim/5.jpg,stim/latef.jpg,CD,2,4,0,20,20,32,,,,,,,,,,,,,,,,,,4,1,1.08295242893,,,,,,2015_Nov_18_1524,P7,PLC_L_D1S1,NHG,60.0191951677,
stim/posf.jpg,stim/negf.jpg,stim/5.jpg,stim/4.jpg,stim/latef.jpg,CD,1,2,0,21,21,20,,,,,,,,,,,,,,,,,,2,1,1.01633102909,,,,,,2015_Nov_18_1524,P7,PLC_L_D1S1,NHG,60.0191951677,
stim/posf.jpg,stim/negf.jpg,stim/4.jpg,stim/5.jpg,stim/latef.jpg,CD,2,4,0,22,22,30,,,,,,,,,,,,,,,,,,4,1,1.44953985008,,,,,,2015_Nov_18_1524,P7,PLC_L_D1S1,NHG,60.0191951677,
stim/posf.jpg,stim/negf.jpg,stim/2.jpg,stim/3.jpg,stim/latef.jpg,AB,1,2,0,23,23,6,,,,,,,,,,,,,,,,,,2,1,1.06628945045,,,,,,2015_Nov_18_1524,P7,PLC_L_D1S1,NHG,60.0191951677,
stim/posf.jpg,stim/negf.jpg,stim/3.jpg,stim/2.jpg,stim/latef.jpg,AB,2,4,0,24,24,17,,,,,,,,,,,,,,,,,,4,1,1.31621732769,,,,,,2015_Nov_18_1524,P7,PLC_L_D1S1,NHG,60.0191951677,
stim/posf.jpg,stim/negf.jpg,stim/4.jpg,stim/5.jpg,stim/latef.jpg,CD,2,4,0,25,25,31,,,,,,,,,,,,,,,,,,4,1,1.44949153465,,,,,,2015_Nov_18_1524,P7,PLC_L_D1S1,NHG,60.0191951677,
stim/posf.jpg,stim/negf.jpg,stim/1.jpg,stim/6.jpg,stim/latef.jpg,EF,2,4,0,26,26,54,,,,,,,,,,,,,,,,,,2,0,1.16627888512,,,,,,2015_Nov_18_1524,P7,PLC_L_D1S1,NHG,60.0191951677,
stim/posf.jpg,stim/negf.jpg,stim/5.jpg,stim/4.jpg,stim/latef.jpg,CD,1,2,0,27,27,22,,,,,,,,,,,,,,,,,,2,1,1.21627527312,,,,,,2015_Nov_18_1524,P7,PLC_L_D1S1,NHG,60.0191951677,
stim/posf.jpg,stim/negf.jpg,stim/4.jpg,stim/5.jpg,stim/latef.jpg,CD,2,4,0,28,28,36,,,,,,,,,,,,,,,,,,4,1,0.966404099217,,,,,,2015_Nov_18_1524,P7,PLC_L_D1S1,NHG,60.0191951677,
stim/negf.jpg,stim/posf.jpg,stim/5.jpg,stim/4.jpg,stim/latef.jpg,CD,1,2,0,29,29,27,,,,,,,,,,,,,,,,,,2,1,1.01632958248,,,,,,2015_Nov_18_1524,P7,PLC_L_D1S1,NHG,60.0191951677,
stim/negf.jpg,stim/posf.jpg,stim/6.jpg,stim/1.jpg,stim/latef.jpg,EF,1,2,0,30,30,47,,,,,,,,,,,,,,,,,,4,0,1.38292547876,,,,,,2015_Nov_18_1524,P7,PLC_L_D1S1,NHG,60.0191951677,
stim/negf.jpg,stim/posf.jpg,stim/2.jpg,stim/3.jpg,stim/latef.jpg,AB,1,2,0,31,31,9,,,,,,,,,,,,,,,,,,2,1,1.49952089383,,,,,,2015_Nov_18_1524,P7,PLC_L_D1S1,NHG,60.0191951677,
stim/negf.jpg,stim/posf.jpg,stim/6.jpg,stim/1.jpg,stim/latef.jpg,EF,1,2,0,32,32,48,,,,,,,,,,,,,,,,,,4,0,1.13298293396,,,,,,2015_Nov_18_1524,P7,PLC_L_D1S1,NHG,60.0191951677,
stim/posf.jpg,stim/negf.jpg,stim/5.jpg,stim/4.jpg,stim/latef.jpg,CD,1,2,0,33,33,25,,,,,,,,,,,,,,,,,,2,1,1.3162507921,,,,,,2015_Nov_18_1524,P7,PLC_L_D1S1,NHG,60.0191951677,
stim/posf.jpg,stim/negf.jpg,stim/3.jpg,stim/2.jpg,stim/latef.jpg,AB,2,4,0,34,34,11,,,,,,,,,,,,,,,,,,4,1,1.09964929286,,,,,,2015_Nov_18_1524,P7,PLC_L_D1S1,NHG,60.0191951677,
stim/posf.jpg,stim/negf.jpg,stim/5.jpg,stim/4.jpg,stim/latef.jpg,CD,1,2,0,35,35,21,,,,,,,,,,,,,,,,,,2,1,0.966314268313,,,,,,2015_Nov_18_1524,P7,PLC_L_D1S1,NHG,60.0191951677,
stim/negf.jpg,stim/posf.jpg,stim/3.jpg,stim/2.jpg,stim/latef.jpg,AB,2,4,0,36,36,19,,,,,,,,,,,,,,,,,,2,0,1.26624053052,,,,,,2015_Nov_18_1524,P7,PLC_L_D1S1,NHG,60.0191951677,
stim/negf.jpg,stim/posf.jpg,stim/3.jpg,stim/2.jpg,stim/latef.jpg,AB,2,4,0,37,37,18,,,,,,,,,,,,,,,,,,2,0,0.849695581236,,,,,,2015_Nov_18_1524,P7,PLC_L_D1S1,NHG,60.0191951677,
stim/negf.jpg,stim/posf.jpg,stim/4.jpg,stim/5.jpg,stim/latef.jpg,CD,2,4,0,38,38,38,,,,,,,,,,,,,,,,,,4,1,1.33285109736,,,,,,2015_Nov_18_1524,P7,PLC_L_D1S1,NHG,60.0191951677,
stim/negf.jpg,stim/posf.jpg,stim/4.jpg,stim/5.jpg,stim/latef.jpg,CD,2,4,0,39,39,37,,,,,,,,,,,,,,,,,,2,0,0.983011959309,,,,,,2015_Nov_18_1524,P7,PLC_L_D1S1,NHG,60.0191951677,
stim/posf.jpg,stim/negf.jpg,stim/6.jpg,stim/1.jpg,stim/latef.jpg,EF,1,2,0,40,40,40,,,,,,,,,,,,,,,,,,4,0,0.966363597267,,,,,,2015_Nov_18_1524,P7,PLC_L_D1S1,NHG,60.0191951677,
stim/posf.jpg,stim/negf.jpg,stim/2.jpg,stim/3.jpg,stim/latef.jpg,AB,1,2,0,41,41,1,,,,,,,,,,,,,,,,,,4,0,1.13298680461,,,,,,2015_Nov_18_1524,P7,PLC_L_D1S1,NHG,60.0191951677,
stim/posf.jpg,stim/negf.jpg,stim/1.jpg,stim/6.jpg,stim/latef.jpg,EF,2,4,0,42,42,53,,,,,,,,,,,,,,,,,,2,0,1.28291698859,,,,,,2015_Nov_18_1524,P7,PLC_L_D1S1,NHG,60.0191951677,
stim/negf.jpg,stim/posf.jpg,stim/5.jpg,stim/4.jpg,stim/latef.jpg,CD,1,2,0,43,43,29,,,,,,,,,,,,,,,,,,2,1,1.36622091563,,,,,,2015_Nov_18_1524,P7,PLC_L_D1S1,NHG,60.0191951677,
stim/posf.jpg,stim/negf.jpg,stim/3.jpg,stim/2.jpg,stim/latef.jpg,AB,2,4,0,44,44,14,,,,,,,,,,,,,,,,,,2,0,1.34953726062,,,,,,2015_Nov_18_1524,P7,PLC_L_D1S1,NHG,60.0191951677,
stim/posf.jpg,stim/negf.jpg,stim/1.jpg,stim/6.jpg,stim/latef.jpg,EF,2,4,0,45,45,55,,,,,,,,,,,,,,,,,,2,0,1.24958868881,,,,,,2015_Nov_18_1524,P7,PLC_L_D1S1,NHG,60.0191951677,
stim/posf.jpg,stim/negf.jpg,stim/3.jpg,stim/2.jpg,stim/latef.jpg,AB,2,4,0,46,46,16,,,,,,,,,,,,,,,,,,4,1,0.949697608289,,,,,,2015_Nov_18_1524,P7,PLC_L_D1S1,NHG,60.0191951677,
stim/posf.jpg,stim/negf.jpg,stim/2.jpg,stim/3.jpg,stim/latef.jpg,AB,1,2,0,47,47,7,,,,,,,,,,,,,,,,,,2,1,1.19960036691,,,,,,2015_Nov_18_1524,P7,PLC_L_D1S1,NHG,60.0191951677,
stim/posf.jpg,stim/negf.jpg,stim/1.jpg,stim/6.jpg,stim/latef.jpg,EF,2,4,0,48,48,51,,,,,,,,,,,,,,,,,,4,1,1.0329727566,,,,,,2015_Nov_18_1524,P7,PLC_L_D1S1,NHG,60.0191951677,
stim/posf.jpg,stim/negf.jpg,stim/5.jpg,stim/4.jpg,stim/latef.jpg,CD,1,2,0,49,49,23,,,,,,,,,,,,,,,,,,2,1,1.18296912655,,,,,,2015_Nov_18_1524,P7,PLC_L_D1S1,NHG,60.0191951677,
stim/posf.jpg,stim/negf.jpg,stim/2.jpg,stim/3.jpg,stim/latef.jpg,AB,1,2,0,50,50,3,,,,,,,,,,,,,,,,,,4,0,1.64944775754,,,,,,2015_Nov_18_1524,P7,PLC_L_D1S1,NHG,60.0191951677,
stim/posf.jpg,stim/negf.jpg,stim/6.jpg,stim/1.jpg,stim/latef.jpg,EF,1,2,0,51,51,42,,,,,,,,,,,,,,,,,,2,1,0.866373254336,,,,,,2015_Nov_18_1524,P7,PLC_L_D1S1,NHG,60.0191951677,
stim/posf.jpg,stim/negf.jpg,stim/6.jpg,stim/1.jpg,stim/latef.jpg,EF,1,2,0,52,52,44,,,,,,,,,,,,,,,,,,2,1,0.916327579492,,,,,,2015_Nov_18_1524,P7,PLC_L_D1S1,NHG,60.0191951677,
stim/posf.jpg,stim/negf.jpg,stim/3.jpg,stim/2.jpg,stim/latef.jpg,AB,2,4,0,53,53,10,,,,,,,,,,,,,,,,,,4,1,1.34959154894,,,,,,2015_Nov_18_1524,P7,PLC_L_D1S1,NHG,60.0191951677,
stim/posf.jpg,stim/negf.jpg,stim/3.jpg,stim/2.jpg,stim/latef.jpg,AB,2,4,0,54,54,12,,,,,,,,,,,,,,,,,,4,1,0.533069092713,,,,,,2015_Nov_18_1524,P7,PLC_L_D1S1,NHG,60.0191951677,
stim/posf.jpg,stim/negf.jpg,stim/2.jpg,stim/3.jpg,stim/latef.jpg,AB,1,2,0,55,55,0,,,,,,,,,,,,,,,,,,2,1,0.749668312268,,,,,,2015_Nov_18_1524,P7,PLC_L_D1S1,NHG,60.0191951677,
stim/posf.jpg,stim/negf.jpg,stim/6.jpg,stim/1.jpg,stim/latef.jpg,EF,1,2,0,56,56,45,,,,,,,,,,,,,,,,,,2,1,0.966292863964,,,,,,2015_Nov_18_1524,P7,PLC_L_D1S1,NHG,60.0191951677,
stim/posf.jpg,stim/negf.jpg,stim/6.jpg,stim/1.jpg,stim/latef.jpg,EF,1,2,0,57,57,41,,,,,,,,,,,,,,,,,,2,1,0.716415702138,,,,,,2015_Nov_18_1524,P7,PLC_L_D1S1,NHG,60.0191951677,
stim/posf.jpg,stim/negf.jpg,stim/1.jpg,stim/6.jpg,stim/latef.jpg,EF,2,4,0,58,58,50,,,,,,,,,,,,,,,,,,4,1,1.0495990376,,,,,,2015_Nov_18_1524,P7,PLC_L_D1S1,NHG,60.0191951677,
stim/posf.jpg,stim/negf.jpg,stim/3.jpg,stim/2.jpg,stim/latef.jpg,AB,2,4,0,59,59,15,,,,,,,,,,,,,,,,,,4,1,1.2829109315,,,,,,2015_Nov_18_1524,P7,PLC_L_D1S1,NHG,60.0191951677,
,,,,,,,,,,,,,,,,,,,,,,,,,,,,,,,,0.9984375,1.0,1,0,0,2015_Nov_18_1524,P7,PLC_L_D1S1,NHG,60.0191951677,
stim/posf.jpg,stim/negf.jpg,stim/5.jpg,stim/4.jpg,stim/latef.jpg,CD,1,2,,,,,0,0,0,26,,,,,,,,,,,,,,2,1,0.9496652356,,,,,,2015_Nov_18_1524,P7,PLC_L_D1S1,NHG,60.0191951677,
stim/posf.jpg,stim/negf.jpg,stim/6.jpg,stim/1.jpg,stim/latef.jpg,EF,1,2,,,,,0,1,1,45,,,,,,,,,,,,,,2,1,0.899711340516,,,,,,2015_Nov_18_1524,P7,PLC_L_D1S1,NHG,60.0191951677,
stim/posf.jpg,stim/negf.jpg,stim/2.jpg,stim/3.jpg,stim/latef.jpg,AB,1,2,,,,,0,2,2,2,,,,,,,,,,,,,,4,0,0.949687966257,,,,,,2015_Nov_18_1524,P7,PLC_L_D1S1,NHG,60.0191951677,
stim/negf.jpg,stim/posf.jpg,stim/6.jpg,stim/1.jpg,stim/latef.jpg,EF,1,2,,,,,0,3,3,49,,,,,,,,,,,,,,2,1,0.749770212255,,,,,,2015_Nov_18_1524,P7,PLC_L_D1S1,NHG,60.0191951677,
stim/negf.jpg,stim/posf.jpg,stim/2.jpg,stim/3.jpg,stim/latef.jpg,AB,1,2,,,,,0,4,4,8,,,,,,,,,,,,,,4,0,0.966370529545,,,,,,2015_Nov_18_1524,P7,PLC_L_D1S1,NHG,60.0191951677,
stim/negf.jpg,stim/posf.jpg,stim/1.jpg,stim/6.jpg,stim/latef.jpg,EF,2,4,,,,,0,5,5,59,,,,,,,,,,,,,,2,0,0.766408162344,,,,,,2015_Nov_18_1524,P7,PLC_L_D1S1,NHG,60.0191951677,
stim/posf.jpg,stim/negf.jpg,stim/6.jpg,stim/1.jpg,stim/latef.jpg,EF,1,2,,,,,0,6,6,42,,,,,,,,,,,,,,4,0,0.816336968895,,,,,,2015_Nov_18_1524,P7,PLC_L_D1S1,NHG,60.0191951677,
stim/negf.jpg,stim/posf.jpg,stim/1.jpg,stim/6.jpg,stim/latef.jpg,EF,2,4,,,,,0,7,7,57,,,,,,,,,,,,,,2,0,0.816411190893,,,,,,2015_Nov_18_1524,P7,PLC_L_D1S1,NHG,60.0191951677,
stim/negf.jpg,stim/posf.jpg,stim/4.jpg,stim/5.jpg,stim/latef.jpg,CD,2,4,,,,,0,8,8,39,,,,,,,,,,,,,,2,0,0.933027480996,,,,,,2015_Nov_18_1524,P7,PLC_L_D1S1,NHG,60.0191951677,
stim/posf.jpg,stim/negf.jpg,stim/1.jpg,stim/6.jpg,stim/latef.jpg,EF,2,4,,,,,0,9,9,51,,,,,,,,,,,,,,4,1,0.816442802686,,,,,,2015_Nov_18_1524,P7,PLC_L_D1S1,NHG,60.0191951677,
stim/posf.jpg,stim/negf.jpg,stim/1.jpg,stim/6.jpg,stim/latef.jpg,EF,2,4,,,,,0,10,10,54,,,,,,,,,,,,,,4,1,0.799751649987,,,,,,2015_Nov_18_1524,P7,PLC_L_D1S1,NHG,60.0191951677,
stim/posf.jpg,stim/negf.jpg,stim/5.jpg,stim/4.jpg,stim/latef.jpg,CD,1,2,,,,,0,11,11,20,,,,,,,,,,,,,,2,1,1.06630636161,,,,,,2015_Nov_18_1524,P7,PLC_L_D1S1,NHG,60.0191951677,
stim/posf.jpg,stim/negf.jpg,stim/1.jpg,stim/6.jpg,stim/latef.jpg,EF,2,4,,,,,0,12,12,50,,,,,,,,,,,,,,4,1,0.866374505455,,,,,,2015_Nov_18_1524,P7,PLC_L_D1S1,NHG,60.0191951677,
stim/negf.jpg,stim/posf.jpg,stim/5.jpg,stim/4.jpg,stim/latef.jpg,CD,1,2,,,,,0,13,13,29,,,,,,,,,,,,,,2,1,0.882993478245,,,,,,2015_Nov_18_1524,P7,PLC_L_D1S1,NHG,60.0191951677,
stim/posf.jpg,stim/negf.jpg,stim/5.jpg,stim/4.jpg,stim/latef.jpg,CD,1,2,,,,,0,14,14,21,,,,,,,,,,,,,,4,0,0.549813020954,,,,,,2015_Nov_18_1524,P7,PLC_L_D1S1,NHG,60.0191951677,
stim/posf.jpg,stim/negf.jpg,stim/3.jpg,stim/2.jpg,stim/latef.jpg,AB,2,4,,,,,0,15,15,11,,,,,,,,,,,,,,2,0,1.03299065421,,,,,,2015_Nov_18_1524,P7,PLC_L_D1S1,NHG,60.0191951677,
stim/posf.jpg,stim/negf.jpg,stim/3.jpg,stim/2.jpg,stim/latef.jpg,AB,2,4,,,,,0,16,16,15,,,,,,,,,,,,,,4,1,0.766409338275,,,,,,2015_Nov_18_1524,P7,PLC_L_D1S1,NHG,60.0191951677,
stim/negf.jpg,stim/posf.jpg,stim/1.jpg,stim/6.jpg,stim/latef.jpg,EF,2,4,,,,,0,17,17,58,,,,,,,,,,,,,,2,0,1.03299018203,,,,,,2015_Nov_18_1524,P7,PLC_L_D1S1,NHG,60.0191951677,
stim/negf.jpg,stim/posf.jpg,stim/3.jpg,stim/2.jpg,stim/latef.jpg,AB,2,4,,,,,0,18,18,19,,,,,,,,,,,,,,4,1,1.66615349058,,,,,,2015_Nov_18_1524,P7,PLC_L_D1S1,NHG,60.0191951677,
stim/negf.jpg,stim/posf.jpg,stim/3.jpg,stim/2.jpg,stim/latef.jpg,AB,2,4,,,,,0,19,19,18,,,,,,,,,,,,,,2,0,0.616462267201,,,,,,2015_Nov_18_1524,P7,PLC_L_D1S1,NHG,60.0191951677,
stim/negf.jpg,stim/posf.jpg,stim/4.jpg,stim/5.jpg,stim/latef.jpg,CD,2,4,,,,,0,20,20,38,,,,,,,,,,,,,,2,0,0.982995439133,,,,,,2015_Nov_18_1524,P7,PLC_L_D1S1,NHG,60.0191951677,
stim/negf.jpg,stim/posf.jpg,stim/6.jpg,stim/1.jpg,stim/latef.jpg,EF,1,2,,,,,0,21,21,48,,,,,,,,,,,,,,4,0,1.29953149224,,,,,,2015_Nov_18_1524,P7,PLC_L_D1S1,NHG,60.0191951677,
stim/posf.jpg,stim/negf.jpg,stim/4.jpg,stim/5.jpg,stim/latef.jpg,CD,2,4,,,,,0,22,22,32,,,,,,,,,,,,,,2,0,1.36622870505,,,,,,2015_Nov_18_1524,P7,PLC_L_D1S1,NHG,60.0191951677,
stim/posf.jpg,stim/negf.jpg,stim/1.jpg,stim/6.jpg,stim/latef.jpg,EF,2,4,,,,,0,23,23,52,,,,,,,,,,,,,,2,0,0.999666706265,,,,,,2015_Nov_18_1524,P7,PLC_L_D1S1,NHG,60.0191951677,
stim/posf.jpg,stim/negf.jpg,stim/4.jpg,stim/5.jpg,stim/latef.jpg,CD,2,4,,,,,0,24,24,30,,,,,,,,,,,,,,4,1,0.683082193367,,,,,,2015_Nov_18_1524,P7,PLC_L_D1S1,NHG,60.0191951677,
stim/negf.jpg,stim/posf.jpg,stim/1.jpg,stim/6.jpg,stim/latef.jpg,EF,2,4,,,,,0,25,25,56,,,,,,,,,,,,,,4,1,1.01634320043,,,,,,2015_Nov_18_1524,P7,PLC_L_D1S1,NHG,60.0191951677,
stim/posf.jpg,stim/negf.jpg,stim/4.jpg,stim/5.jpg,stim/latef.jpg,CD,2,4,,,,,0,26,26,35,,,,,,,,,,,,,,2,0,1.63279846918,,,,,,2015_Nov_18_1524,P7,PLC_L_D1S1,NHG,60.0191951677,
stim/posf.jpg,stim/negf.jpg,stim/2.jpg,stim/3.jpg,stim/latef.jpg,AB,1,2,,,,,0,27,27,0,,,,,,,,,,,,,,4,0,1.31615977023,,,,,,2015_Nov_18_1524,P7,PLC_L_D1S1,NHG,60.0191951677,
stim/posf.jpg,stim/negf.jpg,stim/2.jpg,stim/3.jpg,stim/latef.jpg,AB,1,2,,,,,0,28,28,6,,,,,,,,,,,,,,2,1,1.16627391373,,,,,,2015_Nov_18_1524,P7,PLC_L_D1S1,NHG,60.0191951677,
stim/negf.jpg,stim/posf.jpg,stim/6.jpg,stim/1.jpg,stim/latef.jpg,EF,1,2,,,,,0,29,29,46,,,,,,,,,,,,,,2,1,0.799732925316,,,,,,2015_Nov_18_1524,P7,PLC_L_D1S1,NHG,60.0191951677,
stim/posf.jpg,stim/negf.jpg,stim/3.jpg,stim/2.jpg,stim/latef.jpg,AB,2,4,,,,,0,30,30,13,,,,,,,,,,,,,,4,1,1.29957524831,,,,,,2015_Nov_18_1524,P7,PLC_L_D1S1,NHG,60.0191951677,
stim/posf.jpg,stim/negf.jpg,stim/4.jpg,stim/5.jpg,stim/latef.jpg,CD,2,4,,,,,0,31,31,36,,,,,,,,,,,,,,2,0,1.33290073608,,,,,,2015_Nov_18_1524,P7,PLC_L_D1S1,NHG,60.0191951677,
stim/posf.jpg,stim/negf.jpg,stim/2.jpg,stim/3.jpg,stim/latef.jpg,AB,1,2,,,,,0,32,32,7,,,,,,,,,,,,,,2,1,1.23294946655,,,,,,2015_Nov_18_1524,P7,PLC_L_D1S1,NHG,60.0191951677,
stim/posf.jpg,stim/negf.jpg,stim/3.jpg,stim/2.jpg,stim/latef.jpg,AB,2,4,,,,,0,33,33,10,,,,,,,,,,,,,,4,1,1.09964712145,,,,,,2015_Nov_18_1524,P7,PLC_L_D1S1,NHG,60.0191951677,
stim/posf.jpg,stim/negf.jpg,stim/3.jpg,stim/2.jpg,stim/latef.jpg,AB,2,4,,,,,0,34,34,16,,,,,,,,,,,,,,4,1,0.666456736416,,,,,,2015_Nov_18_1524,P7,PLC_L_D1S1,NHG,60.0191951677,
stim/negf.jpg,stim/posf.jpg,stim/4.jpg,stim/5.jpg,stim/latef.jpg,CD,2,4,,,,,0,35,35,37,,,,,,,,,,,,,,4,1,1.09964245382,,,,,,2015_Nov_18_1524,P7,PLC_L_D1S1,NHG,60.0191951677,
stim/posf.jpg,stim/negf.jpg,stim/5.jpg,stim/4.jpg,stim/latef.jpg,CD,1,2,,,,,0,36,36,25,,,,,,,,,,,,,,4,0,1.01635405749,,,,,,2015_Nov_18_1524,P7,PLC_L_D1S1,NHG,60.0191951677,
stim/posf.jpg,stim/negf.jpg,stim/1.jpg,stim/6.jpg,stim/latef.jpg,EF,2,4,,,,,0,37,37,55,,,,,,,,,,,,,,2,0,1.18294063052,,,,,,2015_Nov_18_1524,P7,PLC_L_D1S1,NHG,60.0191951677,
stim/posf.jpg,stim/negf.jpg,stim/1.jpg,stim/6.jpg,stim/latef.jpg,EF,2,4,,,,,0,38,38,53,,,,,,,,,,,,,,4,1,0.733109017226,,,,,,2015_Nov_18_1524,P7,PLC_L_D1S1,NHG,60.0191951677,
stim/posf.jpg,stim/negf.jpg,stim/2.jpg,stim/3.jpg,stim/latef.jpg,AB,1,2,,,,,0,39,39,4,,,,,,,,,,,,,,4,0,1.29956073112,,,,,,2015_Nov_18_1524,P7,PLC_L_D1S1,NHG,60.0191951677,
stim/posf.jpg,stim/negf.jpg,stim/2.jpg,stim/3.jpg,stim/latef.jpg,AB,1,2,,,,,0,40,40,5,,,,,,,,,,,,,,2,1,0.716429335118,,,,,,2015_Nov_18_1524,P7,PLC_L_D1S1,NHG,60.0191951677,
stim/posf.jpg,stim/negf.jpg,stim/6.jpg,stim/1.jpg,stim/latef.jpg,EF,1,2,,,,,0,41,41,41,,,,,,,,,,,,,,2,1,1.43287036639,,,,,,2015_Nov_18_1524,P7,PLC_L_D1S1,NHG,60.0191951677,
stim/posf.jpg,stim/negf.jpg,stim/5.jpg,stim/4.jpg,stim/latef.jpg,CD,1,2,,,,,0,42,42,24,,,,,,,,,,,,,,4,0,1.36620697589,,,,,,2015_Nov_18_1524,P7,PLC_L_D1S1,NHG,60.0191951677,
stim/negf.jpg,stim/posf.jpg,stim/6.jpg,stim/1.jpg,stim/latef.jpg,EF,1,2,,,,,0,43,43,47,,,,,,,,,,,,,,2,1,0.833052909377,,,,,,2015_Nov_18_1524,P7,PLC_L_D1S1,NHG,60.0191951677,
stim/posf.jpg,stim/negf.jpg,stim/4.jpg,stim/5.jpg,stim/latef.jpg,CD,2,4,,,,,0,44,44,31,,,,,,,,,,,,,,4,1,1.43287215284,,,,,,2015_Nov_18_1524,P7,PLC_L_D1S1,NHG,60.0191951677,
stim/negf.jpg,stim/posf.jpg,stim/5.jpg,stim/4.jpg,stim/latef.jpg,CD,1,2,,,,,0,45,45,27,,,,,,,,,,,,,,2,1,1.51618666627,,,,,,2015_Nov_18_1524,P7,PLC_L_D1S1,NHG,60.0191951677,
stim/posf.jpg,stim/negf.jpg,stim/3.jpg,stim/2.jpg,stim/latef.jpg,AB,2,4,,,,,0,46,46,14,,,,,,,,,,,,,,2,0,1.39954481245,,,,,,2015_Nov_18_1524,P7,PLC_L_D1S1,NHG,60.0191951677,
stim/posf.jpg,stim/negf.jpg,stim/5.jpg,stim/4.jpg,stim/latef.jpg,CD,1,2,,,,,0,47,47,23,,,,,,,,,,,,,,4,0,1.2162783949,,,,,,2015_Nov_18_1524,P7,PLC_L_D1S1,NHG,60.0191951677,
stim/posf.jpg,stim/negf.jpg,stim/5.jpg,stim/4.jpg,stim/latef.jpg,CD,1,2,,,,,0,48,48,22,,,,,,,,,,,,,,2,1,1.06625210938,,,,,,2015_Nov_18_1524,P7,PLC_L_D1S1,NHG,60.0191951677,
stim/posf.jpg,stim/negf.jpg,stim/6.jpg,stim/1.jpg,stim/latef.jpg,EF,1,2,,,,,0,49,49,40,,,,,,,,,,,,,,2,1,1.04965055601,,,,,,2015_Nov_18_1524,P7,PLC_L_D1S1,NHG,60.0191951677,
stim/posf.jpg,stim/negf.jpg,stim/3.jpg,stim/2.jpg,stim/latef.jpg,AB,2,4,,,,,0,50,50,12,,,,,,,,,,,,,,2,0,0.69976921978,,,,,,2015_Nov_18_1524,P7,PLC_L_D1S1,NHG,60.0191951677,
stim/posf.jpg,stim/negf.jpg,stim/4.jpg,stim/5.jpg,stim/latef.jpg,CD,2,4,,,,,0,51,51,34,,,,,,,,,,,,,,4,1,1.31627760994,,,,,,2015_Nov_18_1524,P7,PLC_L_D1S1,NHG,60.0191951677,
stim/posf.jpg,stim/negf.jpg,stim/4.jpg,stim/5.jpg,stim/latef.jpg,CD,2,4,,,,,0,52,52,33,,,,,,,,,,,,,,2,0,0.899721770514,,,,,,2015_Nov_18_1524,P7,PLC_L_D1S1,NHG,60.0191951677,
stim/posf.jpg,stim/negf.jpg,stim/6.jpg,stim/1.jpg,stim/latef.jpg,EF,1,2,,,,,0,53,53,44,,,,,,,,,,,,,,2,1,1.13295388757,,,,,,2015_Nov_18_1524,P7,PLC_L_D1S1,NHG,60.0191951677,
stim/posf.jpg,stim/negf.jpg,stim/3.jpg,stim/2.jpg,stim/latef.jpg,AB,2,4,,,,,0,54,54,17,,,,,,,,,,,,,,2,0,0.949667106262,,,,,,2015_Nov_18_1524,P7,PLC_L_D1S1,NHG,60.0191951677,
stim/posf.jpg,stim/negf.jpg,stim/2.jpg,stim/3.jpg,stim/latef.jpg,AB,1,2,,,,,0,55,55,3,,,,,,,,,,,,,,2,1,0.999677430997,,,,,,2015_Nov_18_1524,P7,PLC_L_D1S1,NHG,60.0191951677,
stim/posf.jpg,stim/negf.jpg,stim/6.jpg,stim/1.jpg,stim/latef.jpg,EF,1,2,,,,,0,56,56,43,,,,,,,,,,,,,,2,1,0.766413169826,,,,,,2015_Nov_18_1524,P7,PLC_L_D1S1,NHG,60.0191951677,
stim/negf.jpg,stim/posf.jpg,stim/2.jpg,stim/3.jpg,stim/latef.jpg,AB,1,2,,,,,0,57,57,9,,,,,,,,,,,,,,2,1,1.28290679619,,,,,,2015_Nov_18_1524,P7,PLC_L_D1S1,NHG,60.0191951677,
stim/posf.jpg,stim/negf.jpg,stim/2.jpg,stim/3.jpg,stim/latef.jpg,AB,1,2,,,,,0,58,58,1,,,,,,,,,,,,,,4,0,0.666446258298,,,,,,2015_Nov_18_1524,P7,PLC_L_D1S1,NHG,60.0191951677,
stim/negf.jpg,stim/posf.jpg,stim/5.jpg,stim/4.jpg,stim/latef.jpg,CD,1,2,,,,,0,59,59,28,,,,,,,,,,,,,,2,1,1.11629958873,,,,,,2015_Nov_18_1524,P7,PLC_L_D1S1,NHG,60.0191951677,
,,,,,,,,,,,,,,,,,,,,,,,,,,,,,,,,0.9984375,1.0,1,0,0,2015_Nov_18_1524,P7,PLC_L_D1S1,NHG,60.0191951677,
stim/negf.jpg,stim/posf.jpg,stim/2.jpg,stim/3.jpg,stim/latef.jpg,AB,1,2,,,,,,,,,0,0,0,8,,,,,,,,,,2,1,0.999666339351,,,,,,2015_Nov_18_1524,P7,PLC_L_D1S1,NHG,60.0191951677,
stim/negf.jpg,stim/posf.jpg,stim/3.jpg,stim/2.jpg,stim/latef.jpg,AB,2,4,,,,,,,,,0,1,1,19,,,,,,,,,,2,0,0.599789102338,,,,,,2015_Nov_18_1524,P7,PLC_L_D1S1,NHG,60.0191951677,
stim/posf.jpg,stim/negf.jpg,stim/3.jpg,stim/2.jpg,stim/latef.jpg,AB,2,4,,,,,,,,,0,2,2,12,,,,,,,,,,2,0,0.549869994962,,,,,,2015_Nov_18_1524,P7,PLC_L_D1S1,NHG,60.0191951677,
stim/posf.jpg,stim/negf.jpg,stim/4.jpg,stim/5.jpg,stim/latef.jpg,CD,2,4,,,,,,,,,0,3,3,34,,,,,,,,,,2,0,0.933022726145,,,,,,2015_Nov_18_1524,P7,PLC_L_D1S1,NHG,60.0191951677,
stim/posf.jpg,stim/negf.jpg,stim/2.jpg,stim/3.jpg,stim/latef.jpg,AB,1,2,,,,,,,,,0,4,4,3,,,,,,,,,,4,0,1.08297960466,,,,,,2015_Nov_18_1524,P7,PLC_L_D1S1,NHG,60.0191951677,
stim/posf.jpg,stim/negf.jpg,stim/2.jpg,stim/3.jpg,stim/latef.jpg,AB,1,2,,,,,,,,,0,5,5,5,,,,,,,,,,2,1,1.08298374899,,,,,,2015_Nov_18_1524,P7,PLC_L_D1S1,NHG,60.0191951677,
stim/posf.jpg,stim/negf.jpg,stim/4.jpg,stim/5.jpg,stim/latef.jpg,CD,2,4,,,,,,,,,0,6,6,35,,,,,,,,,,2,0,1.06630777814,,,,,,2015_Nov_18_1524,P7,PLC_L_D1S1,NHG,60.0191951677,
stim/posf.jpg,stim/negf.jpg,stim/4.jpg,stim/5.jpg,stim/latef.jpg,CD,2,4,,,,,,,,,0,7,7,32,,,,,,,,,,4,1,1.18290633604,,,,,,2015_Nov_18_1524,P7,PLC_L_D1S1,NHG,60.0191951677,
stim/posf.jpg,stim/negf.jpg,stim/6.jpg,stim/1.jpg,stim/latef.jpg,EF,1,2,,,,,,,,,0,8,8,40,,,,,,,,,,2,1,1.28293705461,,,,,,2015_Nov_18_1524,P7,PLC_L_D1S1,NHG,60.0191951677,
stim/negf.jpg,stim/posf.jpg,stim/1.jpg,stim/6.jpg,stim/latef.jpg,EF,2,4,,,,,,,,,0,9,9,58,,,,,,,,,,4,1,1.06629529402,,,,,,2015_Nov_18_1524,P7,PLC_L_D1S1,NHG,60.0191951677,
stim/posf.jpg,stim/negf.jpg,stim/4.jpg,stim/5.jpg,stim/latef.jpg,CD,2,4,,,,,,,,,0,10,10,31,,,,,,,,,,2,0,0.999669846092,,,,,,2015_Nov_18_1524,P7,PLC_L_D1S1,NHG,60.0191951677,
stim/posf.jpg,stim/negf.jpg,stim/1.jpg,stim/6.jpg,stim/latef.jpg,EF,2,4,,,,,,,,,0,11,11,53,,,,,,,,,,4,1,0.999676065593,,,,,,2015_Nov_18_1524,P7,PLC_L_D1S1,NHG,60.0191951677,
stim/posf.jpg,stim/negf.jpg,stim/5.jpg,stim/4.jpg,stim/latef.jpg,CD,1,2,,,,,,,,,0,12,12,23,,,,,,,,,,2,1,1.46618498508,,,,,,2015_Nov_18_1524,P7,PLC_L_D1S1,NHG,60.0191951677,
stim/negf.jpg,stim/posf.jpg,stim/6.jpg,stim/1.jpg,stim/latef.jpg,EF,1,2,,,,,,,,,0,13,13,46,,,,,,,,,,2,1,0.816392430132,,,,,,2015_Nov_18_1524,P7,PLC_L_D1S1,NHG,60.0191951677,
stim/posf.jpg,stim/negf.jpg,stim/3.jpg,stim/2.jpg,stim/latef.jpg,AB,2,4,,,,,,,,,0,14,14,11,,,,,,,,,,4,1,1.44952836445,,,,,,2015_Nov_18_1524,P7,PLC_L_D1S1,NHG,60.0191951677,
stim/posf.jpg,stim/negf.jpg,stim/6.jpg,stim/1.jpg,stim/latef.jpg,EF,1,2,,,,,,,,,0,15,15,41,,,,,,,,,,4,0,1.14960092631,,,,,,2015_Nov_18_1524,P7,PLC_L_D1S1,NHG,60.0191951677,
stim/negf.jpg,stim/posf.jpg,stim/6.jpg,stim/1.jpg,stim/latef.jpg,EF,1,2,,,,,,,,,0,16,16,49,,,,,,,,,,2,1,0.599798001518,,,,,,2015_Nov_18_1524,P7,PLC_L_D1S1,NHG,60.0191951677,
stim/posf.jpg,stim/negf.jpg,stim/1.jpg,stim/6.jpg,stim/latef.jpg,EF,2,4,,,,,,,,,0,17,17,52,,,,,,,,,,4,1,0.899696964684,,,,,,2015_Nov_18_1524,P7,PLC_L_D1S1,NHG,60.0191951677,
stim/negf.jpg,stim/posf.jpg,stim/4.jpg,stim/5.jpg,stim/latef.jpg,CD,2,4,,,,,,,,,0,18,18,37,,,,,,,,,,2,0,1.06630106541,,,,,,2015_Nov_18_1524,P7,PLC_L_D1S1,NHG,60.0191951677,
stim/posf.jpg,stim/negf.jpg,stim/5.jpg,stim/4.jpg,stim/latef.jpg,CD,1,2,,,,,,,,,0,19,19,21,,,,,,,,,,2,1,0.849710245788,,,,,,2015_Nov_18_1524,P7,PLC_L_D1S1,NHG,60.0191951677,
stim/negf.jpg,stim/posf.jpg,stim/5.jpg,stim/4.jpg,stim/latef.jpg,CD,1,2,,,,,,,,,0,20,20,29,,,,,,,,,,2,1,0.916373657341,,,,,,2015_Nov_18_1524,P7,PLC_L_D1S1,NHG,60.0191951677,
stim/posf.jpg,stim/negf.jpg,stim/1.jpg,stim/6.jpg,stim/latef.jpg,EF,2,4,,,,,,,,,0,21,21,51,,,,,,,,,,4,1,1.03299503914,,,,,,2015_Nov_18_1524,P7,PLC_L_D1S1,NHG,60.0191951677,
stim/posf.jpg,stim/negf.jpg,stim/5.jpg,stim/4.jpg,stim/latef.jpg,CD,1,2,,,,,,,,,0,22,22,20,,,,,,,,,,4,0,1.28290906083,,,,,,2015_Nov_18_1524,P7,PLC_L_D1S1,NHG,60.0191951677,
stim/posf.jpg,stim/negf.jpg,stim/3.jpg,stim/2.jpg,stim/latef.jpg,AB,2,4,,,,,,,,,0,23,23,17,,,,,,,,,,2,0,1.11629097225,,,,,,2015_Nov_18_1524,P7,PLC_L_D1S1,NHG,60.0191951677,
stim/posf.jpg,stim/negf.jpg,stim/2.jpg,stim/3.jpg,stim/latef.jpg,AB,1,2,,,,,,,,,0,24,24,2,,,,,,,,,,2,1,0.766414742746,,,,,,2015_Nov_18_1524,P7,PLC_L_D1S1,NHG,60.0191951677,
stim/posf.jpg,stim/negf.jpg,stim/2.jpg,stim/3.jpg,stim/latef.jpg,AB,1,2,,,,,,,,,0,25,25,7,,,,,,,,,,2,1,0.866381443749,,,,,,2015_Nov_18_1524,P7,PLC_L_D1S1,NHG,60.0191951677,
stim/posf.jpg,stim/negf.jpg,stim/3.jpg,stim/2.jpg,stim/latef.jpg,AB,2,4,,,,,,,,,0,26,26,10,,,,,,,,,,None,0,,,,,,,2015_Nov_18_1524,P7,PLC_L_D1S1,NHG,60.0191951677,
stim/negf.jpg,stim/posf.jpg,stim/3.jpg,stim/2.jpg,stim/latef.jpg,AB,2,4,,,,,,,,,0,27,27,18,,,,,,,,,,2,0,0.649828338133,,,,,,2015_Nov_18_1524,P7,PLC_L_D1S1,NHG,60.0191951677,
stim/posf.jpg,stim/negf.jpg,stim/5.jpg,stim/4.jpg,stim/latef.jpg,CD,1,2,,,,,,,,,0,28,28,24,,,,,,,,,,2,1,1.24959598499,,,,,,2015_Nov_18_1524,P7,PLC_L_D1S1,NHG,60.0191951677,
stim/posf.jpg,stim/negf.jpg,stim/5.jpg,stim/4.jpg,stim/latef.jpg,CD,1,2,,,,,,,,,0,29,29,26,,,,,,,,,,2,1,1.43289614665,,,,,,2015_Nov_18_1524,P7,PLC_L_D1S1,NHG,60.0191951677,
stim/posf.jpg,stim/negf.jpg,stim/4.jpg,stim/5.jpg,stim/latef.jpg,CD,2,4,,,,,,,,,0,30,30,33,,,,,,,,,,2,0,1.59947570319,,,,,,2015_Nov_18_1524,P7,PLC_L_D1S1,NHG,60.0191951677,
stim/posf.jpg,stim/negf.jpg,stim/6.jpg,stim/1.jpg,stim/latef.jpg,EF,1,2,,,,,,,,,0,31,31,45,,,,,,,,,,4,0,0.699759289027,,,,,,2015_Nov_18_1524,P7,PLC_L_D1S1,NHG,60.0191951677,
stim/posf.jpg,stim/negf.jpg,stim/3.jpg,stim/2.jpg,stim/latef.jpg,AB,2,4,,,,,,,,,0,32,32,16,,,,,,,,,,2,0,1.26622562838,,,,,,2015_Nov_18_1524,P7,PLC_L_D1S1,NHG,60.0191951677,
stim/posf.jpg,stim/negf.jpg,stim/4.jpg,stim/5.jpg,stim/latef.jpg,CD,2,4,,,,,,,,,0,33,33,30,,,,,,,,,,2,0,1.4495289449,,,,,,2015_Nov_18_1524,P7,PLC_L_D1S1,NHG,60.0191951677,
stim/posf.jpg,stim/negf.jpg,stim/6.jpg,stim/1.jpg,stim/latef.jpg,EF,1,2,,,,,,,,,0,34,34,42,,,,,,,,,,2,1,0.516491154202,,,,,,2015_Nov_18_1524,P7,PLC_L_D1S1,NHG,60.0191951677,
stim/posf.jpg,stim/negf.jpg,stim/2.jpg,stim/3.jpg,stim/latef.jpg,AB,1,2,,,,,,,,,0,35,35,0,,,,,,,,,,4,0,1.41619185119,,,,,,2015_Nov_18_1524,P7,PLC_L_D1S1,NHG,60.0191951677,
stim/posf.jpg,stim/negf.jpg,stim/6.jpg,stim/1.jpg,stim/latef.jpg,EF,1,2,,,,,,,,,0,36,36,43,,,,,,,,,,2,1,1.06631489087,,,,,,2015_Nov_18_1524,P7,PLC_L_D1S1,NHG,60.0191951677,
stim/negf.jpg,stim/posf.jpg,stim/5.jpg,stim/4.jpg,stim/latef.jpg,CD,1,2,,,,,,,,,0,37,37,28,,,,,,,,,,2,1,0.78304783573,,,,,,2015_Nov_18_1524,P7,PLC_L_D1S1,NHG,60.0191951677,
stim/negf.jpg,stim/posf.jpg,stim/1.jpg,stim/6.jpg,stim/latef.jpg,EF,2,4,,,,,,,,,0,38,38,59,,,,,,,,,,4,1,1.16626962203,,,,,,2015_Nov_18_1524,P7,PLC_L_D1S1,NHG,60.0191951677,
stim/posf.jpg,stim/negf.jpg,stim/3.jpg,stim/2.jpg,stim/latef.jpg,AB,2,4,,,,,,,,,0,39,39,15,,,,,,,,,,2,0,0.599863489749,,,,,,2015_Nov_18_1524,P7,PLC_L_D1S1,NHG,60.0191951677,
stim/posf.jpg,stim/negf.jpg,stim/2.jpg,stim/3.jpg,stim/latef.jpg,AB,1,2,,,,,,,,,0,40,40,4,,,,,,,,,,2,1,1.59945829881,,,,,,2015_Nov_18_1524,P7,PLC_L_D1S1,NHG,60.0191951677,
stim/posf.jpg,stim/negf.jpg,stim/1.jpg,stim/6.jpg,stim/latef.jpg,EF,2,4,,,,,,,,,0,41,41,50,,,,,,,,,,4,1,1.08300813979,,,,,,2015_Nov_18_1524,P7,PLC_L_D1S1,NHG,60.0191951677,
stim/posf.jpg,stim/negf.jpg,stim/6.jpg,stim/1.jpg,stim/latef.jpg,EF,1,2,,,,,,,,,0,42,42,44,,,,,,,,,,2,1,0.683096887993,,,,,,2015_Nov_18_1524,P7,PLC_L_D1S1,NHG,60.0191951677,
stim/posf.jpg,stim/negf.jpg,stim/5.jpg,stim/4.jpg,stim/latef.jpg,CD,1,2,,,,,,,,,0,43,43,25,,,,,,,,,,2,1,1.39954556733,,,,,,2015_Nov_18_1524,P7,PLC_L_D1S1,NHG,60.0191951677,
stim/negf.jpg,stim/posf.jpg,stim/4.jpg,stim/5.jpg,stim/latef.jpg,CD,2,4,,,,,,,,,0,44,44,39,,,,,,,,,,4,1,1.43287559943,,,,,,2015_Nov_18_1524,P7,PLC_L_D1S1,NHG,60.0191951677,
stim/negf.jpg,stim/posf.jpg,stim/4.jpg,stim/5.jpg,stim/latef.jpg,CD,2,4,,,,,,,,,0,45,45,38,,,,,,,,,,2,0,0.516479154292,,,,,,2015_Nov_18_1524,P7,PLC_L_D1S1,NHG,60.0191951677,
stim/posf.jpg,stim/negf.jpg,stim/1.jpg,stim/6.jpg,stim/latef.jpg,EF,2,4,,,,,,,,,0,46,46,54,,,,,,,,,,4,1,0.966348090616,,,,,,2015_Nov_18_1524,P7,PLC_L_D1S1,NHG,60.0191951677,
stim/negf.jpg,stim/posf.jpg,stim/6.jpg,stim/1.jpg,stim/latef.jpg,EF,1,2,,,,,,,,,0,47,47,48,,,,,,,,,,2,1,0.666448522944,,,,,,2015_Nov_18_1524,P7,PLC_L_D1S1,NHG,60.0191951677,
stim/posf.jpg,stim/negf.jpg,stim/3.jpg,stim/2.jpg,stim/latef.jpg,AB,2,4,,,,,,,,,0,48,48,14,,,,,,,,,,4,1,0.949686438448,,,,,,2015_Nov_18_1524,P7,PLC_L_D1S1,NHG,60.0191951677,
stim/negf.jpg,stim/posf.jpg,stim/6.jpg,stim/1.jpg,stim/latef.jpg,EF,1,2,,,,,,,,,0,49,49,47,,,,,,,,,,2,1,1.01637118819,,,,,,2015_Nov_18_1524,P7,PLC_L_D1S1,NHG,60.0191951677,
stim/negf.jpg,stim/posf.jpg,stim/1.jpg,stim/6.jpg,stim/latef.jpg,EF,2,4,,,,,,,,,0,50,50,57,,,,,,,,,,4,1,0.866394950414,,,,,,2015_Nov_18_1524,P7,PLC_L_D1S1,NHG,60.0191951677,
stim/posf.jpg,stim/negf.jpg,stim/4.jpg,stim/5.jpg,stim/latef.jpg,CD,2,4,,,,,,,,,0,51,51,36,,,,,,,,,,4,1,0.866373858844,,,,,,2015_Nov_18_1524,P7,PLC_L_D1S1,NHG,60.0191951677,
stim/posf.jpg,stim/negf.jpg,stim/5.jpg,stim/4.jpg,stim/latef.jpg,CD,1,2,,,,,,,,,0,52,52,22,,,,,,,,,,2,1,1.09963151254,,,,,,2015_Nov_18_1524,P7,PLC_L_D1S1,NHG,60.0191951677,
stim/negf.jpg,stim/posf.jpg,stim/2.jpg,stim/3.jpg,stim/latef.jpg,AB,1,2,,,,,,,,,0,53,53,9,,,,,,,,,,4,0,1.51615770708,,,,,,2015_Nov_18_1524,P7,PLC_L_D1S1,NHG,60.0191951677,
stim/negf.jpg,stim/posf.jpg,stim/5.jpg,stim/4.jpg,stim/latef.jpg,CD,1,2,,,,,,,,,0,54,54,27,,,,,,,,,,2,1,1.39954135984,,,,,,2015_Nov_18_1524,P7,PLC_L_D1S1,NHG,60.0191951677,
stim/posf.jpg,stim/negf.jpg,stim/1.jpg,stim/6.jpg,stim/latef.jpg,EF,2,4,,,,,,,,,0,55,55,55,,,,,,,,,,4,1,0.833051986076,,,,,,2015_Nov_18_1524,P7,PLC_L_D1S1,NHG,60.0191951677,
stim/posf.jpg,stim/negf.jpg,stim/2.jpg,stim/3.jpg,stim/latef.jpg,AB,1,2,,,,,,,,,0,56,56,1,,,,,,,,,,4,0,1.16628430463,,,,,,2015_Nov_18_1524,P7,PLC_L_D1S1,NHG,60.0191951677,
stim/posf.jpg,stim/negf.jpg,stim/2.jpg,stim/3.jpg,stim/latef.jpg,AB,1,2,,,,,,,,,0,57,57,6,,,,,,,,,,2,1,1.14962352163,,,,,,2015_Nov_18_1524,P7,PLC_L_D1S1,NHG,60.0191951677,
stim/negf.jpg,stim/posf.jpg,stim/1.jpg,stim/6.jpg,stim/latef.jpg,EF,2,4,,,,,,,,,0,58,58,56,,,,,,,,,,4,1,0.749739024519,,,,,,2015_Nov_18_1524,P7,PLC_L_D1S1,NHG,60.0191951677,
stim/posf.jpg,stim/negf.jpg,stim/3.jpg,stim/2.jpg,stim/latef.jpg,AB,2,4,,,,,,,,,0,59,59,13,,,,,,,,,,2,0,0.666426297546,,,,,,2015_Nov_18_1524,P7,PLC_L_D1S1,NHG,60.0191951677,
,,,,,,,,,,,,,,,,,,,,,,,,,,,,,,,,0.9984375,1.0,1,0,0,2015_Nov_18_1524,P7,PLC_L_D1S1,NHG,60.0191951677,
stim/posf.jpg,stim/negf.jpg,stim/3.jpg,stim/2.jpg,stim/latef.jpg,AB,2,4,,,,,,,,,,,,,0,0,0,10,,,,,,2,0,0.999659773986,,,,,,2015_Nov_18_1524,P7,PLC_L_D1S1,NHG,60.0191951677,
stim/posf.jpg,stim/negf.jpg,stim/2.jpg,stim/3.jpg,stim/latef.jpg,AB,1,2,,,,,,,,,,,,,0,1,1,5,,,,,,2,1,0.616473566364,,,,,,2015_Nov_18_1524,P7,PLC_L_D1S1,NHG,60.0191951677,
stim/posf.jpg,stim/negf.jpg,stim/6.jpg,stim/1.jpg,stim/latef.jpg,EF,1,2,,,,,,,,,,,,,0,2,2,45,,,,,,2,1,0.783122057729,,,,,,2015_Nov_18_1524,P7,PLC_L_D1S1,NHG,60.0191951677,
stim/negf.jpg,stim/posf.jpg,stim/1.jpg,stim/6.jpg,stim/latef.jpg,EF,2,4,,,,,,,,,,,,,0,3,3,57,,,,,,4,1,0.566469882182,,,,,,2015_Nov_18_1524,P7,PLC_L_D1S1,NHG,60.0191951677,
stim/posf.jpg,stim/negf.jpg,stim/2.jpg,stim/3.jpg,stim/latef.jpg,AB,1,2,,,,,,,,,,,,,0,4,4,3,,,,,,4,0,1.46619218803,,,,,,2015_Nov_18_1524,P7,PLC_L_D1S1,NHG,60.0191951677,
stim/posf.jpg,stim/negf.jpg,stim/1.jpg,stim/6.jpg,stim/latef.jpg,EF,2,4,,,,,,,,,,,,,0,5,5,50,,,,,,2,0,1.34956809347,,,,,,2015_Nov_18_1524,P7,PLC_L_D1S1,NHG,60.0191951677,
stim/posf.jpg,stim/negf.jpg,stim/5.jpg,stim/4.jpg,stim/latef.jpg,CD,1,2,,,,,,,,,,,,,0,6,6,22,,,,,,2,1,0.8164056571,,,,,,2015_Nov_18_1524,P7,PLC_L_D1S1,NHG,60.0191951677,
stim/negf.jpg,stim/posf.jpg,stim/5.jpg,stim/4.jpg,stim/latef.jpg,CD,1,2,,,,,,,,,,,,,0,7,7,29,,,,,,2,1,0.783089615868,,,,,,2015_Nov_18_1524,P7,PLC_L_D1S1,NHG,60.0191951677,
stim/negf.jpg,stim/posf.jpg,stim/5.jpg,stim/4.jpg,stim/latef.jpg,CD,1,2,,,,,,,,,,,,,0,8,8,27,,,,,,4,0,1.11630312554,,,,,,2015_Nov_18_1524,P7,PLC_L_D1S1,NHG,60.0191951677,
stim/posf.jpg,stim/negf.jpg,stim/6.jpg,stim/1.jpg,stim/latef.jpg,EF,1,2,,,,,,,,,,,,,0,9,9,40,,,,,,2,1,1.04966157848,,,,,,2015_Nov_18_1524,P7,PLC_L_D1S1,NHG,60.0191951677,
stim/posf.jpg,stim/negf.jpg,stim/1.jpg,stim/6.jpg,stim/latef.jpg,EF,2,4,,,,,,,,,,,,,0,10,10,51,,,,,,4,1,0.649784705378,,,,,,2015_Nov_18_1524,P7,PLC_L_D1S1,NHG,60.0191951677,
stim/posf.jpg,stim/negf.jpg,stim/2.jpg,stim/3.jpg,stim/latef.jpg,AB,1,2,,,,,,,,,,,,,0,11,11,7,,,,,,2,1,1.26617459718,,,,,,2015_Nov_18_1524,P7,PLC_L_D1S1,NHG,60.0191951677,
stim/posf.jpg,stim/negf.jpg,stim/3.jpg,stim/2.jpg,stim/latef.jpg,AB,2,4,,,,,,,,,,,,,0,12,12,11,,,,,,4,1,0.849753006369,,,,,,2015_Nov_18_1524,P7,PLC_L_D1S1,NHG,60.0191951677,
stim/posf.jpg,stim/negf.jpg,stim/4.jpg,stim/5.jpg,stim/latef.jpg,CD,2,4,,,,,,,,,,,,,0,13,13,35,,,,,,4,1,0.916365591236,,,,,,2015_Nov_18_1524,P7,PLC_L_D1S1,NHG,60.0191951677,
stim/negf.jpg,stim/posf.jpg,stim/1.jpg,stim/6.jpg,stim/latef.jpg,EF,2,4,,,,,,,,,,,,,0,14,14,56,,,,,,2,0,1.36622292163,,,,,,2015_Nov_18_1524,P7,PLC_L_D1S1,NHG,60.0191951677,
stim/posf.jpg,stim/negf.jpg,stim/6.jpg,stim/1.jpg,stim/latef.jpg,EF,1,2,,,,,,,,,,,,,0,15,15,43,,,,,,4,0,1.04965022819,,,,,,2015_Nov_18_1524,P7,PLC_L_D1S1,NHG,60.0191951677,
stim/posf.jpg,stim/negf.jpg,stim/2.jpg,stim/3.jpg,stim/latef.jpg,AB,1,2,,,,,,,,,,,,,0,16,16,0,,,,,,2,1,0.799735644093,,,,,,2015_Nov_18_1524,P7,PLC_L_D1S1,NHG,60.0191951677,
stim/negf.jpg,stim/posf.jpg,stim/4.jpg,stim/5.jpg,stim/latef.jpg,CD,2,4,,,,,,,,,,,,,0,17,17,37,,,,,,2,0,1.16619564966,,,,,,2015_Nov_18_1524,P7,PLC_L_D1S1,NHG,60.0191951677,
stim/posf.jpg,stim/negf.jpg,stim/3.jpg,stim/2.jpg,stim/latef.jpg,AB,2,4,,,,,,,,,,,,,0,18,18,13,,,,,,2,0,1.26622928249,,,,,,2015_Nov_18_1524,P7,PLC_L_D1S1,NHG,60.0191951677,
stim/posf.jpg,stim/negf.jpg,stim/2.jpg,stim/3.jpg,stim/latef.jpg,AB,1,2,,,,,,,,,,,,,0,19,19,1,,,,,,2,1,1.24959299855,,,,,,2015_Nov_18_1524,P7,PLC_L_D1S1,NHG,60.0191951677,
stim/posf.jpg,stim/negf.jpg,stim/5.jpg,stim/4.jpg,stim/latef.jpg,CD,1,2,,,,,,,,,,,,,0,20,20,25,,,,,,2,1,1.31623277118,,,,,,2015_Nov_18_1524,P7,PLC_L_D1S1,NHG,60.0191951677,
stim/negf.jpg,stim/posf.jpg,stim/6.jpg,stim/1.jpg,stim/latef.jpg,EF,1,2,,,,,,,,,,,,,0,21,21,47,,,,,,2,1,0.849718101368,,,,,,2015_Nov_18_1524,P7,PLC_L_D1S1,NHG,60.0191951677,
stim/posf.jpg,stim/negf.jpg,stim/1.jpg,stim/6.jpg,stim/latef.jpg,EF,2,4,,,,,,,,,,,,,0,22,22,53,,,,,,2,0,0.999658417606,,,,,,2015_Nov_18_1524,P7,PLC_L_D1S1,NHG,60.0191951677,
stim/posf.jpg,stim/negf.jpg,stim/3.jpg,stim/2.jpg,stim/latef.jpg,AB,2,4,,,,,,,,,,,,,0,23,23,17,,,,,,2,0,1.63280685709,,,,,,2015_Nov_18_1524,P7,PLC_L_D1S1,NHG,60.0191951677,
stim/negf.jpg,stim/posf.jpg,stim/3.jpg,stim/2.jpg,stim/latef.jpg,AB,2,4,,,,,,,,,,,,,0,24,24,18,,,,,,4,1,1.04964535605,,,,,,2015_Nov_18_1524,P7,PLC_L_D1S1,NHG,60.0191951677,
stim/posf.jpg,stim/negf.jpg,stim/5.jpg,stim/4.jpg,stim/latef.jpg,CD,1,2,,,,,,,,,,,,,0,25,25,21,,,,,,2,1,0.76647491673,,,,,,2015_Nov_18_1524,P7,PLC_L_D1S1,NHG,60.0191951677,
stim/negf.jpg,stim/posf.jpg,stim/6.jpg,stim/1.jpg,stim/latef.jpg,EF,1,2,,,,,,,,,,,,,0,26,26,48,,,,,,2,1,1.34959087526,,,,,,2015_Nov_18_1524,P7,PLC_L_D1S1,NHG,60.0191951677,
stim/posf.jpg,stim/negf.jpg,stim/6.jpg,stim/1.jpg,stim/latef.jpg,EF,1,2,,,,,,,,,,,,,0,27,27,44,,,,,,2,1,0.699707280396,,,,,,2015_Nov_18_1524,P7,PLC_L_D1S1,NHG,60.0191951677,
stim/posf.jpg,stim/negf.jpg,stim/3.jpg,stim/2.jpg,stim/latef.jpg,AB,2,4,,,,,,,,,,,,,0,28,28,15,,,,,,4,1,1.04965725671,,,,,,2015_Nov_18_1524,P7,PLC_L_D1S1,NHG,60.0191951677,
stim/posf.jpg,stim/negf.jpg,stim/4.jpg,stim/5.jpg,stim/latef.jpg,CD,2,4,,,,,,,,,,,,,0,29,29,36,,,,,,2,0,1.38287841445,,,,,,2015_Nov_18_1524,P7,PLC_L_D1S1,NHG,60.0191951677,
stim/posf.jpg,stim/negf.jpg,stim/6.jpg,stim/1.jpg,stim/latef.jpg,EF,1,2,,,,,,,,,,,,,0,30,30,42,,,,,,2,1,0.73305838302,,,,,,2015_Nov_18_1524,P7,PLC_L_D1S1,NHG,60.0191951677,
stim/posf.jpg,stim/negf.jpg,stim/4.jpg,stim/5.jpg,stim/latef.jpg,CD,2,4,,,,,,,,,,,,,0,31,31,34,,,,,,4,1,0.999748468057,,,,,,2015_Nov_18_1524,P7,PLC_L_D1S1,NHG,60.0191951677,
stim/posf.jpg,stim/negf.jpg,stim/4.jpg,stim/5.jpg,stim/latef.jpg,CD,2,4,,,,,,,,,,,,,0,32,32,30,,,,,,2,0,1.18291693747,,,,,,2015_Nov_18_1524,P7,PLC_L_D1S1,NHG,60.0191951677,
stim/posf.jpg,stim/negf.jpg,stim/3.jpg,stim/2.jpg,stim/latef.jpg,AB,2,4,,,,,,,,,,,,,0,33,33,14,,,,,,4,1,1.0163114533,,,,,,2015_Nov_18_1524,P7,PLC_L_D1S1,NHG,60.0191951677,
stim/posf.jpg,stim/negf.jpg,stim/5.jpg,stim/4.jpg,stim/latef.jpg,CD,1,2,,,,,,,,,,,,,0,34,34,26,,,,,,2,1,1.13297712047,,,,,,2015_Nov_18_1524,P7,PLC_L_D1S1,NHG,60.0191951677,
stim/posf.jpg,stim/negf.jpg,stim/2.jpg,stim/3.jpg,stim/latef.jpg,AB,1,2,,,,,,,,,,,,,0,35,35,6,,,,,,2,1,1.13294190269,,,,,,2015_Nov_18_1524,P7,PLC_L_D1S1,NHG,60.0191951677,
stim/posf.jpg,stim/negf.jpg,stim/2.jpg,stim/3.jpg,stim/latef.jpg,AB,1,2,,,,,,,,,,,,,0,36,36,4,,,,,,2,1,1.06630529395,,,,,,2015_Nov_18_1524,P7,PLC_L_D1S1,NHG,60.0191951677,
stim/posf.jpg,stim/negf.jpg,stim/5.jpg,stim/4.jpg,stim/latef.jpg,CD,1,2,,,,,,,,,,,,,0,37,37,24,,,,,,2,1,0.883043336516,,,,,,2015_Nov_18_1524,P7,PLC_L_D1S1,NHG,60.0191951677,
stim/negf.jpg,stim/posf.jpg,stim/2.jpg,stim/3.jpg,stim/latef.jpg,AB,1,2,,,,,,,,,,,,,0,38,38,9,,,,,,2,1,0.683114087864,,,,,,2015_Nov_18_1524,P7,PLC_L_D1S1,NHG,60.0191951677,
stim/negf.jpg,stim/posf.jpg,stim/3.jpg,stim/2.jpg,stim/latef.jpg,AB,2,4,,,,,,,,,,,,,0,39,39,19,,,,,,4,1,1.3327992782,,,,,,2015_Nov_18_1524,P7,PLC_L_D1S1,NHG,60.0191951677,
stim/posf.jpg,stim/negf.jpg,stim/4.jpg,stim/5.jpg,stim/latef.jpg,CD,2,4,,,,,,,,,,,,,0,40,40,33,,,,,,2,0,1.53282944339,,,,,,2015_Nov_18_1524,P7,PLC_L_D1S1,NHG,60.0191951677,
stim/posf.jpg,stim/negf.jpg,stim/3.jpg,stim/2.jpg,stim/latef.jpg,AB,2,4,,,,,,,,,,,,,0,41,41,12,,,,,,2,0,1.19961488711,,,,,,2015_Nov_18_1524,P7,PLC_L_D1S1,NHG,60.0191951677,
stim/negf.jpg,stim/posf.jpg,stim/6.jpg,stim/1.jpg,stim/latef.jpg,EF,1,2,,,,,,,,,,,,,0,42,42,49,,,,,,2,1,0.816419957746,,,,,,2015_Nov_18_1524,P7,PLC_L_D1S1,NHG,60.0191951677,
stim/negf.jpg,stim/posf.jpg,stim/5.jpg,stim/4.jpg,stim/latef.jpg,CD,1,2,,,,,,,,,,,,,0,43,43,28,,,,,,2,1,0.649782173066,,,,,,2015_Nov_18_1524,P7,PLC_L_D1S1,NHG,60.0191951677,
stim/posf.jpg,stim/negf.jpg,stim/3.jpg,stim/2.jpg,stim/latef.jpg,AB,2,4,,,,,,,,,,,,,0,44,44,16,,,,,,2,0,1.14961766904,,,,,,2015_Nov_18_1524,P7,PLC_L_D1S1,NHG,60.0191951677,
stim/negf.jpg,stim/posf.jpg,stim/6.jpg,stim/1.jpg,stim/latef.jpg,EF,1,2,,,,,,,,,,,,,0,45,45,46,,,,,,4,0,0.816415708152,,,,,,2015_Nov_18_1524,P7,PLC_L_D1S1,NHG,60.0191951677,
stim/posf.jpg,stim/negf.jpg,stim/6.jpg,stim/1.jpg,stim/latef.jpg,EF,1,2,,,,,,,,,,,,,0,46,46,41,,,,,,4,0,0.866421590816,,,,,,2015_Nov_18_1524,P7,PLC_L_D1S1,NHG,60.0191951677,
stim/posf.jpg,stim/negf.jpg,stim/1.jpg,stim/6.jpg,stim/latef.jpg,EF,2,4,,,,,,,,,,,,,0,47,47,54,,,,,,4,1,0.58313790122,,,,,,2015_Nov_18_1524,P7,PLC_L_D1S1,NHG,60.0191951677,
stim/posf.jpg,stim/negf.jpg,stim/1.jpg,stim/6.jpg,stim/latef.jpg,EF,2,4,,,,,,,,,,,,,0,48,48,52,,,,,,4,1,0.866378291892,,,,,,2015_Nov_18_1524,P7,PLC_L_D1S1,NHG,60.0191951677,
stim/posf.jpg,stim/negf.jpg,stim/1.jpg,stim/6.jpg,stim/latef.jpg,EF,2,4,,,,,,,,,,,,,0,49,49,55,,,,,,4,1,0.499844741016,,,,,,2015_Nov_18_1524,P7,PLC_L_D1S1,NHG,60.0191951677,
stim/negf.jpg,stim/posf.jpg,stim/2.jpg,stim/3.jpg,stim/latef.jpg,AB,1,2,,,,,,,,,,,,,0,50,50,8,,,,,,2,1,1.01634010271,,,,,,2015_Nov_18_1524,P7,PLC_L_D1S1,NHG,60.0191951677,
stim/negf.jpg,stim/posf.jpg,stim/1.jpg,stim/6.jpg,stim/latef.jpg,EF,2,4,,,,,,,,,,,,,0,51,51,59,,,,,,4,1,0.583148186855,,,,,,2015_Nov_18_1524,P7,PLC_L_D1S1,NHG,60.0191951677,
stim/posf.jpg,stim/negf.jpg,stim/5.jpg,stim/4.jpg,stim/latef.jpg,CD,1,2,,,,,,,,,,,,,0,52,52,23,,,,,,2,1,0.916373988164,,,,,,2015_Nov_18_1524,P7,PLC_L_D1S1,NHG,60.0191951677,
stim/posf.jpg,stim/negf.jpg,stim/5.jpg,stim/4.jpg,stim/latef.jpg,CD,1,2,,,,,,,,,,,,,0,53,53,20,,,,,,2,1,1.56615670258,,,,,,2015_Nov_18_1524,P7,PLC_L_D1S1,NHG,60.0191951677,
stim/posf.jpg,stim/negf.jpg,stim/4.jpg,stim/5.jpg,stim/latef.jpg,CD,2,4,,,,,,,,,,,,,0,54,54,32,,,,,,4,1,1.1496156871,,,,,,2015_Nov_18_1524,P7,PLC_L_D1S1,NHG,60.0191951677,
stim/negf.jpg,stim/posf.jpg,stim/4.jpg,stim/5.jpg,stim/latef.jpg,CD,2,4,,,,,,,,,,,,,0,55,55,38,,,,,,4,1,0.93297317163,,,,,,2015_Nov_18_1524,P7,PLC_L_D1S1,NHG,60.0191951677,
stim/posf.jpg,stim/negf.jpg,stim/2.jpg,stim/3.jpg,stim/latef.jpg,AB,1,2,,,,,,,,,,,,,0,56,56,2,,,,,,2,1,1.53282383741,,,,,,2015_Nov_18_1524,P7,PLC_L_D1S1,NHG,60.0191951677,
stim/posf.jpg,stim/negf.jpg,stim/4.jpg,stim/5.jpg,stim/latef.jpg,CD,2,4,,,,,,,,,,,,,0,57,57,31,,,,,,2,0,1.3162176134,,,,,,2015_Nov_18_1524,P7,PLC_L_D1S1,NHG,60.0191951677,
stim/negf.jpg,stim/posf.jpg,stim/4.jpg,stim/5.jpg,stim/latef.jpg,CD,2,4,,,,,,,,,,,,,0,58,58,39,,,,,,4,1,1.06637697762,,,,,,2015_Nov_18_1524,P7,PLC_L_D1S1,NHG,60.0191951677,
stim/negf.jpg,stim/posf.jpg,stim/1.jpg,stim/6.jpg,stim/latef.jpg,EF,2,4,,,,,,,,,,,,,0,59,59,58,,,,,,4,1,0.999677346786,,,,,,2015_Nov_18_1524,P7,PLC_L_D1S1,NHG,60.0191951677,
