fb_corr,fb_incorr,symbol2,symbol1,fb_late,pair,position,correct,block_01.thisRepN,block_01.thisTrialN,block_01.thisN,block_01.thisIndex,block_02.thisRepN,block_02.thisTrialN,block_02.thisN,block_02.thisIndex,block_03.thisRepN,block_03.thisTrialN,block_03.thisN,block_03.thisIndex,block_04.thisRepN,block_04.thisTrialN,block_04.thisN,block_04.thisIndex,mouse.x,mouse.y,mouse.leftButton,mouse.midButton,mouse.rightButton,buttonBox_2.keys,buttonBox_2.corr,buttonBox_2.rt,mouse_2.x,mouse_2.y,mouse_2.leftButton,mouse_2.midButton,mouse_2.rightButton,date,Participant,expName,Group,frameRate,
,,,,,,,,,,,,,,,,,,,,,,,,0.9984375,1.0,1,0,0,,,,,,,,,2015_Nov_23_1621,P9,PLC_L_D1S1,NHG,60.0139205982,
stim/posf.jpg,stim/negf.jpg,stim/1.jpg,stim/3.jpg,stim/latef.jpg,CD,2,4,0,0,0,35,,,,,,,,,,,,,,,,,,4,1,1.16631418711,,,,,,2015_Nov_23_1621,P9,PLC_L_D1S1,NHG,60.0139205982,
stim/posf.jpg,stim/negf.jpg,stim/5.jpg,stim/2.jpg,stim/latef.jpg,EF,2,4,0,1,1,50,,,,,,,,,,,,,,,,,,2,0,0.683104145081,,,,,,2015_Nov_23_1621,P9,PLC_L_D1S1,NHG,60.0139205982,
stim/posf.jpg,stim/negf.jpg,stim/1.jpg,stim/3.jpg,stim/latef.jpg,CD,2,4,0,2,2,32,,,,,,,,,,,,,,,,,,2,0,0.832990371502,,,,,,2015_Nov_23_1621,P9,PLC_L_D1S1,NHG,60.0139205982,
stim/posf.jpg,stim/negf.jpg,stim/2.jpg,stim/5.jpg,stim/latef.jpg,EF,1,2,0,3,3,40,,,,,,,,,,,,,,,,,,2,1,0.966332358405,,,,,,2015_Nov_23_1621,P9,PLC_L_D1S1,NHG,60.0139205982,
stim/negf.jpg,stim/posf.jpg,stim/6.jpg,stim/4.jpg,stim/latef.jpg,AB,2,4,0,4,4,18,,,,,,,,,,,,,,,,,,2,0,0.749739226021,,,,,,2015_Nov_23_1621,P9,PLC_L_D1S1,NHG,60.0139205982,
stim/posf.jpg,stim/negf.jpg,stim/1.jpg,stim/3.jpg,stim/latef.jpg,CD,2,4,0,5,5,33,,,,,,,,,,,,,,,,,,4,1,0.816387209119,,,,,,2015_Nov_23_1621,P9,PLC_L_D1S1,NHG,60.0139205982,
stim/posf.jpg,stim/negf.jpg,stim/5.jpg,stim/2.jpg,stim/latef.jpg,EF,2,4,0,6,6,53,,,,,,,,,,,,,,,,,,4,1,0.533137979413,,,,,,2015_Nov_23_1621,P9,PLC_L_D1S1,NHG,60.0139205982,
stim/posf.jpg,stim/negf.jpg,stim/4.jpg,stim/6.jpg,stim/latef.jpg,AB,1,2,0,7,7,3,,,,,,,,,,,,,,,,,,2,1,0.549890857963,,,,,,2015_Nov_23_1621,P9,PLC_L_D1S1,NHG,60.0139205982,
stim/posf.jpg,stim/negf.jpg,stim/3.jpg,stim/1.jpg,stim/latef.jpg,CD,1,2,0,8,8,26,,,,,,,,,,,,,,,,,,2,1,0.449847814678,,,,,,2015_Nov_23_1621,P9,PLC_L_D1S1,NHG,60.0139205982,
stim/posf.jpg,stim/negf.jpg,stim/2.jpg,stim/5.jpg,stim/latef.jpg,EF,1,2,0,9,9,43,,,,,,,,,,,,,,,,,,4,0,0.466505875896,,,,,,2015_Nov_23_1621,P9,PLC_L_D1S1,NHG,60.0139205982,
stim/posf.jpg,stim/negf.jpg,stim/4.jpg,stim/6.jpg,stim/latef.jpg,AB,1,2,0,10,10,2,,,,,,,,,,,,,,,,,,4,0,0.848696755664,,,,,,2015_Nov_23_1621,P9,PLC_L_D1S1,NHG,60.0139205982,
stim/posf.jpg,stim/negf.jpg,stim/4.jpg,stim/6.jpg,stim/latef.jpg,AB,1,2,0,11,11,6,,,,,,,,,,,,,,,,,,2,1,0.899736750851,,,,,,2015_Nov_23_1621,P9,PLC_L_D1S1,NHG,60.0139205982,
stim/posf.jpg,stim/negf.jpg,stim/6.jpg,stim/4.jpg,stim/latef.jpg,AB,2,4,0,12,12,13,,,,,,,,,,,,,,,,,,2,0,1.14962287502,,,,,,2015_Nov_23_1621,P9,PLC_L_D1S1,NHG,60.0139205982,
stim/posf.jpg,stim/negf.jpg,stim/2.jpg,stim/5.jpg,stim/latef.jpg,EF,1,2,0,13,13,41,,,,,,,,,,,,,,,,,,4,0,1.13293809219,,,,,,2015_Nov_23_1621,P9,PLC_L_D1S1,NHG,60.0139205982,
stim/negf.jpg,stim/posf.jpg,stim/5.jpg,stim/2.jpg,stim/latef.jpg,EF,2,4,0,14,14,59,,,,,,,,,,,,,,,,,,2,0,1.33291027887,,,,,,2015_Nov_23_1621,P9,PLC_L_D1S1,NHG,60.0139205982,
stim/negf.jpg,stim/posf.jpg,stim/2.jpg,stim/5.jpg,stim/latef.jpg,EF,1,2,0,15,15,46,,,,,,,,,,,,,,,,,,2,1,0.916352030436,,,,,,2015_Nov_23_1621,P9,PLC_L_D1S1,NHG,60.0139205982,
stim/posf.jpg,stim/negf.jpg,stim/6.jpg,stim/4.jpg,stim/latef.jpg,AB,2,4,0,16,16,10,,,,,,,,,,,,,,,,,,4,1,0.599826551679,,,,,,2015_Nov_23_1621,P9,PLC_L_D1S1,NHG,60.0139205982,
stim/posf.jpg,stim/negf.jpg,stim/5.jpg,stim/2.jpg,stim/latef.jpg,EF,2,4,0,17,17,51,,,,,,,,,,,,,,,,,,2,0,1.08297422726,,,,,,2015_Nov_23_1621,P9,PLC_L_D1S1,NHG,60.0139205982,
stim/posf.jpg,stim/negf.jpg,stim/3.jpg,stim/1.jpg,stim/latef.jpg,CD,1,2,0,18,18,20,,,,,,,,,,,,,,,,,,2,1,1.24959308877,,,,,,2015_Nov_23_1621,P9,PLC_L_D1S1,NHG,60.0139205982,
stim/posf.jpg,stim/negf.jpg,stim/5.jpg,stim/2.jpg,stim/latef.jpg,EF,2,4,0,19,19,55,,,,,,,,,,,,,,,,,,2,0,1.64946508974,,,,,,2015_Nov_23_1621,P9,PLC_L_D1S1,NHG,60.0139205982,
stim/negf.jpg,stim/posf.jpg,stim/1.jpg,stim/3.jpg,stim/latef.jpg,CD,2,4,0,20,20,39,,,,,,,,,,,,,,,,,,4,1,0.899694336133,,,,,,2015_Nov_23_1621,P9,PLC_L_D1S1,NHG,60.0139205982,
stim/negf.jpg,stim/posf.jpg,stim/3.jpg,stim/1.jpg,stim/latef.jpg,CD,1,2,0,21,21,27,,,,,,,,,,,,,,,,,,2,1,0.799751388335,,,,,,2015_Nov_23_1621,P9,PLC_L_D1S1,NHG,60.0139205982,
stim/posf.jpg,stim/negf.jpg,stim/2.jpg,stim/5.jpg,stim/latef.jpg,EF,1,2,0,22,22,44,,,,,,,,,,,,,,,,,,2,1,0.899718829181,,,,,,2015_Nov_23_1621,P9,PLC_L_D1S1,NHG,60.0139205982,
stim/negf.jpg,stim/posf.jpg,stim/5.jpg,stim/2.jpg,stim/latef.jpg,EF,2,4,0,23,23,58,,,,,,,,,,,,,,,,,,2,0,0.833074283652,,,,,,2015_Nov_23_1621,P9,PLC_L_D1S1,NHG,60.0139205982,
stim/negf.jpg,stim/posf.jpg,stim/5.jpg,stim/2.jpg,stim/latef.jpg,EF,2,4,0,24,24,57,,,,,,,,,,,,,,,,,,2,0,0.649759493537,,,,,,2015_Nov_23_1621,P9,PLC_L_D1S1,NHG,60.0139205982,
stim/posf.jpg,stim/negf.jpg,stim/6.jpg,stim/4.jpg,stim/latef.jpg,AB,2,4,0,25,25,14,,,,,,,,,,,,,,,,,,4,1,0.799715954015,,,,,,2015_Nov_23_1621,P9,PLC_L_D1S1,NHG,60.0139205982,
stim/posf.jpg,stim/negf.jpg,stim/5.jpg,stim/2.jpg,stim/latef.jpg,EF,2,4,0,26,26,54,,,,,,,,,,,,,,,,,,2,0,0.916339804964,,,,,,2015_Nov_23_1621,P9,PLC_L_D1S1,NHG,60.0139205982,
stim/posf.jpg,stim/negf.jpg,stim/2.jpg,stim/5.jpg,stim/latef.jpg,EF,1,2,0,27,27,42,,,,,,,,,,,,,,,,,,4,0,1.41622764039,,,,,,2015_Nov_23_1621,P9,PLC_L_D1S1,NHG,60.0139205982,
stim/negf.jpg,stim/posf.jpg,stim/1.jpg,stim/3.jpg,stim/latef.jpg,CD,2,4,0,28,28,37,,,,,,,,,,,,,,,,,,None,0,,,,,,,2015_Nov_23_1621,P9,PLC_L_D1S1,NHG,60.0139205982,
stim/posf.jpg,stim/negf.jpg,stim/3.jpg,stim/1.jpg,stim/latef.jpg,CD,1,2,0,29,29,22,,,,,,,,,,,,,,,,,,2,1,0.76640392779,,,,,,2015_Nov_23_1621,P9,PLC_L_D1S1,NHG,60.0139205982,
stim/posf.jpg,stim/negf.jpg,stim/6.jpg,stim/4.jpg,stim/latef.jpg,AB,2,4,0,30,30,11,,,,,,,,,,,,,,,,,,4,1,0.733097988737,,,,,,2015_Nov_23_1621,P9,PLC_L_D1S1,NHG,60.0139205982,
stim/negf.jpg,stim/posf.jpg,stim/2.jpg,stim/5.jpg,stim/latef.jpg,EF,1,2,0,31,31,49,,,,,,,,,,,,,,,,,,4,0,1.166290473,,,,,,2015_Nov_23_1621,P9,PLC_L_D1S1,NHG,60.0139205982,
stim/posf.jpg,stim/negf.jpg,stim/4.jpg,stim/6.jpg,stim/latef.jpg,AB,1,2,0,32,32,5,,,,,,,,,,,,,,,,,,2,1,0.933033366668,,,,,,2015_Nov_23_1621,P9,PLC_L_D1S1,NHG,60.0139205982,
stim/negf.jpg,stim/posf.jpg,stim/3.jpg,stim/1.jpg,stim/latef.jpg,CD,1,2,0,33,33,29,,,,,,,,,,,,,,,,,,2,1,0.816346797392,,,,,,2015_Nov_23_1621,P9,PLC_L_D1S1,NHG,60.0139205982,
stim/negf.jpg,stim/posf.jpg,stim/2.jpg,stim/5.jpg,stim/latef.jpg,EF,1,2,0,34,34,47,,,,,,,,,,,,,,,,,,4,0,1.03300082255,,,,,,2015_Nov_23_1621,P9,PLC_L_D1S1,NHG,60.0139205982,
stim/posf.jpg,stim/negf.jpg,stim/4.jpg,stim/6.jpg,stim/latef.jpg,AB,1,2,0,35,35,0,,,,,,,,,,,,,,,,,,2,1,0.649776549049,,,,,,2015_Nov_23_1621,P9,PLC_L_D1S1,NHG,60.0139205982,
stim/posf.jpg,stim/negf.jpg,stim/1.jpg,stim/3.jpg,stim/latef.jpg,CD,2,4,0,36,36,30,,,,,,,,,,,,,,,,,,2,0,0.816411446531,,,,,,2015_Nov_23_1621,P9,PLC_L_D1S1,NHG,60.0139205982,
stim/posf.jpg,stim/negf.jpg,stim/6.jpg,stim/4.jpg,stim/latef.jpg,AB,2,4,0,37,37,12,,,,,,,,,,,,,,,,,,4,1,0.799740663604,,,,,,2015_Nov_23_1621,P9,PLC_L_D1S1,NHG,60.0139205982,
stim/posf.jpg,stim/negf.jpg,stim/3.jpg,stim/1.jpg,stim/latef.jpg,CD,1,2,0,38,38,21,,,,,,,,,,,,,,,,,,4,0,0.799784440718,,,,,,2015_Nov_23_1621,P9,PLC_L_D1S1,NHG,60.0139205982,
stim/posf.jpg,stim/negf.jpg,stim/5.jpg,stim/2.jpg,stim/latef.jpg,EF,2,4,0,39,39,52,,,,,,,,,,,,,,,,,,2,0,0.83305392591,,,,,,2015_Nov_23_1621,P9,PLC_L_D1S1,NHG,60.0139205982,
stim/posf.jpg,stim/negf.jpg,stim/6.jpg,stim/4.jpg,stim/latef.jpg,AB,2,4,0,40,40,17,,,,,,,,,,,,,,,,,,4,1,0.683098782716,,,,,,2015_Nov_23_1621,P9,PLC_L_D1S1,NHG,60.0139205982,
stim/posf.jpg,stim/negf.jpg,stim/2.jpg,stim/5.jpg,stim/latef.jpg,EF,1,2,0,41,41,45,,,,,,,,,,,,,,,,,,4,0,0.849718471291,,,,,,2015_Nov_23_1621,P9,PLC_L_D1S1,NHG,60.0139205982,
stim/posf.jpg,stim/negf.jpg,stim/4.jpg,stim/6.jpg,stim/latef.jpg,AB,1,2,0,42,42,1,,,,,,,,,,,,,,,,,,2,1,0.799745036504,,,,,,2015_Nov_23_1621,P9,PLC_L_D1S1,NHG,60.0139205982,
stim/negf.jpg,stim/posf.jpg,stim/3.jpg,stim/1.jpg,stim/latef.jpg,CD,1,2,0,43,43,28,,,,,,,,,,,,,,,,,,4,0,0.833107032277,,,,,,2015_Nov_23_1621,P9,PLC_L_D1S1,NHG,60.0139205982,
stim/posf.jpg,stim/negf.jpg,stim/1.jpg,stim/3.jpg,stim/latef.jpg,CD,2,4,0,44,44,31,,,,,,,,,,,,,,,,,,2,0,0.666461966452,,,,,,2015_Nov_23_1621,P9,PLC_L_D1S1,NHG,60.0139205982,
stim/negf.jpg,stim/posf.jpg,stim/4.jpg,stim/6.jpg,stim/latef.jpg,AB,1,2,0,45,45,8,,,,,,,,,,,,,,,,,,2,1,0.599824043427,,,,,,2015_Nov_23_1621,P9,PLC_L_D1S1,NHG,60.0139205982,
stim/negf.jpg,stim/posf.jpg,stim/1.jpg,stim/3.jpg,stim/latef.jpg,CD,2,4,0,46,46,38,,,,,,,,,,,,,,,,,,4,1,0.833048380087,,,,,,2015_Nov_23_1621,P9,PLC_L_D1S1,NHG,60.0139205982,
stim/negf.jpg,stim/posf.jpg,stim/2.jpg,stim/5.jpg,stim/latef.jpg,EF,1,2,0,47,47,48,,,,,,,,,,,,,,,,,,2,1,1.09968496477,,,,,,2015_Nov_23_1621,P9,PLC_L_D1S1,NHG,60.0139205982,
stim/negf.jpg,stim/posf.jpg,stim/5.jpg,stim/2.jpg,stim/latef.jpg,EF,2,4,0,48,48,56,,,,,,,,,,,,,,,,,,4,1,0.73309034669,,,,,,2015_Nov_23_1621,P9,PLC_L_D1S1,NHG,60.0139205982,
stim/posf.jpg,stim/negf.jpg,stim/3.jpg,stim/1.jpg,stim/latef.jpg,CD,1,2,0,49,49,25,,,,,,,,,,,,,,,,,,2,1,1.14963226743,,,,,,2015_Nov_23_1621,P9,PLC_L_D1S1,NHG,60.0139205982,
stim/posf.jpg,stim/negf.jpg,stim/3.jpg,stim/1.jpg,stim/latef.jpg,CD,1,2,0,50,50,24,,,,,,,,,,,,,,,,,,2,1,0.699767102504,,,,,,2015_Nov_23_1621,P9,PLC_L_D1S1,NHG,60.0139205982,
stim/posf.jpg,stim/negf.jpg,stim/1.jpg,stim/3.jpg,stim/latef.jpg,CD,2,4,0,51,51,36,,,,,,,,,,,,,,,,,,4,1,0.733107504455,,,,,,2015_Nov_23_1621,P9,PLC_L_D1S1,NHG,60.0139205982,
stim/negf.jpg,stim/posf.jpg,stim/4.jpg,stim/6.jpg,stim/latef.jpg,AB,1,2,0,52,52,9,,,,,,,,,,,,,,,,,,2,1,0.733083038473,,,,,,2015_Nov_23_1621,P9,PLC_L_D1S1,NHG,60.0139205982,
stim/posf.jpg,stim/negf.jpg,stim/1.jpg,stim/3.jpg,stim/latef.jpg,CD,2,4,0,53,53,34,,,,,,,,,,,,,,,,,,4,1,0.849661488259,,,,,,2015_Nov_23_1621,P9,PLC_L_D1S1,NHG,60.0139205982,
stim/posf.jpg,stim/negf.jpg,stim/3.jpg,stim/1.jpg,stim/latef.jpg,CD,1,2,0,54,54,23,,,,,,,,,,,,,,,,,,2,1,0.633072701708,,,,,,2015_Nov_23_1621,P9,PLC_L_D1S1,NHG,60.0139205982,
stim/negf.jpg,stim/posf.jpg,stim/6.jpg,stim/4.jpg,stim/latef.jpg,AB,2,4,0,55,55,19,,,,,,,,,,,,,,,,,,4,1,0.716417966783,,,,,,2015_Nov_23_1621,P9,PLC_L_D1S1,NHG,60.0139205982,
stim/posf.jpg,stim/negf.jpg,stim/6.jpg,stim/4.jpg,stim/latef.jpg,AB,2,4,0,56,56,16,,,,,,,,,,,,,,,,,,4,1,1.0329790182,,,,,,2015_Nov_23_1621,P9,PLC_L_D1S1,NHG,60.0139205982,
stim/posf.jpg,stim/negf.jpg,stim/4.jpg,stim/6.jpg,stim/latef.jpg,AB,1,2,0,57,57,4,,,,,,,,,,,,,,,,,,2,1,0.749758525124,,,,,,2015_Nov_23_1621,P9,PLC_L_D1S1,NHG,60.0139205982,
stim/posf.jpg,stim/negf.jpg,stim/4.jpg,stim/6.jpg,stim/latef.jpg,AB,1,2,0,58,58,7,,,,,,,,,,,,,,,,,,2,1,0.566474185909,,,,,,2015_Nov_23_1621,P9,PLC_L_D1S1,NHG,60.0139205982,
stim/posf.jpg,stim/negf.jpg,stim/6.jpg,stim/4.jpg,stim/latef.jpg,AB,2,4,0,59,59,15,,,,,,,,,,,,,,,,,,4,1,0.549827084007,,,,,,2015_Nov_23_1621,P9,PLC_L_D1S1,NHG,60.0139205982,
,,,,,,,,,,,,,,,,,,,,,,,,,,,,,,,,0.9984375,1.0,1,0,0,2015_Nov_23_1621,P9,PLC_L_D1S1,NHG,60.0139205982,
stim/posf.jpg,stim/negf.jpg,stim/5.jpg,stim/2.jpg,stim/latef.jpg,EF,2,4,,,,,0,0,0,51,,,,,,,,,,,,,,2,0,0.899736026046,,,,,,2015_Nov_23_1621,P9,PLC_L_D1S1,NHG,60.0139205982,
stim/posf.jpg,stim/negf.jpg,stim/5.jpg,stim/2.jpg,stim/latef.jpg,EF,2,4,,,,,0,1,1,52,,,,,,,,,,,,,,2,0,0.849706384162,,,,,,2015_Nov_23_1621,P9,PLC_L_D1S1,NHG,60.0139205982,
stim/posf.jpg,stim/negf.jpg,stim/3.jpg,stim/1.jpg,stim/latef.jpg,CD,1,2,,,,,0,2,2,22,,,,,,,,,,,,,,2,1,0.816396066195,,,,,,2015_Nov_23_1621,P9,PLC_L_D1S1,NHG,60.0139205982,
stim/posf.jpg,stim/negf.jpg,stim/4.jpg,stim/6.jpg,stim/latef.jpg,AB,1,2,,,,,0,3,3,7,,,,,,,,,,,,,,2,1,0.683084524177,,,,,,2015_Nov_23_1621,P9,PLC_L_D1S1,NHG,60.0139205982,
stim/negf.jpg,stim/posf.jpg,stim/2.jpg,stim/5.jpg,stim/latef.jpg,EF,1,2,,,,,0,4,4,48,,,,,,,,,,,,,,4,0,0.583116511905,,,,,,2015_Nov_23_1621,P9,PLC_L_D1S1,NHG,60.0139205982,
stim/posf.jpg,stim/negf.jpg,stim/4.jpg,stim/6.jpg,stim/latef.jpg,AB,1,2,,,,,0,5,5,6,,,,,,,,,,,,,,2,1,0.699794669212,,,,,,2015_Nov_23_1621,P9,PLC_L_D1S1,NHG,60.0139205982,
stim/posf.jpg,stim/negf.jpg,stim/1.jpg,stim/3.jpg,stim/latef.jpg,CD,2,4,,,,,0,6,6,32,,,,,,,,,,,,,,4,1,0.766411837505,,,,,,2015_Nov_23_1621,P9,PLC_L_D1S1,NHG,60.0139205982,
stim/posf.jpg,stim/negf.jpg,stim/4.jpg,stim/6.jpg,stim/latef.jpg,AB,1,2,,,,,0,7,7,4,,,,,,,,,,,,,,2,1,0.683162051413,,,,,,2015_Nov_23_1621,P9,PLC_L_D1S1,NHG,60.0139205982,
stim/negf.jpg,stim/posf.jpg,stim/4.jpg,stim/6.jpg,stim/latef.jpg,AB,1,2,,,,,0,8,8,8,,,,,,,,,,,,,,2,1,0.666489054971,,,,,,2015_Nov_23_1621,P9,PLC_L_D1S1,NHG,60.0139205982,
stim/posf.jpg,stim/negf.jpg,stim/5.jpg,stim/2.jpg,stim/latef.jpg,EF,2,4,,,,,0,9,9,53,,,,,,,,,,,,,,4,1,1.1829670213,,,,,,2015_Nov_23_1621,P9,PLC_L_D1S1,NHG,60.0139205982,
stim/negf.jpg,stim/posf.jpg,stim/3.jpg,stim/1.jpg,stim/latef.jpg,CD,1,2,,,,,0,10,10,27,,,,,,,,,,,,,,2,1,0.649781529461,,,,,,2015_Nov_23_1621,P9,PLC_L_D1S1,NHG,60.0139205982,
stim/posf.jpg,stim/negf.jpg,stim/3.jpg,stim/1.jpg,stim/latef.jpg,CD,1,2,,,,,0,11,11,21,,,,,,,,,,,,,,2,1,0.566469343839,,,,,,2015_Nov_23_1621,P9,PLC_L_D1S1,NHG,60.0139205982,
stim/negf.jpg,stim/posf.jpg,stim/2.jpg,stim/5.jpg,stim/latef.jpg,EF,1,2,,,,,0,12,12,47,,,,,,,,,,,,,,2,1,0.816413449522,,,,,,2015_Nov_23_1621,P9,PLC_L_D1S1,NHG,60.0139205982,
stim/posf.jpg,stim/negf.jpg,stim/6.jpg,stim/4.jpg,stim/latef.jpg,AB,2,4,,,,,0,13,13,12,,,,,,,,,,,,,,2,0,0.866394195533,,,,,,2015_Nov_23_1621,P9,PLC_L_D1S1,NHG,60.0139205982,
stim/posf.jpg,stim/negf.jpg,stim/3.jpg,stim/1.jpg,stim/latef.jpg,CD,1,2,,,,,0,14,14,25,,,,,,,,,,,,,,2,1,0.649786867769,,,,,,2015_Nov_23_1621,P9,PLC_L_D1S1,NHG,60.0139205982,
stim/negf.jpg,stim/posf.jpg,stim/2.jpg,stim/5.jpg,stim/latef.jpg,EF,1,2,,,,,0,15,15,46,,,,,,,,,,,,,,2,1,0.783118984067,,,,,,2015_Nov_23_1621,P9,PLC_L_D1S1,NHG,60.0139205982,
stim/posf.jpg,stim/negf.jpg,stim/4.jpg,stim/6.jpg,stim/latef.jpg,AB,1,2,,,,,0,16,16,5,,,,,,,,,,,,,,2,1,0.749701415778,,,,,,2015_Nov_23_1621,P9,PLC_L_D1S1,NHG,60.0139205982,
stim/posf.jpg,stim/negf.jpg,stim/4.jpg,stim/6.jpg,stim/latef.jpg,AB,1,2,,,,,0,17,17,3,,,,,,,,,,,,,,2,1,0.783073522754,,,,,,2015_Nov_23_1621,P9,PLC_L_D1S1,NHG,60.0139205982,
stim/posf.jpg,stim/negf.jpg,stim/1.jpg,stim/3.jpg,stim/latef.jpg,CD,2,4,,,,,0,18,18,31,,,,,,,,,,,,,,4,1,0.616462492764,,,,,,2015_Nov_23_1621,P9,PLC_L_D1S1,NHG,60.0139205982,
stim/posf.jpg,stim/negf.jpg,stim/5.jpg,stim/2.jpg,stim/latef.jpg,EF,2,4,,,,,0,19,19,55,,,,,,,,,,,,,,2,0,0.833106057849,,,,,,2015_Nov_23_1621,P9,PLC_L_D1S1,NHG,60.0139205982,
stim/negf.jpg,stim/posf.jpg,stim/5.jpg,stim/2.jpg,stim/latef.jpg,EF,2,4,,,,,0,20,20,56,,,,,,,,,,,,,,2,0,0.999677563326,,,,,,2015_Nov_23_1621,P9,PLC_L_D1S1,NHG,60.0139205982,
stim/posf.jpg,stim/negf.jpg,stim/3.jpg,stim/1.jpg,stim/latef.jpg,CD,1,2,,,,,0,21,21,26,,,,,,,,,,,,,,2,1,0.833048936474,,,,,,2015_Nov_23_1621,P9,PLC_L_D1S1,NHG,60.0139205982,
stim/posf.jpg,stim/negf.jpg,stim/2.jpg,stim/5.jpg,stim/latef.jpg,EF,1,2,,,,,0,22,22,42,,,,,,,,,,,,,,2,1,1.03302040135,,,,,,2015_Nov_23_1621,P9,PLC_L_D1S1,NHG,60.0139205982,
stim/posf.jpg,stim/negf.jpg,stim/2.jpg,stim/5.jpg,stim/latef.jpg,EF,1,2,,,,,0,23,23,40,,,,,,,,,,,,,,2,1,0.583059522862,,,,,,2015_Nov_23_1621,P9,PLC_L_D1S1,NHG,60.0139205982,
stim/posf.jpg,stim/negf.jpg,stim/1.jpg,stim/3.jpg,stim/latef.jpg,CD,2,4,,,,,0,24,24,33,,,,,,,,,,,,,,4,1,0.766395410561,,,,,,2015_Nov_23_1621,P9,PLC_L_D1S1,NHG,60.0139205982,
stim/posf.jpg,stim/negf.jpg,stim/4.jpg,stim/6.jpg,stim/latef.jpg,AB,1,2,,,,,0,25,25,0,,,,,,,,,,,,,,2,1,0.749756446945,,,,,,2015_Nov_23_1621,P9,PLC_L_D1S1,NHG,60.0139205982,
stim/posf.jpg,stim/negf.jpg,stim/4.jpg,stim/6.jpg,stim/latef.jpg,AB,1,2,,,,,0,26,26,1,,,,,,,,,,,,,,2,1,0.616517920918,,,,,,2015_Nov_23_1621,P9,PLC_L_D1S1,NHG,60.0139205982,
stim/posf.jpg,stim/negf.jpg,stim/3.jpg,stim/1.jpg,stim/latef.jpg,CD,1,2,,,,,0,27,27,24,,,,,,,,,,,,,,2,1,0.716424120119,,,,,,2015_Nov_23_1621,P9,PLC_L_D1S1,NHG,60.0139205982,
stim/negf.jpg,stim/posf.jpg,stim/2.jpg,stim/5.jpg,stim/latef.jpg,EF,1,2,,,,,0,28,28,49,,,,,,,,,,,,,,4,0,1.16626245517,,,,,,2015_Nov_23_1621,P9,PLC_L_D1S1,NHG,60.0139205982,
stim/posf.jpg,stim/negf.jpg,stim/2.jpg,stim/5.jpg,stim/latef.jpg,EF,1,2,,,,,0,29,29,45,,,,,,,,,,,,,,4,0,0.733102860882,,,,,,2015_Nov_23_1621,P9,PLC_L_D1S1,NHG,60.0139205982,
stim/posf.jpg,stim/negf.jpg,stim/6.jpg,stim/4.jpg,stim/latef.jpg,AB,2,4,,,,,0,30,30,11,,,,,,,,,,,,,,4,1,0.699739950827,,,,,,2015_Nov_23_1621,P9,PLC_L_D1S1,NHG,60.0139205982,
stim/negf.jpg,stim/posf.jpg,stim/5.jpg,stim/2.jpg,stim/latef.jpg,EF,2,4,,,,,0,31,31,59,,,,,,,,,,,,,,2,0,0.733101519538,,,,,,2015_Nov_23_1621,P9,PLC_L_D1S1,NHG,60.0139205982,
stim/negf.jpg,stim/posf.jpg,stim/1.jpg,stim/3.jpg,stim/latef.jpg,CD,2,4,,,,,0,32,32,39,,,,,,,,,,,,,,4,1,0.54980755032,,,,,,2015_Nov_23_1621,P9,PLC_L_D1S1,NHG,60.0139205982,
stim/posf.jpg,stim/negf.jpg,stim/1.jpg,stim/3.jpg,stim/latef.jpg,CD,2,4,,,,,0,33,33,35,,,,,,,,,,,,,,4,1,0.649792582009,,,,,,2015_Nov_23_1621,P9,PLC_L_D1S1,NHG,60.0139205982,
stim/negf.jpg,stim/posf.jpg,stim/3.jpg,stim/1.jpg,stim/latef.jpg,CD,1,2,,,,,0,34,34,28,,,,,,,,,,,,,,2,1,0.599816921676,,,,,,2015_Nov_23_1621,P9,PLC_L_D1S1,NHG,60.0139205982,
stim/posf.jpg,stim/negf.jpg,stim/3.jpg,stim/1.jpg,stim/latef.jpg,CD,1,2,,,,,0,35,35,23,,,,,,,,,,,,,,2,1,0.566482943737,,,,,,2015_Nov_23_1621,P9,PLC_L_D1S1,NHG,60.0139205982,
stim/posf.jpg,stim/negf.jpg,stim/1.jpg,stim/3.jpg,stim/latef.jpg,CD,2,4,,,,,0,36,36,30,,,,,,,,,,,,,,4,1,0.549805225524,,,,,,2015_Nov_23_1621,P9,PLC_L_D1S1,NHG,60.0139205982,
stim/posf.jpg,stim/negf.jpg,stim/2.jpg,stim/5.jpg,stim/latef.jpg,EF,1,2,,,,,0,37,37,43,,,,,,,,,,,,,,4,0,0.899736338824,,,,,,2015_Nov_23_1621,P9,PLC_L_D1S1,NHG,60.0139205982,
stim/posf.jpg,stim/negf.jpg,stim/4.jpg,stim/6.jpg,stim/latef.jpg,AB,1,2,,,,,0,38,38,2,,,,,,,,,,,,,,2,1,0.56647279043,,,,,,2015_Nov_23_1621,P9,PLC_L_D1S1,NHG,60.0139205982,
stim/posf.jpg,stim/negf.jpg,stim/1.jpg,stim/3.jpg,stim/latef.jpg,CD,2,4,,,,,0,39,39,36,,,,,,,,,,,,,,4,1,0.583152668025,,,,,,2015_Nov_23_1621,P9,PLC_L_D1S1,NHG,60.0139205982,
stim/posf.jpg,stim/negf.jpg,stim/6.jpg,stim/4.jpg,stim/latef.jpg,AB,2,4,,,,,0,40,40,15,,,,,,,,,,,,,,4,1,0.616464092751,,,,,,2015_Nov_23_1621,P9,PLC_L_D1S1,NHG,60.0139205982,
stim/posf.jpg,stim/negf.jpg,stim/6.jpg,stim/4.jpg,stim/latef.jpg,AB,2,4,,,,,0,41,41,14,,,,,,,,,,,,,,4,1,0.499827926105,,,,,,2015_Nov_23_1621,P9,PLC_L_D1S1,NHG,60.0139205982,
stim/negf.jpg,stim/posf.jpg,stim/5.jpg,stim/2.jpg,stim/latef.jpg,EF,2,4,,,,,0,42,42,57,,,,,,,,,,,,,,2,0,0.583129660679,,,,,,2015_Nov_23_1621,P9,PLC_L_D1S1,NHG,60.0139205982,
stim/posf.jpg,stim/negf.jpg,stim/5.jpg,stim/2.jpg,stim/latef.jpg,EF,2,4,,,,,0,43,43,50,,,,,,,,,,,,,,4,1,0.583137654605,,,,,,2015_Nov_23_1621,P9,PLC_L_D1S1,NHG,60.0139205982,
stim/negf.jpg,stim/posf.jpg,stim/5.jpg,stim/2.jpg,stim/latef.jpg,EF,2,4,,,,,0,44,44,58,,,,,,,,,,,,,,4,1,0.81633334787,,,,,,2015_Nov_23_1621,P9,PLC_L_D1S1,NHG,60.0139205982,
stim/posf.jpg,stim/negf.jpg,stim/3.jpg,stim/1.jpg,stim/latef.jpg,CD,1,2,,,,,0,45,45,20,,,,,,,,,,,,,,2,1,0.733085651987,,,,,,2015_Nov_23_1621,P9,PLC_L_D1S1,NHG,60.0139205982,
stim/negf.jpg,stim/posf.jpg,stim/6.jpg,stim/4.jpg,stim/latef.jpg,AB,2,4,,,,,0,46,46,18,,,,,,,,,,,,,,4,1,0.666418264524,,,,,,2015_Nov_23_1621,P9,PLC_L_D1S1,NHG,60.0139205982,
stim/negf.jpg,stim/posf.jpg,stim/6.jpg,stim/4.jpg,stim/latef.jpg,AB,2,4,,,,,0,47,47,19,,,,,,,,,,,,,,2,0,0.699772903965,,,,,,2015_Nov_23_1621,P9,PLC_L_D1S1,NHG,60.0139205982,
stim/posf.jpg,stim/negf.jpg,stim/1.jpg,stim/3.jpg,stim/latef.jpg,CD,2,4,,,,,0,48,48,34,,,,,,,,,,,,,,4,1,0.64978482267,,,,,,2015_Nov_23_1621,P9,PLC_L_D1S1,NHG,60.0139205982,
stim/posf.jpg,stim/negf.jpg,stim/2.jpg,stim/5.jpg,stim/latef.jpg,EF,1,2,,,,,0,49,49,44,,,,,,,,,,,,,,2,1,0.733101269916,,,,,,2015_Nov_23_1621,P9,PLC_L_D1S1,NHG,60.0139205982,
stim/negf.jpg,stim/posf.jpg,stim/3.jpg,stim/1.jpg,stim/latef.jpg,CD,1,2,,,,,0,50,50,29,,,,,,,,,,,,,,2,1,0.649773036293,,,,,,2015_Nov_23_1621,P9,PLC_L_D1S1,NHG,60.0139205982,
stim/posf.jpg,stim/negf.jpg,stim/2.jpg,stim/5.jpg,stim/latef.jpg,EF,1,2,,,,,0,51,51,41,,,,,,,,,,,,,,2,1,0.666449867294,,,,,,2015_Nov_23_1621,P9,PLC_L_D1S1,NHG,60.0139205982,
stim/posf.jpg,stim/negf.jpg,stim/6.jpg,stim/4.jpg,stim/latef.jpg,AB,2,4,,,,,0,52,52,13,,,,,,,,,,,,,,4,1,0.599815029962,,,,,,2015_Nov_23_1621,P9,PLC_L_D1S1,NHG,60.0139205982,
stim/negf.jpg,stim/posf.jpg,stim/1.jpg,stim/3.jpg,stim/latef.jpg,CD,2,4,,,,,0,53,53,37,,,,,,,,,,,,,,4,1,0.63316705288,,,,,,2015_Nov_23_1621,P9,PLC_L_D1S1,NHG,60.0139205982,
stim/posf.jpg,stim/negf.jpg,stim/6.jpg,stim/4.jpg,stim/latef.jpg,AB,2,4,,,,,0,54,54,17,,,,,,,,,,,,,,4,1,0.79978088285,,,,,,2015_Nov_23_1621,P9,PLC_L_D1S1,NHG,60.0139205982,
stim/posf.jpg,stim/negf.jpg,stim/5.jpg,stim/2.jpg,stim/latef.jpg,EF,2,4,,,,,0,55,55,54,,,,,,,,,,,,,,4,1,0.916356030406,,,,,,2015_Nov_23_1621,P9,PLC_L_D1S1,NHG,60.0139205982,
stim/posf.jpg,stim/negf.jpg,stim/6.jpg,stim/4.jpg,stim/latef.jpg,AB,2,4,,,,,0,56,56,16,,,,,,,,,,,,,,4,1,0.783062704793,,,,,,2015_Nov_23_1621,P9,PLC_L_D1S1,NHG,60.0139205982,
stim/negf.jpg,stim/posf.jpg,stim/1.jpg,stim/3.jpg,stim/latef.jpg,CD,2,4,,,,,0,57,57,38,,,,,,,,,,,,,,4,1,0.733071766377,,,,,,2015_Nov_23_1621,P9,PLC_L_D1S1,NHG,60.0139205982,
stim/posf.jpg,stim/negf.jpg,stim/6.jpg,stim/4.jpg,stim/latef.jpg,AB,2,4,,,,,0,58,58,10,,,,,,,,,,,,,,4,1,0.666374893421,,,,,,2015_Nov_23_1621,P9,PLC_L_D1S1,NHG,60.0139205982,
stim/negf.jpg,stim/posf.jpg,stim/4.jpg,stim/6.jpg,stim/latef.jpg,AB,1,2,,,,,0,59,59,9,,,,,,,,,,,,,,2,1,0.799738777903,,,,,,2015_Nov_23_1621,P9,PLC_L_D1S1,NHG,60.0139205982,
,,,,,,,,,,,,,,,,,,,,,,,,,,,,,,,,0.9984375,1.0,1,0,0,2015_Nov_23_1621,P9,PLC_L_D1S1,NHG,60.0139205982,
stim/posf.jpg,stim/negf.jpg,stim/5.jpg,stim/2.jpg,stim/latef.jpg,EF,2,4,,,,,,,,,0,0,0,50,,,,,,,,,,2,0,0.883042368103,,,,,,2015_Nov_23_1621,P9,PLC_L_D1S1,NHG,60.0139205982,
stim/negf.jpg,stim/posf.jpg,stim/1.jpg,stim/3.jpg,stim/latef.jpg,CD,2,4,,,,,,,,,0,1,1,37,,,,,,,,,,4,1,0.733067486712,,,,,,2015_Nov_23_1621,P9,PLC_L_D1S1,NHG,60.0139205982,
stim/posf.jpg,stim/negf.jpg,stim/3.jpg,stim/1.jpg,stim/latef.jpg,CD,1,2,,,,,,,,,0,2,2,25,,,,,,,,,,2,1,0.733082364794,,,,,,2015_Nov_23_1621,P9,PLC_L_D1S1,NHG,60.0139205982,
stim/posf.jpg,stim/negf.jpg,stim/3.jpg,stim/1.jpg,stim/latef.jpg,CD,1,2,,,,,,,,,0,3,3,26,,,,,,,,,,2,1,0.549835123045,,,,,,2015_Nov_23_1621,P9,PLC_L_D1S1,NHG,60.0139205982,
stim/negf.jpg,stim/posf.jpg,stim/2.jpg,stim/5.jpg,stim/latef.jpg,EF,1,2,,,,,,,,,0,4,4,47,,,,,,,,,,2,1,0.79975268156,,,,,,2015_Nov_23_1621,P9,PLC_L_D1S1,NHG,60.0139205982,
stim/posf.jpg,stim/negf.jpg,stim/3.jpg,stim/1.jpg,stim/latef.jpg,CD,1,2,,,,,,,,,0,5,5,24,,,,,,,,,,2,1,0.61645967474,,,,,,2015_Nov_23_1621,P9,PLC_L_D1S1,NHG,60.0139205982,
stim/posf.jpg,stim/negf.jpg,stim/1.jpg,stim/3.jpg,stim/latef.jpg,CD,2,4,,,,,,,,,0,6,6,35,,,,,,,,,,4,1,0.58316211457,,,,,,2015_Nov_23_1621,P9,PLC_L_D1S1,NHG,60.0139205982,
stim/negf.jpg,stim/posf.jpg,stim/4.jpg,stim/6.jpg,stim/latef.jpg,AB,1,2,,,,,,,,,0,7,7,8,,,,,,,,,,2,1,0.766414941241,,,,,,2015_Nov_23_1621,P9,PLC_L_D1S1,NHG,60.0139205982,
stim/negf.jpg,stim/posf.jpg,stim/6.jpg,stim/4.jpg,stim/latef.jpg,AB,2,4,,,,,,,,,0,8,8,19,,,,,,,,,,4,1,0.566434267412,,,,,,2015_Nov_23_1621,P9,PLC_L_D1S1,NHG,60.0139205982,
stim/posf.jpg,stim/negf.jpg,stim/6.jpg,stim/4.jpg,stim/latef.jpg,AB,2,4,,,,,,,,,0,9,9,16,,,,,,,,,,4,1,0.566497145135,,,,,,2015_Nov_23_1621,P9,PLC_L_D1S1,NHG,60.0139205982,
stim/posf.jpg,stim/negf.jpg,stim/3.jpg,stim/1.jpg,stim/latef.jpg,CD,1,2,,,,,,,,,0,10,10,23,,,,,,,,,,2,1,0.683107778137,,,,,,2015_Nov_23_1621,P9,PLC_L_D1S1,NHG,60.0139205982,
stim/negf.jpg,stim/posf.jpg,stim/5.jpg,stim/2.jpg,stim/latef.jpg,EF,2,4,,,,,,,,,0,11,11,59,,,,,,,,,,4,1,0.716435617778,,,,,,2015_Nov_23_1621,P9,PLC_L_D1S1,NHG,60.0139205982,
stim/negf.jpg,stim/posf.jpg,stim/5.jpg,stim/2.jpg,stim/latef.jpg,EF,2,4,,,,,,,,,0,12,12,58,,,,,,,,,,2,0,0.483133940346,,,,,,2015_Nov_23_1621,P9,PLC_L_D1S1,NHG,60.0139205982,
stim/posf.jpg,stim/negf.jpg,stim/4.jpg,stim/6.jpg,stim/latef.jpg,AB,1,2,,,,,,,,,0,13,13,6,,,,,,,,,,2,1,0.749740862098,,,,,,2015_Nov_23_1621,P9,PLC_L_D1S1,NHG,60.0139205982,
stim/posf.jpg,stim/negf.jpg,stim/3.jpg,stim/1.jpg,stim/latef.jpg,CD,1,2,,,,,,,,,0,14,14,22,,,,,,,,,,2,1,0.466504390191,,,,,,2015_Nov_23_1621,P9,PLC_L_D1S1,NHG,60.0139205982,
stim/negf.jpg,stim/posf.jpg,stim/6.jpg,stim/4.jpg,stim/latef.jpg,AB,2,4,,,,,,,,,0,15,15,18,,,,,,,,,,4,1,0.71649871204,,,,,,2015_Nov_23_1621,P9,PLC_L_D1S1,NHG,60.0139205982,
stim/negf.jpg,stim/posf.jpg,stim/1.jpg,stim/3.jpg,stim/latef.jpg,CD,2,4,,,,,,,,,0,16,16,38,,,,,,,,,,4,1,0.683103721025,,,,,,2015_Nov_23_1621,P9,PLC_L_D1S1,NHG,60.0139205982,
stim/posf.jpg,stim/negf.jpg,stim/6.jpg,stim/4.jpg,stim/latef.jpg,AB,2,4,,,,,,,,,0,17,17,14,,,,,,,,,,4,1,0.716418643467,,,,,,2015_Nov_23_1621,P9,PLC_L_D1S1,NHG,60.0139205982,
stim/posf.jpg,stim/negf.jpg,stim/4.jpg,stim/6.jpg,stim/latef.jpg,AB,1,2,,,,,,,,,0,18,18,4,,,,,,,,,,2,1,0.466505466877,,,,,,2015_Nov_23_1621,P9,PLC_L_D1S1,NHG,60.0139205982,
stim/negf.jpg,stim/posf.jpg,stim/4.jpg,stim/6.jpg,stim/latef.jpg,AB,1,2,,,,,,,,,0,19,19,9,,,,,,,,,,2,1,0.649791219616,,,,,,2015_Nov_23_1621,P9,PLC_L_D1S1,NHG,60.0139205982,
stim/posf.jpg,stim/negf.jpg,stim/5.jpg,stim/2.jpg,stim/latef.jpg,EF,2,4,,,,,,,,,0,20,20,54,,,,,,,,,,2,0,0.683103901476,,,,,,2015_Nov_23_1621,P9,PLC_L_D1S1,NHG,60.0139205982,
stim/posf.jpg,stim/negf.jpg,stim/2.jpg,stim/5.jpg,stim/latef.jpg,EF,1,2,,,,,,,,,0,21,21,44,,,,,,,,,,2,1,0.733091733146,,,,,,2015_Nov_23_1621,P9,PLC_L_D1S1,NHG,60.0139205982,
stim/posf.jpg,stim/negf.jpg,stim/4.jpg,stim/6.jpg,stim/latef.jpg,AB,1,2,,,,,,,,,0,22,22,3,,,,,,,,,,2,1,0.616464949888,,,,,,2015_Nov_23_1621,P9,PLC_L_D1S1,NHG,60.0139205982,
stim/negf.jpg,stim/posf.jpg,stim/3.jpg,stim/1.jpg,stim/latef.jpg,CD,1,2,,,,,,,,,0,23,23,27,,,,,,,,,,2,1,0.583119693836,,,,,,2015_Nov_23_1621,P9,PLC_L_D1S1,NHG,60.0139205982,
stim/posf.jpg,stim/negf.jpg,stim/1.jpg,stim/3.jpg,stim/latef.jpg,CD,2,4,,,,,,,,,0,24,24,30,,,,,,,,,,4,1,0.949696784235,,,,,,2015_Nov_23_1621,P9,PLC_L_D1S1,NHG,60.0139205982,
stim/posf.jpg,stim/negf.jpg,stim/3.jpg,stim/1.jpg,stim/latef.jpg,CD,1,2,,,,,,,,,0,25,25,21,,,,,,,,,,2,1,0.616432604267,,,,,,2015_Nov_23_1621,P9,PLC_L_D1S1,NHG,60.0139205982,
stim/posf.jpg,stim/negf.jpg,stim/6.jpg,stim/4.jpg,stim/latef.jpg,AB,2,4,,,,,,,,,0,26,26,17,,,,,,,,,,4,1,0.633138950836,,,,,,2015_Nov_23_1621,P9,PLC_L_D1S1,NHG,60.0139205982,
stim/posf.jpg,stim/negf.jpg,stim/2.jpg,stim/5.jpg,stim/latef.jpg,EF,1,2,,,,,,,,,0,27,27,41,,,,,,,,,,4,0,0.849727391522,,,,,,2015_Nov_23_1621,P9,PLC_L_D1S1,NHG,60.0139205982,
stim/negf.jpg,stim/posf.jpg,stim/2.jpg,stim/5.jpg,stim/latef.jpg,EF,1,2,,,,,,,,,0,28,28,49,,,,,,,,,,2,1,0.58314074631,,,,,,2015_Nov_23_1621,P9,PLC_L_D1S1,NHG,60.0139205982,
stim/posf.jpg,stim/negf.jpg,stim/4.jpg,stim/6.jpg,stim/latef.jpg,AB,1,2,,,,,,,,,0,29,29,5,,,,,,,,,,2,1,0.799664390493,,,,,,2015_Nov_23_1621,P9,PLC_L_D1S1,NHG,60.0139205982,
stim/posf.jpg,stim/negf.jpg,stim/5.jpg,stim/2.jpg,stim/latef.jpg,EF,2,4,,,,,,,,,0,30,30,51,,,,,,,,,,2,0,1.11629742934,,,,,,2015_Nov_23_1621,P9,PLC_L_D1S1,NHG,60.0139205982,
stim/posf.jpg,stim/negf.jpg,stim/1.jpg,stim/3.jpg,stim/latef.jpg,CD,2,4,,,,,,,,,0,31,31,36,,,,,,,,,,4,1,0.899689761731,,,,,,2015_Nov_23_1621,P9,PLC_L_D1S1,NHG,60.0139205982,
stim/posf.jpg,stim/negf.jpg,stim/6.jpg,stim/4.jpg,stim/latef.jpg,AB,2,4,,,,,,,,,0,32,32,10,,,,,,,,,,4,1,0.68312262013,,,,,,2015_Nov_23_1621,P9,PLC_L_D1S1,NHG,60.0139205982,
stim/negf.jpg,stim/posf.jpg,stim/2.jpg,stim/5.jpg,stim/latef.jpg,EF,1,2,,,,,,,,,0,33,33,48,,,,,,,,,,2,1,1.19960483305,,,,,,2015_Nov_23_1621,P9,PLC_L_D1S1,NHG,60.0139205982,
stim/posf.jpg,stim/negf.jpg,stim/2.jpg,stim/5.jpg,stim/latef.jpg,EF,1,2,,,,,,,,,0,34,34,42,,,,,,,,,,4,0,0.599803736815,,,,,,2015_Nov_23_1621,P9,PLC_L_D1S1,NHG,60.0139205982,
stim/posf.jpg,stim/negf.jpg,stim/6.jpg,stim/4.jpg,stim/latef.jpg,AB,2,4,,,,,,,,,0,35,35,12,,,,,,,,,,4,1,0.583135176426,,,,,,2015_Nov_23_1621,P9,PLC_L_D1S1,NHG,60.0139205982,
stim/posf.jpg,stim/negf.jpg,stim/1.jpg,stim/3.jpg,stim/latef.jpg,CD,2,4,,,,,,,,,0,36,36,33,,,,,,,,,,4,1,0.483171497959,,,,,,2015_Nov_23_1621,P9,PLC_L_D1S1,NHG,60.0139205982,
stim/posf.jpg,stim/negf.jpg,stim/2.jpg,stim/5.jpg,stim/latef.jpg,EF,1,2,,,,,,,,,0,37,37,43,,,,,,,,,,4,0,0.849725932887,,,,,,2015_Nov_23_1621,P9,PLC_L_D1S1,NHG,60.0139205982,
stim/negf.jpg,stim/posf.jpg,stim/3.jpg,stim/1.jpg,stim/latef.jpg,CD,1,2,,,,,,,,,0,38,38,28,,,,,,,,,,2,1,0.733167543101,,,,,,2015_Nov_23_1621,P9,PLC_L_D1S1,NHG,60.0139205982,
stim/posf.jpg,stim/negf.jpg,stim/5.jpg,stim/2.jpg,stim/latef.jpg,EF,2,4,,,,,,,,,0,39,39,55,,,,,,,,,,2,0,1.18294420944,,,,,,2015_Nov_23_1621,P9,PLC_L_D1S1,NHG,60.0139205982,
stim/posf.jpg,stim/negf.jpg,stim/2.jpg,stim/5.jpg,stim/latef.jpg,EF,1,2,,,,,,,,,0,40,40,40,,,,,,,,,,2,1,1.11628592868,,,,,,2015_Nov_23_1621,P9,PLC_L_D1S1,NHG,60.0139205982,
stim/posf.jpg,stim/negf.jpg,stim/4.jpg,stim/6.jpg,stim/latef.jpg,AB,1,2,,,,,,,,,0,41,41,2,,,,,,,,,,2,1,0.833002651107,,,,,,2015_Nov_23_1621,P9,PLC_L_D1S1,NHG,60.0139205982,
stim/posf.jpg,stim/negf.jpg,stim/4.jpg,stim/6.jpg,stim/latef.jpg,AB,1,2,,,,,,,,,0,42,42,7,,,,,,,,,,2,1,0.716416532206,,,,,,2015_Nov_23_1621,P9,PLC_L_D1S1,NHG,60.0139205982,
stim/posf.jpg,stim/negf.jpg,stim/5.jpg,stim/2.jpg,stim/latef.jpg,EF,2,4,,,,,,,,,0,43,43,53,,,,,,,,,,4,1,0.616444035759,,,,,,2015_Nov_23_1621,P9,PLC_L_D1S1,NHG,60.0139205982,
stim/posf.jpg,stim/negf.jpg,stim/1.jpg,stim/3.jpg,stim/latef.jpg,CD,2,4,,,,,,,,,0,44,44,34,,,,,,,,,,2,0,0.549820915632,,,,,,2015_Nov_23_1621,P9,PLC_L_D1S1,NHG,60.0139205982,
stim/negf.jpg,stim/posf.jpg,stim/1.jpg,stim/3.jpg,stim/latef.jpg,CD,2,4,,,,,,,,,0,45,45,39,,,,,,,,,,4,1,0.46648447756,,,,,,2015_Nov_23_1621,P9,PLC_L_D1S1,NHG,60.0139205982,
stim/posf.jpg,stim/negf.jpg,stim/2.jpg,stim/5.jpg,stim/latef.jpg,EF,1,2,,,,,,,,,0,46,46,45,,,,,,,,,,2,1,0.63314951617,,,,,,2015_Nov_23_1621,P9,PLC_L_D1S1,NHG,60.0139205982,
stim/negf.jpg,stim/posf.jpg,stim/3.jpg,stim/1.jpg,stim/latef.jpg,CD,1,2,,,,,,,,,0,47,47,29,,,,,,,,,,2,1,0.533163410802,,,,,,2015_Nov_23_1621,P9,PLC_L_D1S1,NHG,60.0139205982,
stim/posf.jpg,stim/negf.jpg,stim/6.jpg,stim/4.jpg,stim/latef.jpg,AB,2,4,,,,,,,,,0,48,48,13,,,,,,,,,,4,1,0.466500029324,,,,,,2015_Nov_23_1621,P9,PLC_L_D1S1,NHG,60.0139205982,
stim/posf.jpg,stim/negf.jpg,stim/3.jpg,stim/1.jpg,stim/latef.jpg,CD,1,2,,,,,,,,,0,49,49,20,,,,,,,,,,2,1,0.51651611642,,,,,,2015_Nov_23_1621,P9,PLC_L_D1S1,NHG,60.0139205982,
stim/posf.jpg,stim/negf.jpg,stim/5.jpg,stim/2.jpg,stim/latef.jpg,EF,2,4,,,,,,,,,0,50,50,52,,,,,,,,,,4,1,0.66637017466,,,,,,2015_Nov_23_1621,P9,PLC_L_D1S1,NHG,60.0139205982,
stim/posf.jpg,stim/negf.jpg,stim/6.jpg,stim/4.jpg,stim/latef.jpg,AB,2,4,,,,,,,,,0,51,51,11,,,,,,,,,,4,1,0.749744747784,,,,,,2015_Nov_23_1621,P9,PLC_L_D1S1,NHG,60.0139205982,
stim/negf.jpg,stim/posf.jpg,stim/5.jpg,stim/2.jpg,stim/latef.jpg,EF,2,4,,,,,,,,,0,52,52,57,,,,,,,,,,4,1,0.616501906001,,,,,,2015_Nov_23_1621,P9,PLC_L_D1S1,NHG,60.0139205982,
stim/posf.jpg,stim/negf.jpg,stim/1.jpg,stim/3.jpg,stim/latef.jpg,CD,2,4,,,,,,,,,0,53,53,32,,,,,,,,,,4,1,0.633142144796,,,,,,2015_Nov_23_1621,P9,PLC_L_D1S1,NHG,60.0139205982,
stim/posf.jpg,stim/negf.jpg,stim/4.jpg,stim/6.jpg,stim/latef.jpg,AB,1,2,,,,,,,,,0,54,54,1,,,,,,,,,,2,1,0.66645224021,,,,,,2015_Nov_23_1621,P9,PLC_L_D1S1,NHG,60.0139205982,
stim/posf.jpg,stim/negf.jpg,stim/4.jpg,stim/6.jpg,stim/latef.jpg,AB,1,2,,,,,,,,,0,55,55,0,,,,,,,,,,2,1,0.616455322894,,,,,,2015_Nov_23_1621,P9,PLC_L_D1S1,NHG,60.0139205982,
stim/negf.jpg,stim/posf.jpg,stim/2.jpg,stim/5.jpg,stim/latef.jpg,EF,1,2,,,,,,,,,0,56,56,46,,,,,,,,,,2,1,0.649785156502,,,,,,2015_Nov_23_1621,P9,PLC_L_D1S1,NHG,60.0139205982,
stim/posf.jpg,stim/negf.jpg,stim/1.jpg,stim/3.jpg,stim/latef.jpg,CD,2,4,,,,,,,,,0,57,57,31,,,,,,,,,,2,0,0.566491033902,,,,,,2015_Nov_23_1621,P9,PLC_L_D1S1,NHG,60.0139205982,
stim/negf.jpg,stim/posf.jpg,stim/5.jpg,stim/2.jpg,stim/latef.jpg,EF,2,4,,,,,,,,,0,58,58,56,,,,,,,,,,4,1,0.66637336862,,,,,,2015_Nov_23_1621,P9,PLC_L_D1S1,NHG,60.0139205982,
stim/posf.jpg,stim/negf.jpg,stim/6.jpg,stim/4.jpg,stim/latef.jpg,AB,2,4,,,,,,,,,0,59,59,15,,,,,,,,,,4,1,0.59980010075,,,,,,2015_Nov_23_1621,P9,PLC_L_D1S1,NHG,60.0139205982,
,,,,,,,,,,,,,,,,,,,,,,,,,,,,,,,,0.9984375,1.0,1,0,0,2015_Nov_23_1621,P9,PLC_L_D1S1,NHG,60.0139205982,
stim/posf.jpg,stim/negf.jpg,stim/1.jpg,stim/3.jpg,stim/latef.jpg,CD,2,4,,,,,,,,,,,,,0,0,0,32,,,,,,4,1,0.816350466537,,,,,,2015_Nov_23_1621,P9,PLC_L_D1S1,NHG,60.0139205982,
stim/posf.jpg,stim/negf.jpg,stim/4.jpg,stim/6.jpg,stim/latef.jpg,AB,1,2,,,,,,,,,,,,,0,1,1,1,,,,,,2,1,0.683114301395,,,,,,2015_Nov_23_1621,P9,PLC_L_D1S1,NHG,60.0139205982,
stim/negf.jpg,stim/posf.jpg,stim/2.jpg,stim/5.jpg,stim/latef.jpg,EF,1,2,,,,,,,,,,,,,0,2,2,49,,,,,,2,1,0.749751316156,,,,,,2015_Nov_23_1621,P9,PLC_L_D1S1,NHG,60.0139205982,
stim/posf.jpg,stim/negf.jpg,stim/4.jpg,stim/6.jpg,stim/latef.jpg,AB,1,2,,,,,,,,,,,,,0,3,3,5,,,,,,2,1,0.81641009015,,,,,,2015_Nov_23_1621,P9,PLC_L_D1S1,NHG,60.0139205982,
stim/posf.jpg,stim/negf.jpg,stim/6.jpg,stim/4.jpg,stim/latef.jpg,AB,2,4,,,,,,,,,,,,,0,4,4,11,,,,,,4,1,0.783079661054,,,,,,2015_Nov_23_1621,P9,PLC_L_D1S1,NHG,60.0139205982,
stim/posf.jpg,stim/negf.jpg,stim/6.jpg,stim/4.jpg,stim/latef.jpg,AB,2,4,,,,,,,,,,,,,0,5,5,10,,,,,,4,1,0.666438700462,,,,,,2015_Nov_23_1621,P9,PLC_L_D1S1,NHG,60.0139205982,
stim/negf.jpg,stim/posf.jpg,stim/5.jpg,stim/2.jpg,stim/latef.jpg,EF,2,4,,,,,,,,,,,,,0,6,6,56,,,,,,4,1,0.783096716566,,,,,,2015_Nov_23_1621,P9,PLC_L_D1S1,NHG,60.0139205982,
stim/posf.jpg,stim/negf.jpg,stim/3.jpg,stim/1.jpg,stim/latef.jpg,CD,1,2,,,,,,,,,,,,,0,7,7,24,,,,,,2,1,0.666433037344,,,,,,2015_Nov_23_1621,P9,PLC_L_D1S1,NHG,60.0139205982,
stim/posf.jpg,stim/negf.jpg,stim/1.jpg,stim/3.jpg,stim/latef.jpg,CD,2,4,,,,,,,,,,,,,0,8,8,31,,,,,,4,1,0.816385855745,,,,,,2015_Nov_23_1621,P9,PLC_L_D1S1,NHG,60.0139205982,
stim/posf.jpg,stim/negf.jpg,stim/6.jpg,stim/4.jpg,stim/latef.jpg,AB,2,4,,,,,,,,,,,,,0,9,9,13,,,,,,4,1,0.666468191968,,,,,,2015_Nov_23_1621,P9,PLC_L_D1S1,NHG,60.0139205982,
stim/posf.jpg,stim/negf.jpg,stim/5.jpg,stim/2.jpg,stim/latef.jpg,EF,2,4,,,,,,,,,,,,,0,10,10,52,,,,,,4,1,0.883022208855,,,,,,2015_Nov_23_1621,P9,PLC_L_D1S1,NHG,60.0139205982,
stim/negf.jpg,stim/posf.jpg,stim/5.jpg,stim/2.jpg,stim/latef.jpg,EF,2,4,,,,,,,,,,,,,0,11,11,59,,,,,,4,1,0.633098710536,,,,,,2015_Nov_23_1621,P9,PLC_L_D1S1,NHG,60.0139205982,
stim/posf.jpg,stim/negf.jpg,stim/4.jpg,stim/6.jpg,stim/latef.jpg,AB,1,2,,,,,,,,,,,,,0,12,12,2,,,,,,2,1,0.766408965346,,,,,,2015_Nov_23_1621,P9,PLC_L_D1S1,NHG,60.0139205982,
stim/posf.jpg,stim/negf.jpg,stim/2.jpg,stim/5.jpg,stim/latef.jpg,EF,1,2,,,,,,,,,,,,,0,13,13,42,,,,,,4,0,0.983019622408,,,,,,2015_Nov_23_1621,P9,PLC_L_D1S1,NHG,60.0139205982,
stim/negf.jpg,stim/posf.jpg,stim/4.jpg,stim/6.jpg,stim/latef.jpg,AB,1,2,,,,,,,,,,,,,0,14,14,9,,,,,,2,1,0.616469659626,,,,,,2015_Nov_23_1621,P9,PLC_L_D1S1,NHG,60.0139205982,
stim/posf.jpg,stim/negf.jpg,stim/1.jpg,stim/3.jpg,stim/latef.jpg,CD,2,4,,,,,,,,,,,,,0,15,15,36,,,,,,4,1,0.666437440319,,,,,,2015_Nov_23_1621,P9,PLC_L_D1S1,NHG,60.0139205982,
stim/posf.jpg,stim/negf.jpg,stim/2.jpg,stim/5.jpg,stim/latef.jpg,EF,1,2,,,,,,,,,,,,,0,16,16,44,,,,,,2,1,0.649782639228,,,,,,2015_Nov_23_1621,P9,PLC_L_D1S1,NHG,60.0139205982,
stim/posf.jpg,stim/negf.jpg,stim/1.jpg,stim/3.jpg,stim/latef.jpg,CD,2,4,,,,,,,,,,,,,0,17,17,34,,,,,,4,1,0.58312843362,,,,,,2015_Nov_23_1621,P9,PLC_L_D1S1,NHG,60.0139205982,
stim/posf.jpg,stim/negf.jpg,stim/2.jpg,stim/5.jpg,stim/latef.jpg,EF,1,2,,,,,,,,,,,,,0,18,18,43,,,,,,2,1,0.63312491485,,,,,,2015_Nov_23_1621,P9,PLC_L_D1S1,NHG,60.0139205982,
stim/posf.jpg,stim/negf.jpg,stim/3.jpg,stim/1.jpg,stim/latef.jpg,CD,1,2,,,,,,,,,,,,,0,19,19,22,,,,,,2,1,0.699808443545,,,,,,2015_Nov_23_1621,P9,PLC_L_D1S1,NHG,60.0139205982,
stim/negf.jpg,stim/posf.jpg,stim/1.jpg,stim/3.jpg,stim/latef.jpg,CD,2,4,,,,,,,,,,,,,0,20,20,38,,,,,,4,1,0.683143741775,,,,,,2015_Nov_23_1621,P9,PLC_L_D1S1,NHG,60.0139205982,
stim/posf.jpg,stim/negf.jpg,stim/4.jpg,stim/6.jpg,stim/latef.jpg,AB,1,2,,,,,,,,,,,,,0,21,21,0,,,,,,2,1,0.649784356508,,,,,,2015_Nov_23_1621,P9,PLC_L_D1S1,NHG,60.0139205982,
stim/posf.jpg,stim/negf.jpg,stim/5.jpg,stim/2.jpg,stim/latef.jpg,EF,2,4,,,,,,,,,,,,,0,22,22,55,,,,,,4,1,0.56647437538,,,,,,2015_Nov_23_1621,P9,PLC_L_D1S1,NHG,60.0139205982,
stim/negf.jpg,stim/posf.jpg,stim/5.jpg,stim/2.jpg,stim/latef.jpg,EF,2,4,,,,,,,,,,,,,0,23,23,57,,,,,,4,1,0.633128171969,,,,,,2015_Nov_23_1621,P9,PLC_L_D1S1,NHG,60.0139205982,
stim/posf.jpg,stim/negf.jpg,stim/4.jpg,stim/6.jpg,stim/latef.jpg,AB,1,2,,,,,,,,,,,,,0,24,24,7,,,,,,2,1,0.616462549906,,,,,,2015_Nov_23_1621,P9,PLC_L_D1S1,NHG,60.0139205982,
stim/negf.jpg,stim/posf.jpg,stim/1.jpg,stim/3.jpg,stim/latef.jpg,CD,2,4,,,,,,,,,,,,,0,25,25,37,,,,,,4,1,0.483145699656,,,,,,2015_Nov_23_1621,P9,PLC_L_D1S1,NHG,60.0139205982,
stim/posf.jpg,stim/negf.jpg,stim/6.jpg,stim/4.jpg,stim/latef.jpg,AB,2,4,,,,,,,,,,,,,0,26,26,17,,,,,,4,1,0.933040145563,,,,,,2015_Nov_23_1621,P9,PLC_L_D1S1,NHG,60.0139205982,
stim/posf.jpg,stim/negf.jpg,stim/2.jpg,stim/5.jpg,stim/latef.jpg,EF,1,2,,,,,,,,,,,,,0,27,27,40,,,,,,2,1,0.64978493094,,,,,,2015_Nov_23_1621,P9,PLC_L_D1S1,NHG,60.0139205982,
stim/posf.jpg,stim/negf.jpg,stim/6.jpg,stim/4.jpg,stim/latef.jpg,AB,2,4,,,,,,,,,,,,,0,28,28,15,,,,,,4,1,0.73309191961,,,,,,2015_Nov_23_1621,P9,PLC_L_D1S1,NHG,60.0139205982,
stim/negf.jpg,stim/posf.jpg,stim/2.jpg,stim/5.jpg,stim/latef.jpg,EF,1,2,,,,,,,,,,,,,0,29,29,48,,,,,,2,1,0.533153507116,,,,,,2015_Nov_23_1621,P9,PLC_L_D1S1,NHG,60.0139205982,
stim/posf.jpg,stim/negf.jpg,stim/3.jpg,stim/1.jpg,stim/latef.jpg,CD,1,2,,,,,,,,,,,,,0,30,30,23,,,,,,2,1,0.683169290456,,,,,,2015_Nov_23_1621,P9,PLC_L_D1S1,NHG,60.0139205982,
stim/posf.jpg,stim/negf.jpg,stim/5.jpg,stim/2.jpg,stim/latef.jpg,EF,2,4,,,,,,,,,,,,,0,31,31,50,,,,,,2,0,0.733014539741,,,,,,2015_Nov_23_1621,P9,PLC_L_D1S1,NHG,60.0139205982,
stim/posf.jpg,stim/negf.jpg,stim/5.jpg,stim/2.jpg,stim/latef.jpg,EF,2,4,,,,,,,,,,,,,0,32,32,53,,,,,,4,1,0.783085639958,,,,,,2015_Nov_23_1621,P9,PLC_L_D1S1,NHG,60.0139205982,
stim/posf.jpg,stim/negf.jpg,stim/6.jpg,stim/4.jpg,stim/latef.jpg,AB,2,4,,,,,,,,,,,,,0,33,33,12,,,,,,4,1,0.733095221842,,,,,,2015_Nov_23_1621,P9,PLC_L_D1S1,NHG,60.0139205982,
stim/posf.jpg,stim/negf.jpg,stim/5.jpg,stim/2.jpg,stim/latef.jpg,EF,2,4,,,,,,,,,,,,,0,34,34,54,,,,,,4,1,0.56647883249,,,,,,2015_Nov_23_1621,P9,PLC_L_D1S1,NHG,60.0139205982,
stim/posf.jpg,stim/negf.jpg,stim/3.jpg,stim/1.jpg,stim/latef.jpg,CD,1,2,,,,,,,,,,,,,0,35,35,21,,,,,,2,1,0.616456492809,,,,,,2015_Nov_23_1621,P9,PLC_L_D1S1,NHG,60.0139205982,
stim/posf.jpg,stim/negf.jpg,stim/6.jpg,stim/4.jpg,stim/latef.jpg,AB,2,4,,,,,,,,,,,,,0,36,36,14,,,,,,4,1,0.73307304757,,,,,,2015_Nov_23_1621,P9,PLC_L_D1S1,NHG,60.0139205982,
stim/negf.jpg,stim/posf.jpg,stim/3.jpg,stim/1.jpg,stim/latef.jpg,CD,1,2,,,,,,,,,,,,,0,37,37,29,,,,,,2,1,0.616463918317,,,,,,2015_Nov_23_1621,P9,PLC_L_D1S1,NHG,60.0139205982,
stim/posf.jpg,stim/negf.jpg,stim/1.jpg,stim/3.jpg,stim/latef.jpg,CD,2,4,,,,,,,,,,,,,0,38,38,35,,,,,,4,1,0.583068548356,,,,,,2015_Nov_23_1621,P9,PLC_L_D1S1,NHG,60.0139205982,
stim/posf.jpg,stim/negf.jpg,stim/6.jpg,stim/4.jpg,stim/latef.jpg,AB,2,4,,,,,,,,,,,,,0,39,39,16,,,,,,4,1,0.649825526125,,,,,,2015_Nov_23_1621,P9,PLC_L_D1S1,NHG,60.0139205982,
stim/posf.jpg,stim/negf.jpg,stim/1.jpg,stim/3.jpg,stim/latef.jpg,CD,2,4,,,,,,,,,,,,,0,40,40,33,,,,,,4,1,0.566428856926,,,,,,2015_Nov_23_1621,P9,PLC_L_D1S1,NHG,60.0139205982,
stim/negf.jpg,stim/posf.jpg,stim/1.jpg,stim/3.jpg,stim/latef.jpg,CD,2,4,,,,,,,,,,,,,0,41,41,39,,,,,,4,1,0.549810094661,,,,,,2015_Nov_23_1621,P9,PLC_L_D1S1,NHG,60.0139205982,
stim/posf.jpg,stim/negf.jpg,stim/3.jpg,stim/1.jpg,stim/latef.jpg,CD,1,2,,,,,,,,,,,,,0,42,42,25,,,,,,2,1,0.549816482582,,,,,,2015_Nov_23_1621,P9,PLC_L_D1S1,NHG,60.0139205982,
stim/posf.jpg,stim/negf.jpg,stim/3.jpg,stim/1.jpg,stim/latef.jpg,CD,1,2,,,,,,,,,,,,,0,43,43,20,,,,,,2,1,0.516493743655,,,,,,2015_Nov_23_1621,P9,PLC_L_D1S1,NHG,60.0139205982,
stim/negf.jpg,stim/posf.jpg,stim/5.jpg,stim/2.jpg,stim/latef.jpg,EF,2,4,,,,,,,,,,,,,0,44,44,58,,,,,,4,1,0.649775243794,,,,,,2015_Nov_23_1621,P9,PLC_L_D1S1,NHG,60.0139205982,
stim/posf.jpg,stim/negf.jpg,stim/1.jpg,stim/3.jpg,stim/latef.jpg,CD,2,4,,,,,,,,,,,,,0,45,45,30,,,,,,4,1,0.6497650153,,,,,,2015_Nov_23_1621,P9,PLC_L_D1S1,NHG,60.0139205982,
stim/posf.jpg,stim/negf.jpg,stim/2.jpg,stim/5.jpg,stim/latef.jpg,EF,1,2,,,,,,,,,,,,,0,46,46,45,,,,,,2,1,0.583129808047,,,,,,2015_Nov_23_1621,P9,PLC_L_D1S1,NHG,60.0139205982,
stim/negf.jpg,stim/posf.jpg,stim/6.jpg,stim/4.jpg,stim/latef.jpg,AB,2,4,,,,,,,,,,,,,0,47,47,19,,,,,,4,1,0.649785093347,,,,,,2015_Nov_23_1621,P9,PLC_L_D1S1,NHG,60.0139205982,
stim/posf.jpg,stim/negf.jpg,stim/4.jpg,stim/6.jpg,stim/latef.jpg,AB,1,2,,,,,,,,,,,,,0,48,48,3,,,,,,2,1,0.683117233706,,,,,,2015_Nov_23_1621,P9,PLC_L_D1S1,NHG,60.0139205982,
stim/negf.jpg,stim/posf.jpg,stim/2.jpg,stim/5.jpg,stim/latef.jpg,EF,1,2,,,,,,,,,,,,,0,49,49,47,,,,,,2,1,0.599801460139,,,,,,2015_Nov_23_1621,P9,PLC_L_D1S1,NHG,60.0139205982,
stim/posf.jpg,stim/negf.jpg,stim/4.jpg,stim/6.jpg,stim/latef.jpg,AB,1,2,,,,,,,,,,,,,0,50,50,4,,,,,,2,1,0.733113699898,,,,,,2015_Nov_23_1621,P9,PLC_L_D1S1,NHG,60.0139205982,
stim/posf.jpg,stim/negf.jpg,stim/3.jpg,stim/1.jpg,stim/latef.jpg,CD,1,2,,,,,,,,,,,,,0,51,51,26,,,,,,2,1,0.616419717144,,,,,,2015_Nov_23_1621,P9,PLC_L_D1S1,NHG,60.0139205982,
stim/negf.jpg,stim/posf.jpg,stim/3.jpg,stim/1.jpg,stim/latef.jpg,CD,1,2,,,,,,,,,,,,,0,52,52,28,,,,,,2,1,0.54976051308,,,,,,2015_Nov_23_1621,P9,PLC_L_D1S1,NHG,60.0139205982,
stim/negf.jpg,stim/posf.jpg,stim/3.jpg,stim/1.jpg,stim/latef.jpg,CD,1,2,,,,,,,,,,,,,0,53,53,27,,,,,,2,1,0.49983120127,,,,,,2015_Nov_23_1621,P9,PLC_L_D1S1,NHG,60.0139205982,
stim/negf.jpg,stim/posf.jpg,stim/4.jpg,stim/6.jpg,stim/latef.jpg,AB,1,2,,,,,,,,,,,,,0,54,54,8,,,,,,2,1,0.666459897293,,,,,,2015_Nov_23_1621,P9,PLC_L_D1S1,NHG,60.0139205982,
stim/negf.jpg,stim/posf.jpg,stim/6.jpg,stim/4.jpg,stim/latef.jpg,AB,2,4,,,,,,,,,,,,,0,55,55,18,,,,,,4,1,0.766407335284,,,,,,2015_Nov_23_1621,P9,PLC_L_D1S1,NHG,60.0139205982,
stim/posf.jpg,stim/negf.jpg,stim/5.jpg,stim/2.jpg,stim/latef.jpg,EF,2,4,,,,,,,,,,,,,0,56,56,51,,,,,,4,1,0.549828262945,,,,,,2015_Nov_23_1621,P9,PLC_L_D1S1,NHG,60.0139205982,
stim/posf.jpg,stim/negf.jpg,stim/2.jpg,stim/5.jpg,stim/latef.jpg,EF,1,2,,,,,,,,,,,,,0,57,57,41,,,,,,2,1,0.566472501712,,,,,,2015_Nov_23_1621,P9,PLC_L_D1S1,NHG,60.0139205982,
stim/posf.jpg,stim/negf.jpg,stim/4.jpg,stim/6.jpg,stim/latef.jpg,AB,1,2,,,,,,,,,,,,,0,58,58,6,,,,,,2,1,0.583141519237,,,,,,2015_Nov_23_1621,P9,PLC_L_D1S1,NHG,60.0139205982,
stim/negf.jpg,stim/posf.jpg,stim/2.jpg,stim/5.jpg,stim/latef.jpg,EF,1,2,,,,,,,,,,,,,0,59,59,46,,,,,,2,1,0.549820551725,,,,,,2015_Nov_23_1621,P9,PLC_L_D1S1,NHG,60.0139205982,
