symbol2,symbol1,decisionID,correct,block_01.thisRepN,block_01.thisTrialN,block_01.thisN,block_01.thisIndex,mouse.x,mouse.y,mouse.leftButton,mouse.midButton,mouse.rightButton,buttonBox_2.keys,buttonBox_2.corr,buttonBox_2.rt,date,Participant,expName,Group,frameRate,
,,,,,,,,0.9984375,0.02734375,1,0,0,,,,2016_Mai_02_1000,P16,PLC_T_D1S1,NHGY,60.0163741489,
stim/4.jpg,stim/6.jpg,6,2,0,0,0,11,,,,,,2,1,1.39955581988,2016_Mai_02_1000,P16,PLC_T_D1S1,NHGY,60.0163741489,
stim/3.jpg,stim/5.jpg,15,2,0,1,1,24,,,,,,None,0,,2016_Mai_02_1000,P16,PLC_T_D1S1,NHGY,60.0163741489,
stim/1.jpg,stim/2.jpg,3,4,0,2,2,15,,,,,,4,1,0.866374541545,2016_Mai_02_1000,P16,PLC_T_D1S1,NHGY,60.0163741489,
stim/1.jpg,stim/3.jpg,5,4,0,3,3,25,,,,,,4,1,0.96635246953,2016_Mai_02_1000,P16,PLC_T_D1S1,NHGY,60.0163741489,
stim/4.jpg,stim/1.jpg,1,2,0,4,4,0,,,,,,2,1,0.899697614303,2016_Mai_02_1000,P16,PLC_T_D1S1,NHGY,60.0163741489,
stim/2.jpg,stim/4.jpg,7,4,0,5,5,7,,,,,,4,1,1.18293454636,2016_Mai_02_1000,P16,PLC_T_D1S1,NHGY,60.0163741489,
stim/2.jpg,stim/3.jpg,14,2,0,6,6,28,,,,,,2,1,1.19960258945,2016_Mai_02_1000,P16,PLC_T_D1S1,NHGY,60.0163741489,
stim/6.jpg,stim/3.jpg,12,4,0,7,7,27,,,,,,4,1,1.04968750912,2016_Mai_02_1000,P16,PLC_T_D1S1,NHGY,60.0163741489,
stim/5.jpg,stim/3.jpg,15,4,0,8,8,29,,,,,,4,1,0.866359486019,2016_Mai_02_1000,P16,PLC_T_D1S1,NHGY,60.0163741489,
stim/5.jpg,stim/4.jpg,8,4,0,9,9,8,,,,,,4,1,0.883051664273,2016_Mai_02_1000,P16,PLC_T_D1S1,NHGY,60.0163741489,
stim/6.jpg,stim/4.jpg,6,4,0,10,10,6,,,,,,4,1,0.799768810761,2016_Mai_02_1000,P16,PLC_T_D1S1,NHGY,60.0163741489,
stim/2.jpg,stim/6.jpg,10,2,0,11,11,12,,,,,,2,1,0.833065540861,2016_Mai_02_1000,P16,PLC_T_D1S1,NHGY,60.0163741489,
stim/3.jpg,stim/4.jpg,9,4,0,12,12,9,,,,,,4,1,0.799742215472,2016_Mai_02_1000,P16,PLC_T_D1S1,NHGY,60.0163741489,
stim/6.jpg,stim/1.jpg,2,2,0,13,13,1,,,,,,2,1,0.616448676325,2016_Mai_02_1000,P16,PLC_T_D1S1,NHGY,60.0163741489,
stim/5.jpg,stim/6.jpg,11,2,0,14,14,13,,,,,,2,1,0.699786651228,2016_Mai_02_1000,P16,PLC_T_D1S1,NHGY,60.0163741489,
stim/5.jpg,stim/2.jpg,13,4,0,15,15,18,,,,,,4,1,0.999627813325,2016_Mai_02_1000,P16,PLC_T_D1S1,NHGY,60.0163741489,
stim/3.jpg,stim/1.jpg,5,2,0,16,16,4,,,,,,2,1,0.633112710431,2016_Mai_02_1000,P16,PLC_T_D1S1,NHGY,60.0163741489,
stim/5.jpg,stim/1.jpg,4,2,0,17,17,3,,,,,,2,1,0.533171365629,2016_Mai_02_1000,P16,PLC_T_D1S1,NHGY,60.0163741489,
stim/3.jpg,stim/2.jpg,14,4,0,18,18,19,,,,,,4,1,0.999677024985,2016_Mai_02_1000,P16,PLC_T_D1S1,NHGY,60.0163741489,
stim/6.jpg,stim/5.jpg,11,4,0,19,19,22,,,,,,2,0,0.616488853468,2016_Mai_02_1000,P16,PLC_T_D1S1,NHGY,60.0163741489,
stim/4.jpg,stim/2.jpg,7,2,0,20,20,16,,,,,,2,1,0.91635210863,2016_Mai_02_1000,P16,PLC_T_D1S1,NHGY,60.0163741489,
stim/1.jpg,stim/4.jpg,1,4,0,21,21,5,,,,,,4,1,0.749740922249,2016_Mai_02_1000,P16,PLC_T_D1S1,NHGY,60.0163741489,
stim/2.jpg,stim/1.jpg,3,2,0,22,22,2,,,,,,2,1,0.566519728423,2016_Mai_02_1000,P16,PLC_T_D1S1,NHGY,60.0163741489,
stim/3.jpg,stim/6.jpg,12,2,0,23,23,14,,,,,,2,1,1.06631993143,2016_Mai_02_1000,P16,PLC_T_D1S1,NHGY,60.0163741489,
stim/4.jpg,stim/5.jpg,8,2,0,24,24,21,,,,,,2,1,0.866374162601,2016_Mai_02_1000,P16,PLC_T_D1S1,NHGY,60.0163741489,
stim/1.jpg,stim/6.jpg,2,4,0,25,25,10,,,,,,2,0,0.666452252239,2016_Mai_02_1000,P16,PLC_T_D1S1,NHGY,60.0163741489,
stim/6.jpg,stim/2.jpg,10,4,0,26,26,17,,,,,,4,1,0.816382520433,2016_Mai_02_1000,P16,PLC_T_D1S1,NHGY,60.0163741489,
stim/2.jpg,stim/5.jpg,13,2,0,27,27,23,,,,,,2,1,0.766412093142,2016_Mai_02_1000,P16,PLC_T_D1S1,NHGY,60.0163741489,
stim/1.jpg,stim/5.jpg,4,4,0,28,28,20,,,,,,4,1,0.666440625258,2016_Mai_02_1000,P16,PLC_T_D1S1,NHGY,60.0163741489,
stim/4.jpg,stim/3.jpg,9,2,0,29,29,26,,,,,,2,1,0.983038440312,2016_Mai_02_1000,P16,PLC_T_D1S1,NHGY,60.0163741489,
stim/3.jpg,stim/4.jpg,9,4,1,0,30,9,,,,,,4,1,1.06631289389,2016_Mai_02_1000,P16,PLC_T_D1S1,NHGY,60.0163741489,
stim/5.jpg,stim/6.jpg,11,2,1,1,31,13,,,,,,2,1,1.04961728107,2016_Mai_02_1000,P16,PLC_T_D1S1,NHGY,60.0163741489,
stim/2.jpg,stim/3.jpg,14,2,1,2,32,28,,,,,,2,1,0.949679728724,2016_Mai_02_1000,P16,PLC_T_D1S1,NHGY,60.0163741489,
stim/3.jpg,stim/5.jpg,15,2,1,3,33,24,,,,,,2,1,1.09962049308,2016_Mai_02_1000,P16,PLC_T_D1S1,NHGY,60.0163741489,
stim/2.jpg,stim/5.jpg,13,2,1,4,34,23,,,,,,2,1,0.966352616897,2016_Mai_02_1000,P16,PLC_T_D1S1,NHGY,60.0163741489,
stim/4.jpg,stim/6.jpg,6,2,1,5,35,11,,,,,,2,1,0.883051655251,2016_Mai_02_1000,P16,PLC_T_D1S1,NHGY,60.0163741489,
stim/5.jpg,stim/3.jpg,15,4,1,6,36,29,,,,,,4,1,0.799735716272,2016_Mai_02_1000,P16,PLC_T_D1S1,NHGY,60.0163741489,
stim/4.jpg,stim/5.jpg,8,2,1,7,37,21,,,,,,2,1,0.949693391779,2016_Mai_02_1000,P16,PLC_T_D1S1,NHGY,60.0163741489,
stim/5.jpg,stim/4.jpg,8,4,1,8,38,8,,,,,,4,1,0.899676946789,2016_Mai_02_1000,P16,PLC_T_D1S1,NHGY,60.0163741489,
stim/4.jpg,stim/1.jpg,1,2,1,9,39,0,,,,,,2,1,0.683129826092,2016_Mai_02_1000,P16,PLC_T_D1S1,NHGY,60.0163741489,
stim/1.jpg,stim/6.jpg,2,4,1,10,40,10,,,,,,4,1,0.649794356434,2016_Mai_02_1000,P16,PLC_T_D1S1,NHGY,60.0163741489,
stim/5.jpg,stim/1.jpg,4,2,1,11,41,3,,,,,,2,1,0.666441431267,2016_Mai_02_1000,P16,PLC_T_D1S1,NHGY,60.0163741489,
stim/1.jpg,stim/4.jpg,1,4,1,12,42,5,,,,,,4,1,0.63311561868,2016_Mai_02_1000,P16,PLC_T_D1S1,NHGY,60.0163741489,
stim/1.jpg,stim/3.jpg,5,4,1,13,43,25,,,,,,4,1,0.599797445132,2016_Mai_02_1000,P16,PLC_T_D1S1,NHGY,60.0163741489,
stim/4.jpg,stim/3.jpg,9,2,1,14,44,26,,,,,,4,0,1.11627878587,2016_Mai_02_1000,P16,PLC_T_D1S1,NHGY,60.0163741489,
stim/6.jpg,stim/2.jpg,10,4,1,15,45,17,,,,,,4,1,0.783073348321,2016_Mai_02_1000,P16,PLC_T_D1S1,NHGY,60.0163741489,
stim/1.jpg,stim/5.jpg,4,4,1,16,46,20,,,,,,4,1,0.833057730393,2016_Mai_02_1000,P16,PLC_T_D1S1,NHGY,60.0163741489,
stim/6.jpg,stim/3.jpg,12,4,1,17,47,27,,,,,,4,1,0.799703214261,2016_Mai_02_1000,P16,PLC_T_D1S1,NHGY,60.0163741489,
stim/3.jpg,stim/2.jpg,14,4,1,18,48,19,,,,,,4,1,1.09964383125,2016_Mai_02_1000,P16,PLC_T_D1S1,NHGY,60.0163741489,
stim/3.jpg,stim/1.jpg,5,2,1,19,49,4,,,,,,2,1,0.666452309381,2016_Mai_02_1000,P16,PLC_T_D1S1,NHGY,60.0163741489,
stim/5.jpg,stim/2.jpg,13,4,1,20,50,18,,,,,,4,1,1.03293542455,2016_Mai_02_1000,P16,PLC_T_D1S1,NHGY,60.0163741489,
stim/6.jpg,stim/1.jpg,2,2,1,21,51,1,,,,,,2,1,0.633094298539,2016_Mai_02_1000,P16,PLC_T_D1S1,NHGY,60.0163741489,
stim/3.jpg,stim/6.jpg,12,2,1,22,52,14,,,,,,2,1,0.866424141172,2016_Mai_02_1000,P16,PLC_T_D1S1,NHGY,60.0163741489,
stim/2.jpg,stim/4.jpg,7,4,1,23,53,7,,,,,,4,1,0.833045916948,2016_Mai_02_1000,P16,PLC_T_D1S1,NHGY,60.0163741489,
stim/6.jpg,stim/4.jpg,6,4,1,24,54,6,,,,,,4,1,1.01631991038,2016_Mai_02_1000,P16,PLC_T_D1S1,NHGY,60.0163741489,
stim/2.jpg,stim/6.jpg,10,2,1,25,55,12,,,,,,2,1,0.816372063368,2016_Mai_02_1000,P16,PLC_T_D1S1,NHGY,60.0163741489,
stim/6.jpg,stim/5.jpg,11,4,1,26,56,22,,,,,,4,1,0.94968259186,2016_Mai_02_1000,P16,PLC_T_D1S1,NHGY,60.0163741489,
stim/1.jpg,stim/2.jpg,3,4,1,27,57,15,,,,,,4,1,0.783037932046,2016_Mai_02_1000,P16,PLC_T_D1S1,NHGY,60.0163741489,
stim/2.jpg,stim/1.jpg,3,2,1,28,58,2,,,,,,2,1,0.633150677063,2016_Mai_02_1000,P16,PLC_T_D1S1,NHGY,60.0163741489,
stim/4.jpg,stim/2.jpg,7,2,1,29,59,16,,,,,,2,1,0.966441738032,2016_Mai_02_1000,P16,PLC_T_D1S1,NHGY,60.0163741489,
stim/5.jpg,stim/4.jpg,8,4,2,0,60,8,,,,,,4,1,0.899713226216,2016_Mai_02_1000,P16,PLC_T_D1S1,NHGY,60.0163741489,
stim/6.jpg,stim/3.jpg,12,4,2,1,61,27,,,,,,4,1,1.23290719619,2016_Mai_02_1000,P16,PLC_T_D1S1,NHGY,60.0163741489,
stim/2.jpg,stim/5.jpg,13,2,2,2,62,23,,,,,,2,1,0.966339946316,2016_Mai_02_1000,P16,PLC_T_D1S1,NHGY,60.0163741489,
stim/1.jpg,stim/4.jpg,1,4,2,3,63,5,,,,,,4,1,0.883026497545,2016_Mai_02_1000,P16,PLC_T_D1S1,NHGY,60.0163741489,
stim/4.jpg,stim/1.jpg,1,2,2,4,64,0,,,,,,2,1,0.633051471794,2016_Mai_02_1000,P16,PLC_T_D1S1,NHGY,60.0163741489,
stim/6.jpg,stim/4.jpg,6,4,2,5,65,6,,,,,,4,1,0.816407407463,2016_Mai_02_1000,P16,PLC_T_D1S1,NHGY,60.0163741489,
stim/1.jpg,stim/2.jpg,3,4,2,6,66,15,,,,,,4,1,0.783090662476,2016_Mai_02_1000,P16,PLC_T_D1S1,NHGY,60.0163741489,
stim/2.jpg,stim/4.jpg,7,4,2,7,67,7,,,,,,2,0,1.18289424591,2016_Mai_02_1000,P16,PLC_T_D1S1,NHGY,60.0163741489,
stim/6.jpg,stim/2.jpg,10,4,2,8,68,17,,,,,,4,1,0.649766955135,2016_Mai_02_1000,P16,PLC_T_D1S1,NHGY,60.0163741489,
stim/4.jpg,stim/6.jpg,6,2,2,9,69,11,,,,,,2,1,1.03299496996,2016_Mai_02_1000,P16,PLC_T_D1S1,NHGY,60.0163741489,
stim/3.jpg,stim/4.jpg,9,4,2,10,70,9,,,,,,4,1,1.26626514086,2016_Mai_02_1000,P16,PLC_T_D1S1,NHGY,60.0163741489,
stim/3.jpg,stim/5.jpg,15,2,2,11,71,24,,,,,,2,1,1.09971303975,2016_Mai_02_1000,P16,PLC_T_D1S1,NHGY,60.0163741489,
stim/3.jpg,stim/6.jpg,12,2,2,12,72,14,,,,,,2,1,0.966339004969,2016_Mai_02_1000,P16,PLC_T_D1S1,NHGY,60.0163741489,
stim/2.jpg,stim/6.jpg,10,2,2,13,73,12,,,,,,2,1,0.766365305524,2016_Mai_02_1000,P16,PLC_T_D1S1,NHGY,60.0163741489,
stim/4.jpg,stim/5.jpg,8,2,2,14,74,21,,,,,,2,1,0.983009117224,2016_Mai_02_1000,P16,PLC_T_D1S1,NHGY,60.0163741489,
stim/1.jpg,stim/3.jpg,5,4,2,15,75,25,,,,,,4,1,0.783068692716,2016_Mai_02_1000,P16,PLC_T_D1S1,NHGY,60.0163741489,
stim/6.jpg,stim/5.jpg,11,4,2,16,76,22,,,,,,4,1,0.916326725363,2016_Mai_02_1000,P16,PLC_T_D1S1,NHGY,60.0163741489,
stim/4.jpg,stim/2.jpg,7,2,2,17,77,16,,,,,,2,1,0.916348418433,2016_Mai_02_1000,P16,PLC_T_D1S1,NHGY,60.0163741489,
stim/5.jpg,stim/1.jpg,4,2,2,18,78,3,,,,,,2,1,0.633089402336,2016_Mai_02_1000,P16,PLC_T_D1S1,NHGY,60.0163741489,
stim/3.jpg,stim/2.jpg,14,4,2,19,79,19,,,,,,4,1,1.03297219119,2016_Mai_02_1000,P16,PLC_T_D1S1,NHGY,60.0163741489,
stim/3.jpg,stim/1.jpg,5,2,2,20,80,4,,,,,,2,1,0.599797986481,2016_Mai_02_1000,P16,PLC_T_D1S1,NHGY,60.0163741489,
stim/1.jpg,stim/5.jpg,4,4,2,21,81,20,,,,,,4,1,0.916362015324,2016_Mai_02_1000,P16,PLC_T_D1S1,NHGY,60.0163741489,
stim/2.jpg,stim/1.jpg,3,2,2,22,82,2,,,,,,2,1,0.449845706423,2016_Mai_02_1000,P16,PLC_T_D1S1,NHGY,60.0163741489,
stim/4.jpg,stim/3.jpg,9,2,2,23,83,26,,,,,,2,1,0.96634105909,2016_Mai_02_1000,P16,PLC_T_D1S1,NHGY,60.0163741489,
stim/5.jpg,stim/6.jpg,11,2,2,24,84,13,,,,,,2,1,0.933042750054,2016_Mai_02_1000,P16,PLC_T_D1S1,NHGY,60.0163741489,
stim/6.jpg,stim/1.jpg,2,2,2,25,85,1,,,,,,2,1,0.616424595304,2016_Mai_02_1000,P16,PLC_T_D1S1,NHGY,60.0163741489,
stim/1.jpg,stim/6.jpg,2,4,2,26,86,10,,,,,,4,1,0.583104457862,2016_Mai_02_1000,P16,PLC_T_D1S1,NHGY,60.0163741489,
stim/2.jpg,stim/3.jpg,14,2,2,27,87,28,,,,,,2,1,0.933038771138,2016_Mai_02_1000,P16,PLC_T_D1S1,NHGY,60.0163741489,
stim/5.jpg,stim/3.jpg,15,4,2,28,88,29,,,,,,4,1,0.949670841573,2016_Mai_02_1000,P16,PLC_T_D1S1,NHGY,60.0163741489,
stim/5.jpg,stim/2.jpg,13,4,2,29,89,18,,,,,,4,1,1.04966656792,2016_Mai_02_1000,P16,PLC_T_D1S1,NHGY,60.0163741489,
stim/6.jpg,stim/5.jpg,11,4,3,0,90,22,,,,,,4,1,0.89972263968,2016_Mai_02_1000,P16,PLC_T_D1S1,NHGY,60.0163741489,
stim/1.jpg,stim/5.jpg,4,4,3,1,91,20,,,,,,4,1,1.03299038955,2016_Mai_02_1000,P16,PLC_T_D1S1,NHGY,60.0163741489,
stim/3.jpg,stim/5.jpg,15,2,3,2,92,24,,,,,,2,1,0.932996930851,2016_Mai_02_1000,P16,PLC_T_D1S1,NHGY,60.0163741489,
stim/2.jpg,stim/3.jpg,14,2,3,3,93,28,,,,,,2,1,1.14960867362,2016_Mai_02_1000,P16,PLC_T_D1S1,NHGY,60.0163741489,
stim/2.jpg,stim/6.jpg,10,2,3,4,94,12,,,,,,2,1,0.866394824099,2016_Mai_02_1000,P16,PLC_T_D1S1,NHGY,60.0163741489,
stim/2.jpg,stim/1.jpg,3,2,3,5,95,2,,,,,,2,1,0.616455843189,2016_Mai_02_1000,P16,PLC_T_D1S1,NHGY,60.0163741489,
stim/5.jpg,stim/4.jpg,8,4,3,6,96,8,,,,,,4,1,0.883084406884,2016_Mai_02_1000,P16,PLC_T_D1S1,NHGY,60.0163741489,
stim/5.jpg,stim/2.jpg,13,4,3,7,97,18,,,,,,4,1,0.966347597386,2016_Mai_02_1000,P16,PLC_T_D1S1,NHGY,60.0163741489,
stim/5.jpg,stim/6.jpg,11,2,3,8,98,13,,,,,,2,1,0.849742696671,2016_Mai_02_1000,P16,PLC_T_D1S1,NHGY,60.0163741489,
stim/2.jpg,stim/5.jpg,13,2,3,9,99,23,,,,,,2,1,0.883045459808,2016_Mai_02_1000,P16,PLC_T_D1S1,NHGY,60.0163741489,
stim/6.jpg,stim/4.jpg,6,4,3,10,100,6,,,,,,4,1,0.733095576725,2016_Mai_02_1000,P16,PLC_T_D1S1,NHGY,60.0163741489,
stim/4.jpg,stim/1.jpg,1,2,3,11,101,0,,,,,,2,1,0.816390574507,2016_Mai_02_1000,P16,PLC_T_D1S1,NHGY,60.0163741489,
stim/6.jpg,stim/2.jpg,10,4,3,12,102,17,,,,,,4,1,0.79974794776,2016_Mai_02_1000,P16,PLC_T_D1S1,NHGY,60.0163741489,
stim/1.jpg,stim/3.jpg,5,4,3,13,103,25,,,,,,4,1,0.81640572928,2016_Mai_02_1000,P16,PLC_T_D1S1,NHGY,60.0163741489,
stim/3.jpg,stim/1.jpg,5,2,3,14,104,4,,,,,,2,1,0.549825607326,2016_Mai_02_1000,P16,PLC_T_D1S1,NHGY,60.0163741489,
stim/4.jpg,stim/5.jpg,8,2,3,15,105,21,,,,,,2,1,0.933035574169,2016_Mai_02_1000,P16,PLC_T_D1S1,NHGY,60.0163741489,
stim/1.jpg,stim/4.jpg,1,4,3,16,106,5,,,,,,4,1,0.733081041496,2016_Mai_02_1000,P16,PLC_T_D1S1,NHGY,60.0163741489,
stim/1.jpg,stim/6.jpg,2,4,3,17,107,10,,,,,,4,1,0.616448029714,2016_Mai_02_1000,P16,PLC_T_D1S1,NHGY,60.0163741489,
stim/3.jpg,stim/4.jpg,9,4,3,18,108,9,,,,,,4,1,0.966336502733,2016_Mai_02_1000,P16,PLC_T_D1S1,NHGY,60.0163741489,
stim/6.jpg,stim/1.jpg,2,2,3,19,109,1,,,,,,2,1,0.633109005195,2016_Mai_02_1000,P16,PLC_T_D1S1,NHGY,60.0163741489,
stim/4.jpg,stim/3.jpg,9,2,3,20,110,26,,,,,,2,1,0.999674333276,2016_Mai_02_1000,P16,PLC_T_D1S1,NHGY,60.0163741489,
stim/1.jpg,stim/2.jpg,3,4,3,21,111,15,,,,,,4,1,0.683086833934,2016_Mai_02_1000,P16,PLC_T_D1S1,NHGY,60.0163741489,
stim/4.jpg,stim/6.jpg,6,2,3,22,112,11,,,,,,2,1,0.799770224284,2016_Mai_02_1000,P16,PLC_T_D1S1,NHGY,60.0163741489,
stim/5.jpg,stim/1.jpg,4,2,3,23,113,3,,,,,,2,1,0.616465109285,2016_Mai_02_1000,P16,PLC_T_D1S1,NHGY,60.0163741489,
stim/2.jpg,stim/4.jpg,7,4,3,24,114,7,,,,,,4,1,0.866374445305,2016_Mai_02_1000,P16,PLC_T_D1S1,NHGY,60.0163741489,
stim/5.jpg,stim/3.jpg,15,4,3,25,115,29,,,,,,4,1,1.14960955782,2016_Mai_02_1000,P16,PLC_T_D1S1,NHGY,60.0163741489,
stim/3.jpg,stim/2.jpg,14,4,3,26,116,19,,,,,,4,1,0.816402956369,2016_Mai_02_1000,P16,PLC_T_D1S1,NHGY,60.0163741489,
stim/3.jpg,stim/6.jpg,12,2,3,27,117,14,,,,,,2,1,0.783089429402,2016_Mai_02_1000,P16,PLC_T_D1S1,NHGY,60.0163741489,
stim/6.jpg,stim/3.jpg,12,4,3,28,118,27,,,,,,4,1,0.749774918985,2016_Mai_02_1000,P16,PLC_T_D1S1,NHGY,60.0163741489,
stim/4.jpg,stim/2.jpg,7,2,3,29,119,16,,,,,,2,1,1.01633166367,2016_Mai_02_1000,P16,PLC_T_D1S1,NHGY,60.0163741489,
stim/6.jpg,stim/1.jpg,2,2,4,0,120,1,,,,,,2,1,0.816352195849,2016_Mai_02_1000,P16,PLC_T_D1S1,NHGY,60.0163741489,
stim/6.jpg,stim/2.jpg,10,4,4,1,121,17,,,,,,4,1,0.799735710258,2016_Mai_02_1000,P16,PLC_T_D1S1,NHGY,60.0163741489,
stim/5.jpg,stim/6.jpg,11,2,4,2,122,13,,,,,,2,1,1.1829288682,2016_Mai_02_1000,P16,PLC_T_D1S1,NHGY,60.0163741489,
stim/6.jpg,stim/4.jpg,6,4,4,3,123,6,,,,,,4,1,0.966339432034,2016_Mai_02_1000,P16,PLC_T_D1S1,NHGY,60.0163741489,
stim/3.jpg,stim/5.jpg,15,2,4,4,124,24,,,,,,2,1,1.13296377321,2016_Mai_02_1000,P16,PLC_T_D1S1,NHGY,60.0163741489,
stim/3.jpg,stim/1.jpg,5,2,4,5,125,4,,,,,,2,1,0.649752353742,2016_Mai_02_1000,P16,PLC_T_D1S1,NHGY,60.0163741489,
stim/2.jpg,stim/6.jpg,10,2,4,6,126,12,,,,,,2,1,0.683085513643,2016_Mai_02_1000,P16,PLC_T_D1S1,NHGY,60.0163741489,
stim/1.jpg,stim/2.jpg,3,4,4,7,127,15,,,,,,4,1,0.916353786813,2016_Mai_02_1000,P16,PLC_T_D1S1,NHGY,60.0163741489,
stim/3.jpg,stim/4.jpg,9,4,4,8,128,9,,,,,,4,1,0.833040716987,2016_Mai_02_1000,P16,PLC_T_D1S1,NHGY,60.0163741489,
stim/1.jpg,stim/3.jpg,5,4,4,9,129,25,,,,,,4,1,0.84974358689,2016_Mai_02_1000,P16,PLC_T_D1S1,NHGY,60.0163741489,
stim/5.jpg,stim/4.jpg,8,4,4,10,130,8,,,,,,4,1,0.982939532785,2016_Mai_02_1000,P16,PLC_T_D1S1,NHGY,60.0163741489,
stim/4.jpg,stim/5.jpg,8,2,4,11,131,21,,,,,,2,1,0.933020169773,2016_Mai_02_1000,P16,PLC_T_D1S1,NHGY,60.0163741489,
stim/4.jpg,stim/1.jpg,1,2,4,12,132,0,,,,,,2,1,0.733091895549,2016_Mai_02_1000,P16,PLC_T_D1S1,NHGY,60.0163741489,
stim/1.jpg,stim/6.jpg,2,4,4,13,133,10,,,,,,4,1,0.799756194315,2016_Mai_02_1000,P16,PLC_T_D1S1,NHGY,60.0163741489,
stim/4.jpg,stim/6.jpg,6,2,4,14,134,11,,,,,,2,1,1.09963413207,2016_Mai_02_1000,P16,PLC_T_D1S1,NHGY,60.0163741489,
stim/5.jpg,stim/2.jpg,13,4,4,15,135,18,,,,,,4,1,0.783056139428,2016_Mai_02_1000,P16,PLC_T_D1S1,NHGY,60.0163741489,
stim/6.jpg,stim/5.jpg,11,4,4,16,136,22,,,,,,4,1,0.966331931339,2016_Mai_02_1000,P16,PLC_T_D1S1,NHGY,60.0163741489,
stim/5.jpg,stim/1.jpg,4,2,4,17,137,3,,,,,,2,1,0.583064773949,2016_Mai_02_1000,P16,PLC_T_D1S1,NHGY,60.0163741489,
stim/1.jpg,stim/5.jpg,4,4,4,18,138,20,,,,,,4,1,0.699744531245,2016_Mai_02_1000,P16,PLC_T_D1S1,NHGY,60.0163741489,
stim/2.jpg,stim/3.jpg,14,2,4,19,139,28,,,,,,2,1,0.899702293967,2016_Mai_02_1000,P16,PLC_T_D1S1,NHGY,60.0163741489,
stim/2.jpg,stim/1.jpg,3,2,4,20,140,2,,,,,,2,1,0.566475103195,2016_Mai_02_1000,P16,PLC_T_D1S1,NHGY,60.0163741489,
stim/1.jpg,stim/4.jpg,1,4,4,21,141,5,,,,,,4,1,0.549774518989,2016_Mai_02_1000,P16,PLC_T_D1S1,NHGY,60.0163741489,
stim/5.jpg,stim/3.jpg,15,4,4,22,142,29,,,,,,4,1,0.783065363418,2016_Mai_02_1000,P16,PLC_T_D1S1,NHGY,60.0163741489,
stim/2.jpg,stim/4.jpg,7,4,4,23,143,7,,,,,,4,1,1.06629969098,2016_Mai_02_1000,P16,PLC_T_D1S1,NHGY,60.0163741489,
stim/4.jpg,stim/3.jpg,9,2,4,24,144,26,,,,,,2,1,0.983014124706,2016_Mai_02_1000,P16,PLC_T_D1S1,NHGY,60.0163741489,
stim/4.jpg,stim/2.jpg,7,2,4,25,145,16,,,,,,2,1,0.89970012857,2016_Mai_02_1000,P16,PLC_T_D1S1,NHGY,60.0163741489,
stim/6.jpg,stim/3.jpg,12,4,4,26,146,27,,,,,,4,1,0.816382373065,2016_Mai_02_1000,P16,PLC_T_D1S1,NHGY,60.0163741489,
stim/2.jpg,stim/5.jpg,13,2,4,27,147,23,,,,,,2,1,0.83301673822,2016_Mai_02_1000,P16,PLC_T_D1S1,NHGY,60.0163741489,
stim/3.jpg,stim/6.jpg,12,2,4,28,148,14,,,,,,2,1,0.666398848129,2016_Mai_02_1000,P16,PLC_T_D1S1,NHGY,60.0163741489,
stim/3.jpg,stim/2.jpg,14,4,4,29,149,19,,,,,,4,1,0.749735662138,2016_Mai_02_1000,P16,PLC_T_D1S1,NHGY,60.0163741489,
stim/4.jpg,stim/6.jpg,6,2,5,0,150,11,,,,,,2,1,0.666448237232,2016_Mai_02_1000,P16,PLC_T_D1S1,NHGY,60.0163741489,
stim/4.jpg,stim/3.jpg,9,2,5,1,151,26,,,,,,2,1,0.932993845159,2016_Mai_02_1000,P16,PLC_T_D1S1,NHGY,60.0163741489,
stim/3.jpg,stim/2.jpg,14,4,5,2,152,19,,,,,,4,1,0.733116611153,2016_Mai_02_1000,P16,PLC_T_D1S1,NHGY,60.0163741489,
stim/3.jpg,stim/6.jpg,12,2,5,3,153,14,,,,,,2,1,0.666452327427,2016_Mai_02_1000,P16,PLC_T_D1S1,NHGY,60.0163741489,
stim/3.jpg,stim/1.jpg,5,2,5,4,154,4,,,,,,2,1,0.66646091082,2016_Mai_02_1000,P16,PLC_T_D1S1,NHGY,60.0163741489,
stim/6.jpg,stim/1.jpg,2,2,5,5,155,1,,,,,,2,1,0.516480372328,2016_Mai_02_1000,P16,PLC_T_D1S1,NHGY,60.0163741489,
stim/6.jpg,stim/5.jpg,11,4,5,6,156,22,,,,,,4,1,0.616470309246,2016_Mai_02_1000,P16,PLC_T_D1S1,NHGY,60.0163741489,
stim/2.jpg,stim/3.jpg,14,2,5,7,157,28,,,,,,2,1,0.899705250336,2016_Mai_02_1000,P16,PLC_T_D1S1,NHGY,60.0163741489,
stim/2.jpg,stim/6.jpg,10,2,5,8,158,12,,,,,,2,1,0.616469241585,2016_Mai_02_1000,P16,PLC_T_D1S1,NHGY,60.0163741489,
stim/4.jpg,stim/5.jpg,8,2,5,9,159,21,,,,,,2,1,0.8997022669,2016_Mai_02_1000,P16,PLC_T_D1S1,NHGY,60.0163741489,
stim/5.jpg,stim/4.jpg,8,4,5,10,160,8,,,,,,4,1,0.883095462441,2016_Mai_02_1000,P16,PLC_T_D1S1,NHGY,60.0163741489,
stim/2.jpg,stim/4.jpg,7,4,5,11,161,7,,,,,,4,1,0.899699921053,2016_Mai_02_1000,P16,PLC_T_D1S1,NHGY,60.0163741489,
stim/4.jpg,stim/1.jpg,1,2,5,12,162,0,,,,,,2,1,0.649834789212,2016_Mai_02_1000,P16,PLC_T_D1S1,NHGY,60.0163741489,
stim/2.jpg,stim/1.jpg,3,2,5,13,163,2,,,,,,2,1,0.516502769153,2016_Mai_02_1000,P16,PLC_T_D1S1,NHGY,60.0163741489,
stim/1.jpg,stim/3.jpg,5,4,5,14,164,25,,,,,,4,1,0.633119080308,2016_Mai_02_1000,P16,PLC_T_D1S1,NHGY,60.0163741489,
stim/4.jpg,stim/2.jpg,7,2,5,15,165,16,,,,,,2,1,1.09965107631,2016_Mai_02_1000,P16,PLC_T_D1S1,NHGY,60.0163741489,
stim/5.jpg,stim/6.jpg,11,2,5,16,166,13,,,,,,2,1,1.09963798768,2016_Mai_02_1000,P16,PLC_T_D1S1,NHGY,60.0163741489,
stim/1.jpg,stim/6.jpg,2,4,5,17,167,10,,,,,,4,1,1.09963245389,2016_Mai_02_1000,P16,PLC_T_D1S1,NHGY,60.0163741489,
stim/6.jpg,stim/4.jpg,6,4,5,18,168,6,,,,,,4,1,1.01634565154,2016_Mai_02_1000,P16,PLC_T_D1S1,NHGY,60.0163741489,
stim/3.jpg,stim/5.jpg,15,2,5,19,169,24,,,,,,2,1,1.36622023293,2016_Mai_02_1000,P16,PLC_T_D1S1,NHGY,60.0163741489,
stim/6.jpg,stim/2.jpg,10,4,5,20,170,17,,,,,,4,1,0.766373807716,2016_Mai_02_1000,P16,PLC_T_D1S1,NHGY,60.0163741489,
stim/1.jpg,stim/2.jpg,3,4,5,21,171,15,,,,,,4,1,0.666449539477,2016_Mai_02_1000,P16,PLC_T_D1S1,NHGY,60.0163741489,
stim/1.jpg,stim/4.jpg,1,4,5,22,172,5,,,,,,4,1,0.583134755378,2016_Mai_02_1000,P16,PLC_T_D1S1,NHGY,60.0163741489,
stim/2.jpg,stim/5.jpg,13,2,5,23,173,23,,,,,,2,1,0.916359714588,2016_Mai_02_1000,P16,PLC_T_D1S1,NHGY,60.0163741489,
stim/1.jpg,stim/5.jpg,4,4,5,24,174,20,,,,,,4,1,0.516452462763,2016_Mai_02_1000,P16,PLC_T_D1S1,NHGY,60.0163741489,
stim/5.jpg,stim/1.jpg,4,2,5,25,175,3,,,,,,2,1,0.483166003263,2016_Mai_02_1000,P16,PLC_T_D1S1,NHGY,60.0163741489,
stim/6.jpg,stim/3.jpg,12,4,5,26,176,27,,,,,,4,1,0.849658955947,2016_Mai_02_1000,P16,PLC_T_D1S1,NHGY,60.0163741489,
stim/5.jpg,stim/3.jpg,15,4,5,27,177,29,,,,,,4,1,0.966360451424,2016_Mai_02_1000,P16,PLC_T_D1S1,NHGY,60.0163741489,
stim/5.jpg,stim/2.jpg,13,4,5,28,178,18,,,,,,4,1,1.0830026872,2016_Mai_02_1000,P16,PLC_T_D1S1,NHGY,60.0163741489,
stim/3.jpg,stim/4.jpg,9,4,5,29,179,9,,,,,,4,1,0.833063351403,2016_Mai_02_1000,P16,PLC_T_D1S1,NHGY,60.0163741489,
