fb_corr,fb_incorr,symbol2,symbol1,fb_late,pair,position,correct,block_01.thisRepN,block_01.thisTrialN,block_01.thisN,block_01.thisIndex,block_02.thisRepN,block_02.thisTrialN,block_02.thisN,block_02.thisIndex,block_03.thisRepN,block_03.thisTrialN,block_03.thisN,block_03.thisIndex,block_04.thisRepN,block_04.thisTrialN,block_04.thisN,block_04.thisIndex,mouse.x,mouse.y,mouse.leftButton,mouse.midButton,mouse.rightButton,buttonBox_2.keys,buttonBox_2.corr,buttonBox_2.rt,mouse_2.x,mouse_2.y,mouse_2.leftButton,mouse_2.midButton,mouse_2.rightButton,date,Participant,expName,Group,frameRate,
,,,,,,,,,,,,,,,,,,,,,,,,0.9984375,0.109375,1,0,0,,,,,,,,,2016_Feb_01_1650,P10,PLC_L_D1S1,NHGY,60.0177347916,
stim/posf.jpg,stim/negf.jpg,stim/3.jpg,stim/6.jpg,stim/latef.jpg,AB,1,2,0,0,0,4,,,,,,,,,,,,,,,,,,2,1,0.833083591852,,,,,,2016_Feb_01_1650,P10,PLC_L_D1S1,NHGY,60.0177347916,
stim/posf.jpg,stim/negf.jpg,stim/2.jpg,stim/1.jpg,stim/latef.jpg,EF,1,2,0,1,1,40,,,,,,,,,,,,,,,,,,4,0,0.932982524943,,,,,,2016_Feb_01_1650,P10,PLC_L_D1S1,NHGY,60.0177347916,
stim/posf.jpg,stim/negf.jpg,stim/4.jpg,stim/5.jpg,stim/latef.jpg,CD,2,4,0,2,2,31,,,,,,,,,,,,,,,,,,2,0,0.999675485147,,,,,,2016_Feb_01_1650,P10,PLC_L_D1S1,NHGY,60.0177347916,
stim/negf.jpg,stim/posf.jpg,stim/2.jpg,stim/1.jpg,stim/latef.jpg,EF,1,2,0,3,3,47,,,,,,,,,,,,,,,,,,2,1,1.23291665777,,,,,,2016_Feb_01_1650,P10,PLC_L_D1S1,NHGY,60.0177347916,
stim/posf.jpg,stim/negf.jpg,stim/1.jpg,stim/2.jpg,stim/latef.jpg,EF,2,4,0,4,4,55,,,,,,,,,,,,,,,,,,4,1,1.56616579124,,,,,,2016_Feb_01_1650,P10,PLC_L_D1S1,NHGY,60.0177347916,
stim/posf.jpg,stim/negf.jpg,stim/6.jpg,stim/3.jpg,stim/latef.jpg,AB,2,4,0,5,5,17,,,,,,,,,,,,,,,,,,None,0,,,,,,,2016_Feb_01_1650,P10,PLC_L_D1S1,NHGY,60.0177347916,
stim/posf.jpg,stim/negf.jpg,stim/6.jpg,stim/3.jpg,stim/latef.jpg,AB,2,4,0,6,6,11,,,,,,,,,,,,,,,,,,2,0,0.733103639822,,,,,,2016_Feb_01_1650,P10,PLC_L_D1S1,NHGY,60.0177347916,
stim/negf.jpg,stim/posf.jpg,stim/5.jpg,stim/4.jpg,stim/latef.jpg,CD,1,2,0,7,7,27,,,,,,,,,,,,,,,,,,4,0,0.966328382493,,,,,,2016_Feb_01_1650,P10,PLC_L_D1S1,NHGY,60.0177347916,
stim/posf.jpg,stim/negf.jpg,stim/3.jpg,stim/6.jpg,stim/latef.jpg,AB,1,2,0,8,8,3,,,,,,,,,,,,,,,,,,2,1,1.01630123383,,,,,,2016_Feb_01_1650,P10,PLC_L_D1S1,NHGY,60.0177347916,
stim/posf.jpg,stim/negf.jpg,stim/5.jpg,stim/4.jpg,stim/latef.jpg,CD,1,2,0,9,9,23,,,,,,,,,,,,,,,,,,4,0,1.58281740739,,,,,,2016_Feb_01_1650,P10,PLC_L_D1S1,NHGY,60.0177347916,
stim/posf.jpg,stim/negf.jpg,stim/1.jpg,stim/2.jpg,stim/latef.jpg,EF,2,4,0,10,10,50,,,,,,,,,,,,,,,,,,4,1,1.54947835881,,,,,,2016_Feb_01_1650,P10,PLC_L_D1S1,NHGY,60.0177347916,
stim/negf.jpg,stim/posf.jpg,stim/1.jpg,stim/2.jpg,stim/latef.jpg,EF,2,4,0,11,11,57,,,,,,,,,,,,,,,,,,4,1,1.23293446816,,,,,,2016_Feb_01_1650,P10,PLC_L_D1S1,NHGY,60.0177347916,
stim/negf.jpg,stim/posf.jpg,stim/3.jpg,stim/6.jpg,stim/latef.jpg,AB,1,2,0,12,12,8,,,,,,,,,,,,,,,,,,2,1,1.18297238667,,,,,,2016_Feb_01_1650,P10,PLC_L_D1S1,NHGY,60.0177347916,
stim/posf.jpg,stim/negf.jpg,stim/6.jpg,stim/3.jpg,stim/latef.jpg,AB,2,4,0,13,13,16,,,,,,,,,,,,,,,,,,4,1,1.44953587116,,,,,,2016_Feb_01_1650,P10,PLC_L_D1S1,NHGY,60.0177347916,
stim/posf.jpg,stim/negf.jpg,stim/4.jpg,stim/5.jpg,stim/latef.jpg,CD,2,4,0,14,14,35,,,,,,,,,,,,,,,,,,4,1,1.58283726288,,,,,,2016_Feb_01_1650,P10,PLC_L_D1S1,NHGY,60.0177347916,
stim/negf.jpg,stim/posf.jpg,stim/6.jpg,stim/3.jpg,stim/latef.jpg,AB,2,4,0,15,15,18,,,,,,,,,,,,,,,,,,None,0,,,,,,,2016_Feb_01_1650,P10,PLC_L_D1S1,NHGY,60.0177347916,
stim/posf.jpg,stim/negf.jpg,stim/4.jpg,stim/5.jpg,stim/latef.jpg,CD,2,4,0,16,16,36,,,,,,,,,,,,,,,,,,4,1,1.39954058391,,,,,,2016_Feb_01_1650,P10,PLC_L_D1S1,NHGY,60.0177347916,
stim/posf.jpg,stim/negf.jpg,stim/3.jpg,stim/6.jpg,stim/latef.jpg,AB,1,2,0,17,17,7,,,,,,,,,,,,,,,,,,None,0,,,,,,,2016_Feb_01_1650,P10,PLC_L_D1S1,NHGY,60.0177347916,
stim/negf.jpg,stim/posf.jpg,stim/3.jpg,stim/6.jpg,stim/latef.jpg,AB,1,2,0,18,18,9,,,,,,,,,,,,,,,,,,4,0,0.716483797866,,,,,,2016_Feb_01_1650,P10,PLC_L_D1S1,NHGY,60.0177347916,
stim/negf.jpg,stim/posf.jpg,stim/5.jpg,stim/4.jpg,stim/latef.jpg,CD,1,2,0,19,19,29,,,,,,,,,,,,,,,,,,4,0,1.44952126976,,,,,,2016_Feb_01_1650,P10,PLC_L_D1S1,NHGY,60.0177347916,
stim/posf.jpg,stim/negf.jpg,stim/4.jpg,stim/5.jpg,stim/latef.jpg,CD,2,4,0,20,20,33,,,,,,,,,,,,,,,,,,2,0,1.36620718641,,,,,,2016_Feb_01_1650,P10,PLC_L_D1S1,NHGY,60.0177347916,
stim/posf.jpg,stim/negf.jpg,stim/4.jpg,stim/5.jpg,stim/latef.jpg,CD,2,4,0,21,21,34,,,,,,,,,,,,,,,,,,2,0,1.06628179638,,,,,,2016_Feb_01_1650,P10,PLC_L_D1S1,NHGY,60.0177347916,
stim/posf.jpg,stim/negf.jpg,stim/2.jpg,stim/1.jpg,stim/latef.jpg,EF,1,2,0,22,22,42,,,,,,,,,,,,,,,,,,2,1,1.43292099759,,,,,,2016_Feb_01_1650,P10,PLC_L_D1S1,NHGY,60.0177347916,
stim/posf.jpg,stim/negf.jpg,stim/3.jpg,stim/6.jpg,stim/latef.jpg,AB,1,2,0,23,23,5,,,,,,,,,,,,,,,,,,2,1,1.54949429252,,,,,,2016_Feb_01_1650,P10,PLC_L_D1S1,NHGY,60.0177347916,
stim/posf.jpg,stim/negf.jpg,stim/3.jpg,stim/6.jpg,stim/latef.jpg,AB,1,2,0,24,24,1,,,,,,,,,,,,,,,,,,2,1,0.699740170374,,,,,,2016_Feb_01_1650,P10,PLC_L_D1S1,NHGY,60.0177347916,
stim/negf.jpg,stim/posf.jpg,stim/4.jpg,stim/5.jpg,stim/latef.jpg,CD,2,4,0,25,25,37,,,,,,,,,,,,,,,,,,4,1,1.16632171187,,,,,,2016_Feb_01_1650,P10,PLC_L_D1S1,NHGY,60.0177347916,
stim/posf.jpg,stim/negf.jpg,stim/6.jpg,stim/3.jpg,stim/latef.jpg,AB,2,4,0,26,26,14,,,,,,,,,,,,,,,,,,4,1,1.01631557958,,,,,,2016_Feb_01_1650,P10,PLC_L_D1S1,NHGY,60.0177347916,
stim/negf.jpg,stim/posf.jpg,stim/2.jpg,stim/1.jpg,stim/latef.jpg,EF,1,2,0,27,27,48,,,,,,,,,,,,,,,,,,4,0,1.33289924737,,,,,,2016_Feb_01_1650,P10,PLC_L_D1S1,NHGY,60.0177347916,
stim/posf.jpg,stim/negf.jpg,stim/5.jpg,stim/4.jpg,stim/latef.jpg,CD,1,2,0,28,28,24,,,,,,,,,,,,,,,,,,4,0,1.63280366614,,,,,,2016_Feb_01_1650,P10,PLC_L_D1S1,NHGY,60.0177347916,
stim/posf.jpg,stim/negf.jpg,stim/6.jpg,stim/3.jpg,stim/latef.jpg,AB,2,4,0,29,29,10,,,,,,,,,,,,,,,,,,None,0,,,,,,,2016_Feb_01_1650,P10,PLC_L_D1S1,NHGY,60.0177347916,
stim/negf.jpg,stim/posf.jpg,stim/5.jpg,stim/4.jpg,stim/latef.jpg,CD,1,2,0,30,30,28,,,,,,,,,,,,,,,,,,2,1,1.16621638634,,,,,,2016_Feb_01_1650,P10,PLC_L_D1S1,NHGY,60.0177347916,
stim/negf.jpg,stim/posf.jpg,stim/1.jpg,stim/2.jpg,stim/latef.jpg,EF,2,4,0,31,31,59,,,,,,,,,,,,,,,,,,4,1,1.082904312,,,,,,2016_Feb_01_1650,P10,PLC_L_D1S1,NHGY,60.0177347916,
stim/posf.jpg,stim/negf.jpg,stim/4.jpg,stim/5.jpg,stim/latef.jpg,CD,2,4,0,32,32,32,,,,,,,,,,,,,,,,,,2,0,1.09963423734,,,,,,2016_Feb_01_1650,P10,PLC_L_D1S1,NHGY,60.0177347916,
stim/posf.jpg,stim/negf.jpg,stim/5.jpg,stim/4.jpg,stim/latef.jpg,CD,1,2,0,33,33,20,,,,,,,,,,,,,,,,,,4,0,1.13293614033,,,,,,2016_Feb_01_1650,P10,PLC_L_D1S1,NHGY,60.0177347916,
stim/negf.jpg,stim/posf.jpg,stim/4.jpg,stim/5.jpg,stim/latef.jpg,CD,2,4,0,34,34,39,,,,,,,,,,,,,,,,,,4,1,1.38288231818,,,,,,2016_Feb_01_1650,P10,PLC_L_D1S1,NHGY,60.0177347916,
stim/posf.jpg,stim/negf.jpg,stim/6.jpg,stim/3.jpg,stim/latef.jpg,AB,2,4,0,35,35,13,,,,,,,,,,,,,,,,,,2,0,0.983024506582,,,,,,2016_Feb_01_1650,P10,PLC_L_D1S1,NHGY,60.0177347916,
stim/posf.jpg,stim/negf.jpg,stim/1.jpg,stim/2.jpg,stim/latef.jpg,EF,2,4,0,36,36,54,,,,,,,,,,,,,,,,,,4,1,1.11630221728,,,,,,2016_Feb_01_1650,P10,PLC_L_D1S1,NHGY,60.0177347916,
stim/posf.jpg,stim/negf.jpg,stim/2.jpg,stim/1.jpg,stim/latef.jpg,EF,1,2,0,37,37,44,,,,,,,,,,,,,,,,,,2,1,1.09959388576,,,,,,2016_Feb_01_1650,P10,PLC_L_D1S1,NHGY,60.0177347916,
stim/negf.jpg,stim/posf.jpg,stim/1.jpg,stim/2.jpg,stim/latef.jpg,EF,2,4,0,38,38,56,,,,,,,,,,,,,,,,,,4,1,0.949711157059,,,,,,2016_Feb_01_1650,P10,PLC_L_D1S1,NHGY,60.0177347916,
stim/posf.jpg,stim/negf.jpg,stim/2.jpg,stim/1.jpg,stim/latef.jpg,EF,1,2,0,39,39,41,,,,,,,,,,,,,,,,,,2,1,0.68311151044,,,,,,2016_Feb_01_1650,P10,PLC_L_D1S1,NHGY,60.0177347916,
stim/posf.jpg,stim/negf.jpg,stim/5.jpg,stim/4.jpg,stim/latef.jpg,CD,1,2,0,40,40,26,,,,,,,,,,,,,,,,,,4,0,1.06633352531,,,,,,2016_Feb_01_1650,P10,PLC_L_D1S1,NHGY,60.0177347916,
stim/posf.jpg,stim/negf.jpg,stim/5.jpg,stim/4.jpg,stim/latef.jpg,CD,1,2,0,41,41,21,,,,,,,,,,,,,,,,,,4,0,0.86636863783,,,,,,2016_Feb_01_1650,P10,PLC_L_D1S1,NHGY,60.0177347916,
stim/posf.jpg,stim/negf.jpg,stim/5.jpg,stim/4.jpg,stim/latef.jpg,CD,1,2,0,42,42,22,,,,,,,,,,,,,,,,,,4,0,0.58313292682,,,,,,2016_Feb_01_1650,P10,PLC_L_D1S1,NHGY,60.0177347916,
stim/posf.jpg,stim/negf.jpg,stim/4.jpg,stim/5.jpg,stim/latef.jpg,CD,2,4,0,43,43,30,,,,,,,,,,,,,,,,,,4,1,1.24958855648,,,,,,2016_Feb_01_1650,P10,PLC_L_D1S1,NHGY,60.0177347916,
stim/posf.jpg,stim/negf.jpg,stim/1.jpg,stim/2.jpg,stim/latef.jpg,EF,2,4,0,44,44,51,,,,,,,,,,,,,,,,,,4,1,1.24955051466,,,,,,2016_Feb_01_1650,P10,PLC_L_D1S1,NHGY,60.0177347916,
stim/posf.jpg,stim/negf.jpg,stim/5.jpg,stim/4.jpg,stim/latef.jpg,CD,1,2,0,45,45,25,,,,,,,,,,,,,,,,,,2,1,1.03298432042,,,,,,2016_Feb_01_1650,P10,PLC_L_D1S1,NHGY,60.0177347916,
stim/negf.jpg,stim/posf.jpg,stim/6.jpg,stim/3.jpg,stim/latef.jpg,AB,2,4,0,46,46,19,,,,,,,,,,,,,,,,,,4,1,1.04972384869,,,,,,2016_Feb_01_1650,P10,PLC_L_D1S1,NHGY,60.0177347916,
stim/posf.jpg,stim/negf.jpg,stim/1.jpg,stim/2.jpg,stim/latef.jpg,EF,2,4,0,47,47,52,,,,,,,,,,,,,,,,,,4,1,1.432898294,,,,,,2016_Feb_01_1650,P10,PLC_L_D1S1,NHGY,60.0177347916,
stim/negf.jpg,stim/posf.jpg,stim/1.jpg,stim/2.jpg,stim/latef.jpg,EF,2,4,0,48,48,58,,,,,,,,,,,,,,,,,,4,1,1.14964169893,,,,,,2016_Feb_01_1650,P10,PLC_L_D1S1,NHGY,60.0177347916,
stim/posf.jpg,stim/negf.jpg,stim/2.jpg,stim/1.jpg,stim/latef.jpg,EF,1,2,0,49,49,45,,,,,,,,,,,,,,,,,,2,1,1.1329641732,,,,,,2016_Feb_01_1650,P10,PLC_L_D1S1,NHGY,60.0177347916,
stim/negf.jpg,stim/posf.jpg,stim/4.jpg,stim/5.jpg,stim/latef.jpg,CD,2,4,0,50,50,38,,,,,,,,,,,,,,,,,,2,0,1.34957177164,,,,,,2016_Feb_01_1650,P10,PLC_L_D1S1,NHGY,60.0177347916,
stim/posf.jpg,stim/negf.jpg,stim/6.jpg,stim/3.jpg,stim/latef.jpg,AB,2,4,0,51,51,12,,,,,,,,,,,,,,,,,,4,1,1.06630987737,,,,,,2016_Feb_01_1650,P10,PLC_L_D1S1,NHGY,60.0177347916,
stim/posf.jpg,stim/negf.jpg,stim/1.jpg,stim/2.jpg,stim/latef.jpg,EF,2,4,0,52,52,53,,,,,,,,,,,,,,,,,,2,0,1.43286892279,,,,,,2016_Feb_01_1650,P10,PLC_L_D1S1,NHGY,60.0177347916,
stim/negf.jpg,stim/posf.jpg,stim/2.jpg,stim/1.jpg,stim/latef.jpg,EF,1,2,0,53,53,49,,,,,,,,,,,,,,,,,,2,1,1.01632134796,,,,,,2016_Feb_01_1650,P10,PLC_L_D1S1,NHGY,60.0177347916,
stim/posf.jpg,stim/negf.jpg,stim/3.jpg,stim/6.jpg,stim/latef.jpg,AB,1,2,0,54,54,6,,,,,,,,,,,,,,,,,,None,0,,,,,,,2016_Feb_01_1650,P10,PLC_L_D1S1,NHGY,60.0177347916,
stim/posf.jpg,stim/negf.jpg,stim/2.jpg,stim/1.jpg,stim/latef.jpg,EF,1,2,0,55,55,43,,,,,,,,,,,,,,,,,,4,0,1.13299839851,,,,,,2016_Feb_01_1650,P10,PLC_L_D1S1,NHGY,60.0177347916,
stim/posf.jpg,stim/negf.jpg,stim/3.jpg,stim/6.jpg,stim/latef.jpg,AB,1,2,0,56,56,2,,,,,,,,,,,,,,,,,,2,1,1.06631563372,,,,,,2016_Feb_01_1650,P10,PLC_L_D1S1,NHGY,60.0177347916,
stim/negf.jpg,stim/posf.jpg,stim/2.jpg,stim/1.jpg,stim/latef.jpg,EF,1,2,0,57,57,46,,,,,,,,,,,,,,,,,,2,1,1.09964304329,,,,,,2016_Feb_01_1650,P10,PLC_L_D1S1,NHGY,60.0177347916,
stim/posf.jpg,stim/negf.jpg,stim/6.jpg,stim/3.jpg,stim/latef.jpg,AB,2,4,0,58,58,15,,,,,,,,,,,,,,,,,,4,1,0.999619572785,,,,,,2016_Feb_01_1650,P10,PLC_L_D1S1,NHGY,60.0177347916,
stim/posf.jpg,stim/negf.jpg,stim/3.jpg,stim/6.jpg,stim/latef.jpg,AB,1,2,0,59,59,0,,,,,,,,,,,,,,,,,,2,1,1.09962285697,,,,,,2016_Feb_01_1650,P10,PLC_L_D1S1,NHGY,60.0177347916,
,,,,,,,,,,,,,,,,,,,,,,,,,,,,,,,,0.9984375,0.109375,1,0,0,2016_Feb_01_1650,P10,PLC_L_D1S1,NHGY,60.0177347916,
stim/negf.jpg,stim/posf.jpg,stim/1.jpg,stim/2.jpg,stim/latef.jpg,EF,2,4,,,,,0,0,0,59,,,,,,,,,,,,,,4,1,1.11630476763,,,,,,2016_Feb_01_1650,P10,PLC_L_D1S1,NHGY,60.0177347916,
stim/negf.jpg,stim/posf.jpg,stim/6.jpg,stim/3.jpg,stim/latef.jpg,AB,2,4,,,,,0,1,1,19,,,,,,,,,,,,,,4,1,0.899708122495,,,,,,2016_Feb_01_1650,P10,PLC_L_D1S1,NHGY,60.0177347916,
stim/posf.jpg,stim/negf.jpg,stim/3.jpg,stim/6.jpg,stim/latef.jpg,AB,1,2,,,,,0,2,2,4,,,,,,,,,,,,,,2,1,1.39959613537,,,,,,2016_Feb_01_1650,P10,PLC_L_D1S1,NHGY,60.0177347916,
stim/posf.jpg,stim/negf.jpg,stim/4.jpg,stim/5.jpg,stim/latef.jpg,CD,2,4,,,,,0,3,3,32,,,,,,,,,,,,,,2,0,1.48286470929,,,,,,2016_Feb_01_1650,P10,PLC_L_D1S1,NHGY,60.0177347916,
stim/posf.jpg,stim/negf.jpg,stim/6.jpg,stim/3.jpg,stim/latef.jpg,AB,2,4,,,,,0,4,4,17,,,,,,,,,,,,,,4,1,1.0663169089,,,,,,2016_Feb_01_1650,P10,PLC_L_D1S1,NHGY,60.0177347916,
stim/negf.jpg,stim/posf.jpg,stim/1.jpg,stim/2.jpg,stim/latef.jpg,EF,2,4,,,,,0,5,5,58,,,,,,,,,,,,,,4,1,1.08296400478,,,,,,2016_Feb_01_1650,P10,PLC_L_D1S1,NHGY,60.0177347916,
stim/posf.jpg,stim/negf.jpg,stim/5.jpg,stim/4.jpg,stim/latef.jpg,CD,1,2,,,,,0,6,6,26,,,,,,,,,,,,,,2,1,1.13292257953,,,,,,2016_Feb_01_1650,P10,PLC_L_D1S1,NHGY,60.0177347916,
stim/posf.jpg,stim/negf.jpg,stim/1.jpg,stim/2.jpg,stim/latef.jpg,EF,2,4,,,,,0,7,7,51,,,,,,,,,,,,,,4,1,1.18294883798,,,,,,2016_Feb_01_1650,P10,PLC_L_D1S1,NHGY,60.0177347916,
stim/posf.jpg,stim/negf.jpg,stim/4.jpg,stim/5.jpg,stim/latef.jpg,CD,2,4,,,,,0,8,8,31,,,,,,,,,,,,,,4,1,1.016311736,,,,,,2016_Feb_01_1650,P10,PLC_L_D1S1,NHGY,60.0177347916,
stim/posf.jpg,stim/negf.jpg,stim/3.jpg,stim/6.jpg,stim/latef.jpg,AB,1,2,,,,,0,9,9,1,,,,,,,,,,,,,,2,1,1.31622766145,,,,,,2016_Feb_01_1650,P10,PLC_L_D1S1,NHGY,60.0177347916,
stim/negf.jpg,stim/posf.jpg,stim/1.jpg,stim/2.jpg,stim/latef.jpg,EF,2,4,,,,,0,10,10,56,,,,,,,,,,,,,,4,1,1.04966356343,,,,,,2016_Feb_01_1650,P10,PLC_L_D1S1,NHGY,60.0177347916,
stim/posf.jpg,stim/negf.jpg,stim/4.jpg,stim/5.jpg,stim/latef.jpg,CD,2,4,,,,,0,11,11,33,,,,,,,,,,,,,,4,1,1.08298873242,,,,,,2016_Feb_01_1650,P10,PLC_L_D1S1,NHGY,60.0177347916,
stim/posf.jpg,stim/negf.jpg,stim/1.jpg,stim/2.jpg,stim/latef.jpg,EF,2,4,,,,,0,12,12,52,,,,,,,,,,,,,,4,1,1.01633124864,,,,,,2016_Feb_01_1650,P10,PLC_L_D1S1,NHGY,60.0177347916,
stim/posf.jpg,stim/negf.jpg,stim/5.jpg,stim/4.jpg,stim/latef.jpg,CD,1,2,,,,,0,13,13,21,,,,,,,,,,,,,,2,1,1.06631232547,,,,,,2016_Feb_01_1650,P10,PLC_L_D1S1,NHGY,60.0177347916,
stim/posf.jpg,stim/negf.jpg,stim/6.jpg,stim/3.jpg,stim/latef.jpg,AB,2,4,,,,,0,14,14,10,,,,,,,,,,,,,,4,1,0.816393317344,,,,,,2016_Feb_01_1650,P10,PLC_L_D1S1,NHGY,60.0177347916,
stim/negf.jpg,stim/posf.jpg,stim/2.jpg,stim/1.jpg,stim/latef.jpg,EF,1,2,,,,,0,15,15,48,,,,,,,,,,,,,,2,1,0.79967039947,,,,,,2016_Feb_01_1650,P10,PLC_L_D1S1,NHGY,60.0177347916,
stim/posf.jpg,stim/negf.jpg,stim/2.jpg,stim/1.jpg,stim/latef.jpg,EF,1,2,,,,,0,16,16,45,,,,,,,,,,,,,,2,1,0.766420835933,,,,,,2016_Feb_01_1650,P10,PLC_L_D1S1,NHGY,60.0177347916,
stim/posf.jpg,stim/negf.jpg,stim/1.jpg,stim/2.jpg,stim/latef.jpg,EF,2,4,,,,,0,17,17,53,,,,,,,,,,,,,,4,1,0.76639483613,,,,,,2016_Feb_01_1650,P10,PLC_L_D1S1,NHGY,60.0177347916,
stim/negf.jpg,stim/posf.jpg,stim/5.jpg,stim/4.jpg,stim/latef.jpg,CD,1,2,,,,,0,18,18,28,,,,,,,,,,,,,,2,1,0.816326442658,,,,,,2016_Feb_01_1650,P10,PLC_L_D1S1,NHGY,60.0177347916,
stim/posf.jpg,stim/negf.jpg,stim/6.jpg,stim/3.jpg,stim/latef.jpg,AB,2,4,,,,,0,19,19,12,,,,,,,,,,,,,,4,1,0.933033318546,,,,,,2016_Feb_01_1650,P10,PLC_L_D1S1,NHGY,60.0177347916,
stim/posf.jpg,stim/negf.jpg,stim/2.jpg,stim/1.jpg,stim/latef.jpg,EF,1,2,,,,,0,20,20,43,,,,,,,,,,,,,,2,1,0.6831072819,,,,,,2016_Feb_01_1650,P10,PLC_L_D1S1,NHGY,60.0177347916,
stim/negf.jpg,stim/posf.jpg,stim/5.jpg,stim/4.jpg,stim/latef.jpg,CD,1,2,,,,,0,21,21,27,,,,,,,,,,,,,,2,1,1.03300694581,,,,,,2016_Feb_01_1650,P10,PLC_L_D1S1,NHGY,60.0177347916,
stim/posf.jpg,stim/negf.jpg,stim/3.jpg,stim/6.jpg,stim/latef.jpg,AB,1,2,,,,,0,22,22,5,,,,,,,,,,,,,,2,1,1.11629439177,,,,,,2016_Feb_01_1650,P10,PLC_L_D1S1,NHGY,60.0177347916,
stim/negf.jpg,stim/posf.jpg,stim/5.jpg,stim/4.jpg,stim/latef.jpg,CD,1,2,,,,,0,23,23,29,,,,,,,,,,,,,,2,1,0.849689352712,,,,,,2016_Feb_01_1650,P10,PLC_L_D1S1,NHGY,60.0177347916,
stim/posf.jpg,stim/negf.jpg,stim/3.jpg,stim/6.jpg,stim/latef.jpg,AB,1,2,,,,,0,24,24,2,,,,,,,,,,,,,,2,1,0.716420745708,,,,,,2016_Feb_01_1650,P10,PLC_L_D1S1,NHGY,60.0177347916,
stim/posf.jpg,stim/negf.jpg,stim/3.jpg,stim/6.jpg,stim/latef.jpg,AB,1,2,,,,,0,25,25,6,,,,,,,,,,,,,,2,1,0.749701310517,,,,,,2016_Feb_01_1650,P10,PLC_L_D1S1,NHGY,60.0177347916,
stim/posf.jpg,stim/negf.jpg,stim/5.jpg,stim/4.jpg,stim/latef.jpg,CD,1,2,,,,,0,26,26,22,,,,,,,,,,,,,,4,0,0.999672047579,,,,,,2016_Feb_01_1650,P10,PLC_L_D1S1,NHGY,60.0177347916,
stim/negf.jpg,stim/posf.jpg,stim/1.jpg,stim/2.jpg,stim/latef.jpg,EF,2,4,,,,,0,27,27,57,,,,,,,,,,,,,,4,1,0.999665569432,,,,,,2016_Feb_01_1650,P10,PLC_L_D1S1,NHGY,60.0177347916,
stim/posf.jpg,stim/negf.jpg,stim/5.jpg,stim/4.jpg,stim/latef.jpg,CD,1,2,,,,,0,28,28,23,,,,,,,,,,,,,,2,1,0.816384709889,,,,,,2016_Feb_01_1650,P10,PLC_L_D1S1,NHGY,60.0177347916,
stim/posf.jpg,stim/negf.jpg,stim/5.jpg,stim/4.jpg,stim/latef.jpg,CD,1,2,,,,,0,29,29,24,,,,,,,,,,,,,,2,1,0.899696155668,,,,,,2016_Feb_01_1650,P10,PLC_L_D1S1,NHGY,60.0177347916,
stim/posf.jpg,stim/negf.jpg,stim/1.jpg,stim/2.jpg,stim/latef.jpg,EF,2,4,,,,,0,30,30,50,,,,,,,,,,,,,,4,1,0.73307581146,,,,,,2016_Feb_01_1650,P10,PLC_L_D1S1,NHGY,60.0177347916,
stim/negf.jpg,stim/posf.jpg,stim/4.jpg,stim/5.jpg,stim/latef.jpg,CD,2,4,,,,,0,31,31,39,,,,,,,,,,,,,,4,1,0.833042283893,,,,,,2016_Feb_01_1650,P10,PLC_L_D1S1,NHGY,60.0177347916,
stim/posf.jpg,stim/negf.jpg,stim/6.jpg,stim/3.jpg,stim/latef.jpg,AB,2,4,,,,,0,32,32,15,,,,,,,,,,,,,,4,1,1.11627390772,,,,,,2016_Feb_01_1650,P10,PLC_L_D1S1,NHGY,60.0177347916,
stim/posf.jpg,stim/negf.jpg,stim/6.jpg,stim/3.jpg,stim/latef.jpg,AB,2,4,,,,,0,33,33,13,,,,,,,,,,,,,,4,1,0.966377762573,,,,,,2016_Feb_01_1650,P10,PLC_L_D1S1,NHGY,60.0177347916,
stim/negf.jpg,stim/posf.jpg,stim/4.jpg,stim/5.jpg,stim/latef.jpg,CD,2,4,,,,,0,34,34,38,,,,,,,,,,,,,,4,1,0.933014251021,,,,,,2016_Feb_01_1650,P10,PLC_L_D1S1,NHGY,60.0177347916,
stim/posf.jpg,stim/negf.jpg,stim/5.jpg,stim/4.jpg,stim/latef.jpg,CD,1,2,,,,,0,35,35,25,,,,,,,,,,,,,,2,1,0.966359624364,,,,,,2016_Feb_01_1650,P10,PLC_L_D1S1,NHGY,60.0177347916,
stim/posf.jpg,stim/negf.jpg,stim/6.jpg,stim/3.jpg,stim/latef.jpg,AB,2,4,,,,,0,36,36,14,,,,,,,,,,,,,,4,1,0.799739941805,,,,,,2016_Feb_01_1650,P10,PLC_L_D1S1,NHGY,60.0177347916,
stim/negf.jpg,stim/posf.jpg,stim/4.jpg,stim/5.jpg,stim/latef.jpg,CD,2,4,,,,,0,37,37,37,,,,,,,,,,,,,,4,1,1.01635701987,,,,,,2016_Feb_01_1650,P10,PLC_L_D1S1,NHGY,60.0177347916,
stim/negf.jpg,stim/posf.jpg,stim/2.jpg,stim/1.jpg,stim/latef.jpg,EF,1,2,,,,,0,38,38,46,,,,,,,,,,,,,,2,1,1.03298106631,,,,,,2016_Feb_01_1650,P10,PLC_L_D1S1,NHGY,60.0177347916,
stim/posf.jpg,stim/negf.jpg,stim/1.jpg,stim/2.jpg,stim/latef.jpg,EF,2,4,,,,,0,39,39,55,,,,,,,,,,,,,,4,1,0.699674528763,,,,,,2016_Feb_01_1650,P10,PLC_L_D1S1,NHGY,60.0177347916,
stim/posf.jpg,stim/negf.jpg,stim/2.jpg,stim/1.jpg,stim/latef.jpg,EF,1,2,,,,,0,40,40,40,,,,,,,,,,,,,,2,1,0.683095071466,,,,,,2016_Feb_01_1650,P10,PLC_L_D1S1,NHGY,60.0177347916,
stim/posf.jpg,stim/negf.jpg,stim/4.jpg,stim/5.jpg,stim/latef.jpg,CD,2,4,,,,,0,41,41,30,,,,,,,,,,,,,,4,1,1.09963467944,,,,,,2016_Feb_01_1650,P10,PLC_L_D1S1,NHGY,60.0177347916,
stim/posf.jpg,stim/negf.jpg,stim/3.jpg,stim/6.jpg,stim/latef.jpg,AB,1,2,,,,,0,42,42,0,,,,,,,,,,,,,,2,1,1.06632468027,,,,,,2016_Feb_01_1650,P10,PLC_L_D1S1,NHGY,60.0177347916,
stim/posf.jpg,stim/negf.jpg,stim/6.jpg,stim/3.jpg,stim/latef.jpg,AB,2,4,,,,,0,43,43,16,,,,,,,,,,,,,,4,1,0.883094996278,,,,,,2016_Feb_01_1650,P10,PLC_L_D1S1,NHGY,60.0177347916,
stim/negf.jpg,stim/posf.jpg,stim/2.jpg,stim/1.jpg,stim/latef.jpg,EF,1,2,,,,,0,44,44,47,,,,,,,,,,,,,,2,1,0.766421720137,,,,,,2016_Feb_01_1650,P10,PLC_L_D1S1,NHGY,60.0177347916,
stim/posf.jpg,stim/negf.jpg,stim/3.jpg,stim/6.jpg,stim/latef.jpg,AB,1,2,,,,,0,45,45,3,,,,,,,,,,,,,,2,1,1.03305076503,,,,,,2016_Feb_01_1650,P10,PLC_L_D1S1,NHGY,60.0177347916,
stim/posf.jpg,stim/negf.jpg,stim/5.jpg,stim/4.jpg,stim/latef.jpg,CD,1,2,,,,,0,46,46,20,,,,,,,,,,,,,,2,1,0.882973899445,,,,,,2016_Feb_01_1650,P10,PLC_L_D1S1,NHGY,60.0177347916,
stim/posf.jpg,stim/negf.jpg,stim/1.jpg,stim/2.jpg,stim/latef.jpg,EF,2,4,,,,,0,47,47,54,,,,,,,,,,,,,,4,1,0.799664709288,,,,,,2016_Feb_01_1650,P10,PLC_L_D1S1,NHGY,60.0177347916,
stim/negf.jpg,stim/posf.jpg,stim/3.jpg,stim/6.jpg,stim/latef.jpg,AB,1,2,,,,,0,48,48,8,,,,,,,,,,,,,,2,1,0.799743619973,,,,,,2016_Feb_01_1650,P10,PLC_L_D1S1,NHGY,60.0177347916,
stim/posf.jpg,stim/negf.jpg,stim/6.jpg,stim/3.jpg,stim/latef.jpg,AB,2,4,,,,,0,49,49,11,,,,,,,,,,,,,,4,1,1.08298068436,,,,,,2016_Feb_01_1650,P10,PLC_L_D1S1,NHGY,60.0177347916,
stim/negf.jpg,stim/posf.jpg,stim/6.jpg,stim/3.jpg,stim/latef.jpg,AB,2,4,,,,,0,50,50,18,,,,,,,,,,,,,,4,1,1.03299107826,,,,,,2016_Feb_01_1650,P10,PLC_L_D1S1,NHGY,60.0177347916,
stim/posf.jpg,stim/negf.jpg,stim/2.jpg,stim/1.jpg,stim/latef.jpg,EF,1,2,,,,,0,51,51,44,,,,,,,,,,,,,,2,1,0.883059222111,,,,,,2016_Feb_01_1650,P10,PLC_L_D1S1,NHGY,60.0177347916,
stim/negf.jpg,stim/posf.jpg,stim/3.jpg,stim/6.jpg,stim/latef.jpg,AB,1,2,,,,,0,52,52,9,,,,,,,,,,,,,,2,1,1.1829529372,,,,,,2016_Feb_01_1650,P10,PLC_L_D1S1,NHGY,60.0177347916,
stim/negf.jpg,stim/posf.jpg,stim/2.jpg,stim/1.jpg,stim/latef.jpg,EF,1,2,,,,,0,53,53,49,,,,,,,,,,,,,,2,1,0.766409897669,,,,,,2016_Feb_01_1650,P10,PLC_L_D1S1,NHGY,60.0177347916,
stim/posf.jpg,stim/negf.jpg,stim/3.jpg,stim/6.jpg,stim/latef.jpg,AB,1,2,,,,,0,54,54,7,,,,,,,,,,,,,,2,1,0.833037369644,,,,,,2016_Feb_01_1650,P10,PLC_L_D1S1,NHGY,60.0177347916,
stim/posf.jpg,stim/negf.jpg,stim/2.jpg,stim/1.jpg,stim/latef.jpg,EF,1,2,,,,,0,55,55,42,,,,,,,,,,,,,,2,1,0.916354216885,,,,,,2016_Feb_01_1650,P10,PLC_L_D1S1,NHGY,60.0177347916,
stim/posf.jpg,stim/negf.jpg,stim/4.jpg,stim/5.jpg,stim/latef.jpg,CD,2,4,,,,,0,56,56,36,,,,,,,,,,,,,,4,1,0.84972666371,,,,,,2016_Feb_01_1650,P10,PLC_L_D1S1,NHGY,60.0177347916,
stim/posf.jpg,stim/negf.jpg,stim/4.jpg,stim/5.jpg,stim/latef.jpg,CD,2,4,,,,,0,57,57,34,,,,,,,,,,,,,,4,1,0.849722263742,,,,,,2016_Feb_01_1650,P10,PLC_L_D1S1,NHGY,60.0177347916,
stim/posf.jpg,stim/negf.jpg,stim/2.jpg,stim/1.jpg,stim/latef.jpg,EF,1,2,,,,,0,58,58,41,,,,,,,,,,,,,,2,1,0.683107339042,,,,,,2016_Feb_01_1650,P10,PLC_L_D1S1,NHGY,60.0177347916,
stim/posf.jpg,stim/negf.jpg,stim/4.jpg,stim/5.jpg,stim/latef.jpg,CD,2,4,,,,,0,59,59,35,,,,,,,,,,,,,,4,1,0.699760588266,,,,,,2016_Feb_01_1650,P10,PLC_L_D1S1,NHGY,60.0177347916,
,,,,,,,,,,,,,,,,,,,,,,,,,,,,,,,,0.9984375,0.109375,1,0,0,2016_Feb_01_1650,P10,PLC_L_D1S1,NHGY,60.0177347916,
stim/negf.jpg,stim/posf.jpg,stim/4.jpg,stim/5.jpg,stim/latef.jpg,CD,2,4,,,,,,,,,0,0,0,37,,,,,,,,,,4,1,0.933040181652,,,,,,2016_Feb_01_1650,P10,PLC_L_D1S1,NHGY,60.0177347916,
stim/negf.jpg,stim/posf.jpg,stim/1.jpg,stim/2.jpg,stim/latef.jpg,EF,2,4,,,,,,,,,0,1,1,56,,,,,,,,,,4,1,0.749777385133,,,,,,2016_Feb_01_1650,P10,PLC_L_D1S1,NHGY,60.0177347916,
stim/posf.jpg,stim/negf.jpg,stim/4.jpg,stim/5.jpg,stim/latef.jpg,CD,2,4,,,,,,,,,0,2,2,31,,,,,,,,,,4,1,0.733093071481,,,,,,2016_Feb_01_1650,P10,PLC_L_D1S1,NHGY,60.0177347916,
stim/posf.jpg,stim/negf.jpg,stim/4.jpg,stim/5.jpg,stim/latef.jpg,CD,2,4,,,,,,,,,0,3,3,35,,,,,,,,,,4,1,0.899681575327,,,,,,2016_Feb_01_1650,P10,PLC_L_D1S1,NHGY,60.0177347916,
stim/posf.jpg,stim/negf.jpg,stim/3.jpg,stim/6.jpg,stim/latef.jpg,AB,1,2,,,,,,,,,0,4,4,7,,,,,,,,,,2,1,0.949685229434,,,,,,2016_Feb_01_1650,P10,PLC_L_D1S1,NHGY,60.0177347916,
stim/negf.jpg,stim/posf.jpg,stim/4.jpg,stim/5.jpg,stim/latef.jpg,CD,2,4,,,,,,,,,0,5,5,39,,,,,,,,,,4,1,0.933032617801,,,,,,2016_Feb_01_1650,P10,PLC_L_D1S1,NHGY,60.0177347916,
stim/negf.jpg,stim/posf.jpg,stim/2.jpg,stim/1.jpg,stim/latef.jpg,EF,1,2,,,,,,,,,0,6,6,47,,,,,,,,,,2,1,0.81637620469,,,,,,2016_Feb_01_1650,P10,PLC_L_D1S1,NHGY,60.0177347916,
stim/negf.jpg,stim/posf.jpg,stim/1.jpg,stim/2.jpg,stim/latef.jpg,EF,2,4,,,,,,,,,0,7,7,59,,,,,,,,,,4,1,0.933018735197,,,,,,2016_Feb_01_1650,P10,PLC_L_D1S1,NHGY,60.0177347916,
stim/negf.jpg,stim/posf.jpg,stim/4.jpg,stim/5.jpg,stim/latef.jpg,CD,2,4,,,,,,,,,0,8,8,38,,,,,,,,,,4,1,0.74975235675,,,,,,2016_Feb_01_1650,P10,PLC_L_D1S1,NHGY,60.0177347916,
stim/posf.jpg,stim/negf.jpg,stim/3.jpg,stim/6.jpg,stim/latef.jpg,AB,1,2,,,,,,,,,0,9,9,1,,,,,,,,,,2,1,0.8997100503,,,,,,2016_Feb_01_1650,P10,PLC_L_D1S1,NHGY,60.0177347916,
stim/posf.jpg,stim/negf.jpg,stim/6.jpg,stim/3.jpg,stim/latef.jpg,AB,2,4,,,,,,,,,0,10,10,15,,,,,,,,,,4,1,1.03297695506,,,,,,2016_Feb_01_1650,P10,PLC_L_D1S1,NHGY,60.0177347916,
stim/negf.jpg,stim/posf.jpg,stim/1.jpg,stim/2.jpg,stim/latef.jpg,EF,2,4,,,,,,,,,0,11,11,58,,,,,,,,,,4,1,1.01630951948,,,,,,2016_Feb_01_1650,P10,PLC_L_D1S1,NHGY,60.0177347916,
stim/posf.jpg,stim/negf.jpg,stim/3.jpg,stim/6.jpg,stim/latef.jpg,AB,1,2,,,,,,,,,0,12,12,2,,,,,,,,,,2,1,1.01636372057,,,,,,2016_Feb_01_1650,P10,PLC_L_D1S1,NHGY,60.0177347916,
stim/posf.jpg,stim/negf.jpg,stim/6.jpg,stim/3.jpg,stim/latef.jpg,AB,2,4,,,,,,,,,0,13,13,16,,,,,,,,,,4,1,0.916359991278,,,,,,2016_Feb_01_1650,P10,PLC_L_D1S1,NHGY,60.0177347916,
stim/posf.jpg,stim/negf.jpg,stim/1.jpg,stim/2.jpg,stim/latef.jpg,EF,2,4,,,,,,,,,0,14,14,54,,,,,,,,,,2,0,1.03299180307,,,,,,2016_Feb_01_1650,P10,PLC_L_D1S1,NHGY,60.0177347916,
stim/posf.jpg,stim/negf.jpg,stim/2.jpg,stim/1.jpg,stim/latef.jpg,EF,1,2,,,,,,,,,0,15,15,42,,,,,,,,,,2,1,1.44950044586,,,,,,2016_Feb_01_1650,P10,PLC_L_D1S1,NHGY,60.0177347916,
stim/negf.jpg,stim/posf.jpg,stim/3.jpg,stim/6.jpg,stim/latef.jpg,AB,1,2,,,,,,,,,0,16,16,9,,,,,,,,,,2,1,0.999657253705,,,,,,2016_Feb_01_1650,P10,PLC_L_D1S1,NHGY,60.0177347916,
stim/posf.jpg,stim/negf.jpg,stim/6.jpg,stim/3.jpg,stim/latef.jpg,AB,2,4,,,,,,,,,0,17,17,13,,,,,,,,,,4,1,1.03300612777,,,,,,2016_Feb_01_1650,P10,PLC_L_D1S1,NHGY,60.0177347916,
stim/posf.jpg,stim/negf.jpg,stim/5.jpg,stim/4.jpg,stim/latef.jpg,CD,1,2,,,,,,,,,0,18,18,25,,,,,,,,,,2,1,0.79971704273,,,,,,2016_Feb_01_1650,P10,PLC_L_D1S1,NHGY,60.0177347916,
stim/posf.jpg,stim/negf.jpg,stim/1.jpg,stim/2.jpg,stim/latef.jpg,EF,2,4,,,,,,,,,0,19,19,52,,,,,,,,,,4,1,0.783057417613,,,,,,2016_Feb_01_1650,P10,PLC_L_D1S1,NHGY,60.0177347916,
stim/posf.jpg,stim/negf.jpg,stim/6.jpg,stim/3.jpg,stim/latef.jpg,AB,2,4,,,,,,,,,0,20,20,10,,,,,,,,,,4,1,1.08297398365,,,,,,2016_Feb_01_1650,P10,PLC_L_D1S1,NHGY,60.0177347916,
stim/posf.jpg,stim/negf.jpg,stim/4.jpg,stim/5.jpg,stim/latef.jpg,CD,2,4,,,,,,,,,0,21,21,33,,,,,,,,,,4,1,1.11629326998,,,,,,2016_Feb_01_1650,P10,PLC_L_D1S1,NHGY,60.0177347916,
stim/posf.jpg,stim/negf.jpg,stim/4.jpg,stim/5.jpg,stim/latef.jpg,CD,2,4,,,,,,,,,0,22,22,36,,,,,,,,,,4,1,0.899688200841,,,,,,2016_Feb_01_1650,P10,PLC_L_D1S1,NHGY,60.0177347916,
stim/posf.jpg,stim/negf.jpg,stim/1.jpg,stim/2.jpg,stim/latef.jpg,EF,2,4,,,,,,,,,0,23,23,53,,,,,,,,,,4,1,0.733094689514,,,,,,2016_Feb_01_1650,P10,PLC_L_D1S1,NHGY,60.0177347916,
stim/posf.jpg,stim/negf.jpg,stim/4.jpg,stim/5.jpg,stim/latef.jpg,CD,2,4,,,,,,,,,0,24,24,30,,,,,,,,,,4,1,0.933028070465,,,,,,2016_Feb_01_1650,P10,PLC_L_D1S1,NHGY,60.0177347916,
stim/posf.jpg,stim/negf.jpg,stim/6.jpg,stim/3.jpg,stim/latef.jpg,AB,2,4,,,,,,,,,0,25,25,11,,,,,,,,,,4,1,0.766409939775,,,,,,2016_Feb_01_1650,P10,PLC_L_D1S1,NHGY,60.0177347916,
stim/posf.jpg,stim/negf.jpg,stim/3.jpg,stim/6.jpg,stim/latef.jpg,AB,1,2,,,,,,,,,0,26,26,4,,,,,,,,,,2,1,0.999670778415,,,,,,2016_Feb_01_1650,P10,PLC_L_D1S1,NHGY,60.0177347916,
stim/negf.jpg,stim/posf.jpg,stim/3.jpg,stim/6.jpg,stim/latef.jpg,AB,1,2,,,,,,,,,0,27,27,8,,,,,,,,,,2,1,0.799734874175,,,,,,2016_Feb_01_1650,P10,PLC_L_D1S1,NHGY,60.0177347916,
stim/posf.jpg,stim/negf.jpg,stim/5.jpg,stim/4.jpg,stim/latef.jpg,CD,1,2,,,,,,,,,0,28,28,26,,,,,,,,,,2,1,0.899693217344,,,,,,2016_Feb_01_1650,P10,PLC_L_D1S1,NHGY,60.0177347916,
stim/negf.jpg,stim/posf.jpg,stim/2.jpg,stim/1.jpg,stim/latef.jpg,EF,1,2,,,,,,,,,0,29,29,48,,,,,,,,,,2,1,0.783074425004,,,,,,2016_Feb_01_1650,P10,PLC_L_D1S1,NHGY,60.0177347916,
stim/posf.jpg,stim/negf.jpg,stim/6.jpg,stim/3.jpg,stim/latef.jpg,AB,2,4,,,,,,,,,0,30,30,12,,,,,,,,,,4,1,0.866365931083,,,,,,2016_Feb_01_1650,P10,PLC_L_D1S1,NHGY,60.0177347916,
stim/negf.jpg,stim/posf.jpg,stim/2.jpg,stim/1.jpg,stim/latef.jpg,EF,1,2,,,,,,,,,0,31,31,46,,,,,,,,,,2,1,0.633125762964,,,,,,2016_Feb_01_1650,P10,PLC_L_D1S1,NHGY,60.0177347916,
stim/negf.jpg,stim/posf.jpg,stim/5.jpg,stim/4.jpg,stim/latef.jpg,CD,1,2,,,,,,,,,0,32,32,29,,,,,,,,,,2,1,0.999664531846,,,,,,2016_Feb_01_1650,P10,PLC_L_D1S1,NHGY,60.0177347916,
stim/negf.jpg,stim/posf.jpg,stim/6.jpg,stim/3.jpg,stim/latef.jpg,AB,2,4,,,,,,,,,0,33,33,18,,,,,,,,,,4,1,0.899671846076,,,,,,2016_Feb_01_1650,P10,PLC_L_D1S1,NHGY,60.0177347916,
stim/posf.jpg,stim/negf.jpg,stim/3.jpg,stim/6.jpg,stim/latef.jpg,AB,1,2,,,,,,,,,0,34,34,6,,,,,,,,,,2,1,0.7497022669,,,,,,2016_Feb_01_1650,P10,PLC_L_D1S1,NHGY,60.0177347916,
stim/posf.jpg,stim/negf.jpg,stim/5.jpg,stim/4.jpg,stim/latef.jpg,CD,1,2,,,,,,,,,0,35,35,21,,,,,,,,,,2,1,0.649777902422,,,,,,2016_Feb_01_1650,P10,PLC_L_D1S1,NHGY,60.0177347916,
stim/posf.jpg,stim/negf.jpg,stim/3.jpg,stim/6.jpg,stim/latef.jpg,AB,1,2,,,,,,,,,0,36,36,5,,,,,,,,,,2,1,1.16629765491,,,,,,2016_Feb_01_1650,P10,PLC_L_D1S1,NHGY,60.0177347916,
stim/posf.jpg,stim/negf.jpg,stim/3.jpg,stim/6.jpg,stim/latef.jpg,AB,1,2,,,,,,,,,0,37,37,0,,,,,,,,,,2,1,0.683111444275,,,,,,2016_Feb_01_1650,P10,PLC_L_D1S1,NHGY,60.0177347916,
stim/posf.jpg,stim/negf.jpg,stim/5.jpg,stim/4.jpg,stim/latef.jpg,CD,1,2,,,,,,,,,0,38,38,22,,,,,,,,,,2,1,0.933007132277,,,,,,2016_Feb_01_1650,P10,PLC_L_D1S1,NHGY,60.0177347916,
stim/posf.jpg,stim/negf.jpg,stim/2.jpg,stim/1.jpg,stim/latef.jpg,EF,1,2,,,,,,,,,0,39,39,40,,,,,,,,,,2,1,0.766410357816,,,,,,2016_Feb_01_1650,P10,PLC_L_D1S1,NHGY,60.0177347916,
stim/posf.jpg,stim/negf.jpg,stim/1.jpg,stim/2.jpg,stim/latef.jpg,EF,2,4,,,,,,,,,0,40,40,55,,,,,,,,,,4,1,1.04964960564,,,,,,2016_Feb_01_1650,P10,PLC_L_D1S1,NHGY,60.0177347916,
stim/negf.jpg,stim/posf.jpg,stim/1.jpg,stim/2.jpg,stim/latef.jpg,EF,2,4,,,,,,,,,0,41,41,57,,,,,,,,,,4,1,0.916309257826,,,,,,2016_Feb_01_1650,P10,PLC_L_D1S1,NHGY,60.0177347916,
stim/posf.jpg,stim/negf.jpg,stim/3.jpg,stim/6.jpg,stim/latef.jpg,AB,1,2,,,,,,,,,0,42,42,3,,,,,,,,,,2,1,0.816391903821,,,,,,2016_Feb_01_1650,P10,PLC_L_D1S1,NHGY,60.0177347916,
stim/posf.jpg,stim/negf.jpg,stim/6.jpg,stim/3.jpg,stim/latef.jpg,AB,2,4,,,,,,,,,0,43,43,17,,,,,,,,,,4,1,0.966267976933,,,,,,2016_Feb_01_1650,P10,PLC_L_D1S1,NHGY,60.0177347916,
stim/negf.jpg,stim/posf.jpg,stim/6.jpg,stim/3.jpg,stim/latef.jpg,AB,2,4,,,,,,,,,0,44,44,19,,,,,,,,,,4,1,0.766398297757,,,,,,2016_Feb_01_1650,P10,PLC_L_D1S1,NHGY,60.0177347916,
stim/posf.jpg,stim/negf.jpg,stim/5.jpg,stim/4.jpg,stim/latef.jpg,CD,1,2,,,,,,,,,0,45,45,23,,,,,,,,,,2,1,0.999680754279,,,,,,2016_Feb_01_1650,P10,PLC_L_D1S1,NHGY,60.0177347916,
stim/negf.jpg,stim/posf.jpg,stim/5.jpg,stim/4.jpg,stim/latef.jpg,CD,1,2,,,,,,,,,0,46,46,27,,,,,,,,,,2,1,0.866375275374,,,,,,2016_Feb_01_1650,P10,PLC_L_D1S1,NHGY,60.0177347916,
stim/posf.jpg,stim/negf.jpg,stim/2.jpg,stim/1.jpg,stim/latef.jpg,EF,1,2,,,,,,,,,0,47,47,43,,,,,,,,,,2,1,1.01632007579,,,,,,2016_Feb_01_1650,P10,PLC_L_D1S1,NHGY,60.0177347916,
stim/posf.jpg,stim/negf.jpg,stim/5.jpg,stim/4.jpg,stim/latef.jpg,CD,1,2,,,,,,,,,0,48,48,20,,,,,,,,,,2,1,0.866367422802,,,,,,2016_Feb_01_1650,P10,PLC_L_D1S1,NHGY,60.0177347916,
stim/negf.jpg,stim/posf.jpg,stim/5.jpg,stim/4.jpg,stim/latef.jpg,CD,1,2,,,,,,,,,0,49,49,28,,,,,,,,,,2,1,0.583143967339,,,,,,2016_Feb_01_1650,P10,PLC_L_D1S1,NHGY,60.0177347916,
stim/posf.jpg,stim/negf.jpg,stim/2.jpg,stim/1.jpg,stim/latef.jpg,EF,1,2,,,,,,,,,0,50,50,45,,,,,,,,,,2,1,0.749770143082,,,,,,2016_Feb_01_1650,P10,PLC_L_D1S1,NHGY,60.0177347916,
stim/posf.jpg,stim/negf.jpg,stim/6.jpg,stim/3.jpg,stim/latef.jpg,AB,2,4,,,,,,,,,0,51,51,14,,,,,,,,,,4,1,1.0663124969,,,,,,2016_Feb_01_1650,P10,PLC_L_D1S1,NHGY,60.0177347916,
stim/posf.jpg,stim/negf.jpg,stim/4.jpg,stim/5.jpg,stim/latef.jpg,CD,2,4,,,,,,,,,0,52,52,34,,,,,,,,,,4,1,1.01635717927,,,,,,2016_Feb_01_1650,P10,PLC_L_D1S1,NHGY,60.0177347916,
stim/posf.jpg,stim/negf.jpg,stim/2.jpg,stim/1.jpg,stim/latef.jpg,EF,1,2,,,,,,,,,0,53,53,44,,,,,,,,,,2,1,0.699769827295,,,,,,2016_Feb_01_1650,P10,PLC_L_D1S1,NHGY,60.0177347916,
stim/negf.jpg,stim/posf.jpg,stim/2.jpg,stim/1.jpg,stim/latef.jpg,EF,1,2,,,,,,,,,0,54,54,49,,,,,,,,,,2,1,0.616458787527,,,,,,2016_Feb_01_1650,P10,PLC_L_D1S1,NHGY,60.0177347916,
stim/posf.jpg,stim/negf.jpg,stim/1.jpg,stim/2.jpg,stim/latef.jpg,EF,2,4,,,,,,,,,0,55,55,50,,,,,,,,,,4,1,0.883020816384,,,,,,2016_Feb_01_1650,P10,PLC_L_D1S1,NHGY,60.0177347916,
stim/posf.jpg,stim/negf.jpg,stim/4.jpg,stim/5.jpg,stim/latef.jpg,CD,2,4,,,,,,,,,0,56,56,32,,,,,,,,,,4,1,0.699762383741,,,,,,2016_Feb_01_1650,P10,PLC_L_D1S1,NHGY,60.0177347916,
stim/posf.jpg,stim/negf.jpg,stim/5.jpg,stim/4.jpg,stim/latef.jpg,CD,1,2,,,,,,,,,0,57,57,24,,,,,,,,,,2,1,0.716442225247,,,,,,2016_Feb_01_1650,P10,PLC_L_D1S1,NHGY,60.0177347916,
stim/posf.jpg,stim/negf.jpg,stim/2.jpg,stim/1.jpg,stim/latef.jpg,EF,1,2,,,,,,,,,0,58,58,41,,,,,,,,,,2,1,0.916352779303,,,,,,2016_Feb_01_1650,P10,PLC_L_D1S1,NHGY,60.0177347916,
stim/posf.jpg,stim/negf.jpg,stim/1.jpg,stim/2.jpg,stim/latef.jpg,EF,2,4,,,,,,,,,0,59,59,51,,,,,,,,,,4,1,1.14963153961,,,,,,2016_Feb_01_1650,P10,PLC_L_D1S1,NHGY,60.0177347916,
,,,,,,,,,,,,,,,,,,,,,,,,,,,,,,,,0.9984375,0.109375,1,0,0,2016_Feb_01_1650,P10,PLC_L_D1S1,NHGY,60.0177347916,
stim/negf.jpg,stim/posf.jpg,stim/5.jpg,stim/4.jpg,stim/latef.jpg,CD,1,2,,,,,,,,,,,,,0,0,0,29,,,,,,2,1,0.849631503522,,,,,,2016_Feb_01_1650,P10,PLC_L_D1S1,NHGY,60.0177347916,
stim/posf.jpg,stim/negf.jpg,stim/6.jpg,stim/3.jpg,stim/latef.jpg,AB,2,4,,,,,,,,,,,,,0,1,1,12,,,,,,4,1,0.783086773783,,,,,,2016_Feb_01_1650,P10,PLC_L_D1S1,NHGY,60.0177347916,
stim/posf.jpg,stim/negf.jpg,stim/1.jpg,stim/2.jpg,stim/latef.jpg,EF,2,4,,,,,,,,,,,,,0,2,2,51,,,,,,4,1,0.816359356697,,,,,,2016_Feb_01_1650,P10,PLC_L_D1S1,NHGY,60.0177347916,
stim/posf.jpg,stim/negf.jpg,stim/4.jpg,stim/5.jpg,stim/latef.jpg,CD,2,4,,,,,,,,,,,,,0,3,3,34,,,,,,4,1,0.766416983331,,,,,,2016_Feb_01_1650,P10,PLC_L_D1S1,NHGY,60.0177347916,
stim/posf.jpg,stim/negf.jpg,stim/5.jpg,stim/4.jpg,stim/latef.jpg,CD,1,2,,,,,,,,,,,,,0,4,4,23,,,,,,2,1,0.766170019775,,,,,,2016_Feb_01_1650,P10,PLC_L_D1S1,NHGY,60.0177347916,
stim/posf.jpg,stim/negf.jpg,stim/4.jpg,stim/5.jpg,stim/latef.jpg,CD,2,4,,,,,,,,,,,,,0,5,5,30,,,,,,4,1,0.666446168074,,,,,,2016_Feb_01_1650,P10,PLC_L_D1S1,NHGY,60.0177347916,
stim/posf.jpg,stim/negf.jpg,stim/2.jpg,stim/1.jpg,stim/latef.jpg,EF,1,2,,,,,,,,,,,,,0,6,6,44,,,,,,2,1,0.649740149322,,,,,,2016_Feb_01_1650,P10,PLC_L_D1S1,NHGY,60.0177347916,
stim/negf.jpg,stim/posf.jpg,stim/1.jpg,stim/2.jpg,stim/latef.jpg,EF,2,4,,,,,,,,,,,,,0,7,7,57,,,,,,4,1,0.666424183277,,,,,,2016_Feb_01_1650,P10,PLC_L_D1S1,NHGY,60.0177347916,
stim/negf.jpg,stim/posf.jpg,stim/6.jpg,stim/3.jpg,stim/latef.jpg,AB,2,4,,,,,,,,,,,,,0,8,8,18,,,,,,4,1,0.749750865031,,,,,,2016_Feb_01_1650,P10,PLC_L_D1S1,NHGY,60.0177347916,
stim/posf.jpg,stim/negf.jpg,stim/6.jpg,stim/3.jpg,stim/latef.jpg,AB,2,4,,,,,,,,,,,,,0,9,9,14,,,,,,4,1,0.833067940843,,,,,,2016_Feb_01_1650,P10,PLC_L_D1S1,NHGY,60.0177347916,
stim/posf.jpg,stim/negf.jpg,stim/6.jpg,stim/3.jpg,stim/latef.jpg,AB,2,4,,,,,,,,,,,,,0,10,10,15,,,,,,4,1,0.716396730852,,,,,,2016_Feb_01_1650,P10,PLC_L_D1S1,NHGY,60.0177347916,
stim/negf.jpg,stim/posf.jpg,stim/6.jpg,stim/3.jpg,stim/latef.jpg,AB,2,4,,,,,,,,,,,,,0,11,11,19,,,,,,4,1,0.766421476531,,,,,,2016_Feb_01_1650,P10,PLC_L_D1S1,NHGY,60.0177347916,
stim/posf.jpg,stim/negf.jpg,stim/5.jpg,stim/4.jpg,stim/latef.jpg,CD,1,2,,,,,,,,,,,,,0,12,12,21,,,,,,2,1,0.849716474312,,,,,,2016_Feb_01_1650,P10,PLC_L_D1S1,NHGY,60.0177347916,
stim/negf.jpg,stim/posf.jpg,stim/5.jpg,stim/4.jpg,stim/latef.jpg,CD,1,2,,,,,,,,,,,,,0,13,13,27,,,,,,2,1,0.766428044902,,,,,,2016_Feb_01_1650,P10,PLC_L_D1S1,NHGY,60.0177347916,
stim/posf.jpg,stim/negf.jpg,stim/2.jpg,stim/1.jpg,stim/latef.jpg,EF,1,2,,,,,,,,,,,,,0,14,14,45,,,,,,2,1,0.999645593643,,,,,,2016_Feb_01_1650,P10,PLC_L_D1S1,NHGY,60.0177347916,
stim/posf.jpg,stim/negf.jpg,stim/4.jpg,stim/5.jpg,stim/latef.jpg,CD,2,4,,,,,,,,,,,,,0,15,15,35,,,,,,4,1,0.933012392388,,,,,,2016_Feb_01_1650,P10,PLC_L_D1S1,NHGY,60.0177347916,
stim/posf.jpg,stim/negf.jpg,stim/3.jpg,stim/6.jpg,stim/latef.jpg,AB,1,2,,,,,,,,,,,,,0,16,16,6,,,,,,2,1,0.733105928527,,,,,,2016_Feb_01_1650,P10,PLC_L_D1S1,NHGY,60.0177347916,
stim/posf.jpg,stim/negf.jpg,stim/2.jpg,stim/1.jpg,stim/latef.jpg,EF,1,2,,,,,,,,,,,,,0,17,17,40,,,,,,2,1,0.949692829377,,,,,,2016_Feb_01_1650,P10,PLC_L_D1S1,NHGY,60.0177347916,
stim/negf.jpg,stim/posf.jpg,stim/3.jpg,stim/6.jpg,stim/latef.jpg,AB,1,2,,,,,,,,,,,,,0,18,18,9,,,,,,2,1,0.966343765836,,,,,,2016_Feb_01_1650,P10,PLC_L_D1S1,NHGY,60.0177347916,
stim/posf.jpg,stim/negf.jpg,stim/1.jpg,stim/2.jpg,stim/latef.jpg,EF,2,4,,,,,,,,,,,,,0,19,19,55,,,,,,4,1,0.799704636807,,,,,,2016_Feb_01_1650,P10,PLC_L_D1S1,NHGY,60.0177347916,
stim/posf.jpg,stim/negf.jpg,stim/1.jpg,stim/2.jpg,stim/latef.jpg,EF,2,4,,,,,,,,,,,,,0,20,20,54,,,,,,4,1,0.899647719942,,,,,,2016_Feb_01_1650,P10,PLC_L_D1S1,NHGY,60.0177347916,
stim/negf.jpg,stim/posf.jpg,stim/4.jpg,stim/5.jpg,stim/latef.jpg,CD,2,4,,,,,,,,,,,,,0,21,21,37,,,,,,4,1,0.916339654589,,,,,,2016_Feb_01_1650,P10,PLC_L_D1S1,NHGY,60.0177347916,
stim/posf.jpg,stim/negf.jpg,stim/3.jpg,stim/6.jpg,stim/latef.jpg,AB,1,2,,,,,,,,,,,,,0,22,22,1,,,,,,2,1,1.01629160382,,,,,,2016_Feb_01_1650,P10,PLC_L_D1S1,NHGY,60.0177347916,
stim/posf.jpg,stim/negf.jpg,stim/1.jpg,stim/2.jpg,stim/latef.jpg,EF,2,4,,,,,,,,,,,,,0,23,23,50,,,,,,4,1,0.716436053865,,,,,,2016_Feb_01_1650,P10,PLC_L_D1S1,NHGY,60.0177347916,
stim/negf.jpg,stim/posf.jpg,stim/4.jpg,stim/5.jpg,stim/latef.jpg,CD,2,4,,,,,,,,,,,,,0,24,24,39,,,,,,4,1,0.699817020924,,,,,,2016_Feb_01_1650,P10,PLC_L_D1S1,NHGY,60.0177347916,
stim/negf.jpg,stim/posf.jpg,stim/2.jpg,stim/1.jpg,stim/latef.jpg,EF,1,2,,,,,,,,,,,,,0,25,25,49,,,,,,2,1,0.749743577868,,,,,,2016_Feb_01_1650,P10,PLC_L_D1S1,NHGY,60.0177347916,
stim/negf.jpg,stim/posf.jpg,stim/2.jpg,stim/1.jpg,stim/latef.jpg,EF,1,2,,,,,,,,,,,,,0,26,26,47,,,,,,2,1,0.666426339651,,,,,,2016_Feb_01_1650,P10,PLC_L_D1S1,NHGY,60.0177347916,
stim/posf.jpg,stim/negf.jpg,stim/3.jpg,stim/6.jpg,stim/latef.jpg,AB,1,2,,,,,,,,,,,,,0,27,27,7,,,,,,2,1,0.982922744942,,,,,,2016_Feb_01_1650,P10,PLC_L_D1S1,NHGY,60.0177347916,
stim/posf.jpg,stim/negf.jpg,stim/5.jpg,stim/4.jpg,stim/latef.jpg,CD,1,2,,,,,,,,,,,,,0,28,28,22,,,,,,2,1,0.866371825776,,,,,,2016_Feb_01_1650,P10,PLC_L_D1S1,NHGY,60.0177347916,
stim/posf.jpg,stim/negf.jpg,stim/5.jpg,stim/4.jpg,stim/latef.jpg,CD,1,2,,,,,,,,,,,,,0,29,29,25,,,,,,2,1,0.716420721649,,,,,,2016_Feb_01_1650,P10,PLC_L_D1S1,NHGY,60.0177347916,
stim/negf.jpg,stim/posf.jpg,stim/3.jpg,stim/6.jpg,stim/latef.jpg,AB,1,2,,,,,,,,,,,,,0,30,30,8,,,,,,2,1,0.683117179569,,,,,,2016_Feb_01_1650,P10,PLC_L_D1S1,NHGY,60.0177347916,
stim/negf.jpg,stim/posf.jpg,stim/2.jpg,stim/1.jpg,stim/latef.jpg,EF,1,2,,,,,,,,,,,,,0,31,31,48,,,,,,2,1,0.849714281848,,,,,,2016_Feb_01_1650,P10,PLC_L_D1S1,NHGY,60.0177347916,
stim/posf.jpg,stim/negf.jpg,stim/2.jpg,stim/1.jpg,stim/latef.jpg,EF,1,2,,,,,,,,,,,,,0,32,32,43,,,,,,2,1,0.683098767679,,,,,,2016_Feb_01_1650,P10,PLC_L_D1S1,NHGY,60.0177347916,
stim/posf.jpg,stim/negf.jpg,stim/3.jpg,stim/6.jpg,stim/latef.jpg,AB,1,2,,,,,,,,,,,,,0,33,33,5,,,,,,2,1,1.19960923301,,,,,,2016_Feb_01_1650,P10,PLC_L_D1S1,NHGY,60.0177347916,
stim/posf.jpg,stim/negf.jpg,stim/5.jpg,stim/4.jpg,stim/latef.jpg,CD,1,2,,,,,,,,,,,,,0,34,34,26,,,,,,2,1,0.766392162464,,,,,,2016_Feb_01_1650,P10,PLC_L_D1S1,NHGY,60.0177347916,
stim/posf.jpg,stim/negf.jpg,stim/3.jpg,stim/6.jpg,stim/latef.jpg,AB,1,2,,,,,,,,,,,,,0,35,35,0,,,,,,2,1,1.14962090511,,,,,,2016_Feb_01_1650,P10,PLC_L_D1S1,NHGY,60.0177347916,
stim/posf.jpg,stim/negf.jpg,stim/3.jpg,stim/6.jpg,stim/latef.jpg,AB,1,2,,,,,,,,,,,,,0,36,36,4,,,,,,2,1,0.633096373711,,,,,,2016_Feb_01_1650,P10,PLC_L_D1S1,NHGY,60.0177347916,
stim/posf.jpg,stim/negf.jpg,stim/2.jpg,stim/1.jpg,stim/latef.jpg,EF,1,2,,,,,,,,,,,,,0,37,37,41,,,,,,2,1,0.766405996947,,,,,,2016_Feb_01_1650,P10,PLC_L_D1S1,NHGY,60.0177347916,
stim/posf.jpg,stim/negf.jpg,stim/1.jpg,stim/2.jpg,stim/latef.jpg,EF,2,4,,,,,,,,,,,,,0,38,38,53,,,,,,4,1,0.966347398892,,,,,,2016_Feb_01_1650,P10,PLC_L_D1S1,NHGY,60.0177347916,
stim/negf.jpg,stim/posf.jpg,stim/2.jpg,stim/1.jpg,stim/latef.jpg,EF,1,2,,,,,,,,,,,,,0,39,39,46,,,,,,2,1,0.516488435425,,,,,,2016_Feb_01_1650,P10,PLC_L_D1S1,NHGY,60.0177347916,
stim/posf.jpg,stim/negf.jpg,stim/3.jpg,stim/6.jpg,stim/latef.jpg,AB,1,2,,,,,,,,,,,,,0,40,40,3,,,,,,2,1,0.816395407553,,,,,,2016_Feb_01_1650,P10,PLC_L_D1S1,NHGY,60.0177347916,
stim/posf.jpg,stim/negf.jpg,stim/6.jpg,stim/3.jpg,stim/latef.jpg,AB,2,4,,,,,,,,,,,,,0,41,41,11,,,,,,4,1,1.13294506056,,,,,,2016_Feb_01_1650,P10,PLC_L_D1S1,NHGY,60.0177347916,
stim/negf.jpg,stim/posf.jpg,stim/5.jpg,stim/4.jpg,stim/latef.jpg,CD,1,2,,,,,,,,,,,,,0,42,42,28,,,,,,2,1,0.64976941226,,,,,,2016_Feb_01_1650,P10,PLC_L_D1S1,NHGY,60.0177347916,
stim/negf.jpg,stim/posf.jpg,stim/1.jpg,stim/2.jpg,stim/latef.jpg,EF,2,4,,,,,,,,,,,,,0,43,43,59,,,,,,4,1,0.833066452132,,,,,,2016_Feb_01_1650,P10,PLC_L_D1S1,NHGY,60.0177347916,
stim/posf.jpg,stim/negf.jpg,stim/4.jpg,stim/5.jpg,stim/latef.jpg,CD,2,4,,,,,,,,,,,,,0,44,44,32,,,,,,4,1,0.883047637236,,,,,,2016_Feb_01_1650,P10,PLC_L_D1S1,NHGY,60.0177347916,
stim/posf.jpg,stim/negf.jpg,stim/4.jpg,stim/5.jpg,stim/latef.jpg,CD,2,4,,,,,,,,,,,,,0,45,45,36,,,,,,4,1,0.699807156337,,,,,,2016_Feb_01_1650,P10,PLC_L_D1S1,NHGY,60.0177347916,
stim/posf.jpg,stim/negf.jpg,stim/6.jpg,stim/3.jpg,stim/latef.jpg,AB,2,4,,,,,,,,,,,,,0,46,46,13,,,,,,4,1,0.733091387283,,,,,,2016_Feb_01_1650,P10,PLC_L_D1S1,NHGY,60.0177347916,
stim/posf.jpg,stim/negf.jpg,stim/6.jpg,stim/3.jpg,stim/latef.jpg,AB,2,4,,,,,,,,,,,,,0,47,47,10,,,,,,4,1,0.716427900542,,,,,,2016_Feb_01_1650,P10,PLC_L_D1S1,NHGY,60.0177347916,
stim/posf.jpg,stim/negf.jpg,stim/6.jpg,stim/3.jpg,stim/latef.jpg,AB,2,4,,,,,,,,,,,,,0,48,48,17,,,,,,4,1,0.666433058398,,,,,,2016_Feb_01_1650,P10,PLC_L_D1S1,NHGY,60.0177347916,
stim/posf.jpg,stim/negf.jpg,stim/6.jpg,stim/3.jpg,stim/latef.jpg,AB,2,4,,,,,,,,,,,,,0,49,49,16,,,,,,4,1,0.46651832693,,,,,,2016_Feb_01_1650,P10,PLC_L_D1S1,NHGY,60.0177347916,
stim/posf.jpg,stim/negf.jpg,stim/5.jpg,stim/4.jpg,stim/latef.jpg,CD,1,2,,,,,,,,,,,,,0,50,50,24,,,,,,4,0,0.499845372591,,,,,,2016_Feb_01_1650,P10,PLC_L_D1S1,NHGY,60.0177347916,
stim/posf.jpg,stim/negf.jpg,stim/1.jpg,stim/2.jpg,stim/latef.jpg,EF,2,4,,,,,,,,,,,,,0,51,51,52,,,,,,4,1,0.966360490523,,,,,,2016_Feb_01_1650,P10,PLC_L_D1S1,NHGY,60.0177347916,
stim/posf.jpg,stim/negf.jpg,stim/4.jpg,stim/5.jpg,stim/latef.jpg,CD,2,4,,,,,,,,,,,,,0,52,52,33,,,,,,4,1,0.816417269043,,,,,,2016_Feb_01_1650,P10,PLC_L_D1S1,NHGY,60.0177347916,
stim/posf.jpg,stim/negf.jpg,stim/3.jpg,stim/6.jpg,stim/latef.jpg,AB,1,2,,,,,,,,,,,,,0,53,53,2,,,,,,2,1,1.03299087676,,,,,,2016_Feb_01_1650,P10,PLC_L_D1S1,NHGY,60.0177347916,
stim/negf.jpg,stim/posf.jpg,stim/1.jpg,stim/2.jpg,stim/latef.jpg,EF,2,4,,,,,,,,,,,,,0,54,54,56,,,,,,4,1,0.683082316674,,,,,,2016_Feb_01_1650,P10,PLC_L_D1S1,NHGY,60.0177347916,
stim/posf.jpg,stim/negf.jpg,stim/2.jpg,stim/1.jpg,stim/latef.jpg,EF,1,2,,,,,,,,,,,,,0,55,55,42,,,,,,2,1,0.633094433876,,,,,,2016_Feb_01_1650,P10,PLC_L_D1S1,NHGY,60.0177347916,
stim/negf.jpg,stim/posf.jpg,stim/4.jpg,stim/5.jpg,stim/latef.jpg,CD,2,4,,,,,,,,,,,,,0,56,56,38,,,,,,4,1,0.883039219254,,,,,,2016_Feb_01_1650,P10,PLC_L_D1S1,NHGY,60.0177347916,
stim/posf.jpg,stim/negf.jpg,stim/5.jpg,stim/4.jpg,stim/latef.jpg,CD,1,2,,,,,,,,,,,,,0,57,57,20,,,,,,2,1,0.63314958835,,,,,,2016_Feb_01_1650,P10,PLC_L_D1S1,NHGY,60.0177347916,
stim/negf.jpg,stim/posf.jpg,stim/1.jpg,stim/2.jpg,stim/latef.jpg,EF,2,4,,,,,,,,,,,,,0,58,58,58,,,,,,4,1,0.699763270953,,,,,,2016_Feb_01_1650,P10,PLC_L_D1S1,NHGY,60.0177347916,
stim/posf.jpg,stim/negf.jpg,stim/4.jpg,stim/5.jpg,stim/latef.jpg,CD,2,4,,,,,,,,,,,,,0,59,59,31,,,,,,4,1,0.849687698589,,,,,,2016_Feb_01_1650,P10,PLC_L_D1S1,NHGY,60.0177347916,
