fb_corr,fb_incorr,symbol2,symbol1,fb_late,pair,position,correct,block_01.thisRepN,block_01.thisTrialN,block_01.thisN,block_01.thisIndex,block_02.thisRepN,block_02.thisTrialN,block_02.thisN,block_02.thisIndex,block_03.thisRepN,block_03.thisTrialN,block_03.thisN,block_03.thisIndex,block_04.thisRepN,block_04.thisTrialN,block_04.thisN,block_04.thisIndex,mouse.x,mouse.y,mouse.leftButton,mouse.midButton,mouse.rightButton,buttonBox_2.keys,buttonBox_2.corr,buttonBox_2.rt,mouse_2.x,mouse_2.y,mouse_2.leftButton,mouse_2.midButton,mouse_2.rightButton,date,Participant,expName,Group,frameRate,
,,,,,,,,,,,,,,,,,,,,,,,,0.9984375,-0.025390625,1,0,0,,,,,,,,,2016_Feb_02_1455,P12,PLC_L_D1S1,NHGY,60.0182396314,
stim/posf.jpg,stim/negf.jpg,stim/5.jpg,stim/3.jpg,stim/latef.jpg,EF,1,2,0,0,0,42,,,,,,,,,,,,,,,,,,2,1,1.1995974737,,,,,,2016_Feb_02_1455,P12,PLC_L_D1S1,NHGY,60.0182396314,
stim/posf.jpg,stim/negf.jpg,stim/2.jpg,stim/4.jpg,stim/latef.jpg,AB,1,2,0,1,1,6,,,,,,,,,,,,,,,,,,None,0,,,,,,,2016_Feb_02_1455,P12,PLC_L_D1S1,NHGY,60.0182396314,
stim/posf.jpg,stim/negf.jpg,stim/2.jpg,stim/4.jpg,stim/latef.jpg,AB,1,2,0,2,2,1,,,,,,,,,,,,,,,,,,2,1,0.799741195931,,,,,,2016_Feb_02_1455,P12,PLC_L_D1S1,NHGY,60.0182396314,
stim/negf.jpg,stim/posf.jpg,stim/6.jpg,stim/1.jpg,stim/latef.jpg,CD,2,4,0,3,3,39,,,,,,,,,,,,,,,,,,4,1,0.949705857851,,,,,,2016_Feb_02_1455,P12,PLC_L_D1S1,NHGY,60.0182396314,
stim/posf.jpg,stim/negf.jpg,stim/2.jpg,stim/4.jpg,stim/latef.jpg,AB,1,2,0,4,4,7,,,,,,,,,,,,,,,,,,2,1,0.766415750258,,,,,,2016_Feb_02_1455,P12,PLC_L_D1S1,NHGY,60.0182396314,
stim/posf.jpg,stim/negf.jpg,stim/4.jpg,stim/2.jpg,stim/latef.jpg,AB,2,4,0,5,5,16,,,,,,,,,,,,,,,,,,4,1,1.26625362215,,,,,,2016_Feb_02_1455,P12,PLC_L_D1S1,NHGY,60.0182396314,
stim/posf.jpg,stim/negf.jpg,stim/6.jpg,stim/1.jpg,stim/latef.jpg,CD,2,4,0,6,6,31,,,,,,,,,,,,,,,,,,2,0,1.3661865189,,,,,,2016_Feb_02_1455,P12,PLC_L_D1S1,NHGY,60.0182396314,
stim/posf.jpg,stim/negf.jpg,stim/6.jpg,stim/1.jpg,stim/latef.jpg,CD,2,4,0,7,7,30,,,,,,,,,,,,,,,,,,4,1,1.14962116676,,,,,,2016_Feb_02_1455,P12,PLC_L_D1S1,NHGY,60.0182396314,
stim/negf.jpg,stim/posf.jpg,stim/1.jpg,stim/6.jpg,stim/latef.jpg,CD,1,2,0,8,8,29,,,,,,,,,,,,,,,,,,2,1,1.24958025579,,,,,,2016_Feb_02_1455,P12,PLC_L_D1S1,NHGY,60.0182396314,
stim/posf.jpg,stim/negf.jpg,stim/3.jpg,stim/5.jpg,stim/latef.jpg,EF,2,4,0,9,9,53,,,,,,,,,,,,,,,,,,4,1,1.19958481215,,,,,,2016_Feb_02_1455,P12,PLC_L_D1S1,NHGY,60.0182396314,
stim/posf.jpg,stim/negf.jpg,stim/3.jpg,stim/5.jpg,stim/latef.jpg,EF,2,4,0,10,10,50,,,,,,,,,,,,,,,,,,4,1,0.866363085992,,,,,,2016_Feb_02_1455,P12,PLC_L_D1S1,NHGY,60.0182396314,
stim/negf.jpg,stim/posf.jpg,stim/2.jpg,stim/4.jpg,stim/latef.jpg,AB,1,2,0,11,11,9,,,,,,,,,,,,,,,,,,2,1,0.783048906399,,,,,,2016_Feb_02_1455,P12,PLC_L_D1S1,NHGY,60.0182396314,
stim/posf.jpg,stim/negf.jpg,stim/1.jpg,stim/6.jpg,stim/latef.jpg,CD,1,2,0,12,12,26,,,,,,,,,,,,,,,,,,2,1,1.23288708205,,,,,,2016_Feb_02_1455,P12,PLC_L_D1S1,NHGY,60.0182396314,
stim/posf.jpg,stim/negf.jpg,stim/4.jpg,stim/2.jpg,stim/latef.jpg,AB,2,4,0,13,13,10,,,,,,,,,,,,,,,,,,4,1,1.09963870046,,,,,,2016_Feb_02_1455,P12,PLC_L_D1S1,NHGY,60.0182396314,
stim/posf.jpg,stim/negf.jpg,stim/3.jpg,stim/5.jpg,stim/latef.jpg,EF,2,4,0,14,14,54,,,,,,,,,,,,,,,,,,4,1,1.31622649755,,,,,,2016_Feb_02_1455,P12,PLC_L_D1S1,NHGY,60.0182396314,
stim/posf.jpg,stim/negf.jpg,stim/3.jpg,stim/5.jpg,stim/latef.jpg,EF,2,4,0,15,15,51,,,,,,,,,,,,,,,,,,4,1,0.649818717153,,,,,,2016_Feb_02_1455,P12,PLC_L_D1S1,NHGY,60.0182396314,
stim/posf.jpg,stim/negf.jpg,stim/5.jpg,stim/3.jpg,stim/latef.jpg,EF,1,2,0,16,16,43,,,,,,,,,,,,,,,,,,2,1,0.73309972707,,,,,,2016_Feb_02_1455,P12,PLC_L_D1S1,NHGY,60.0182396314,
stim/posf.jpg,stim/negf.jpg,stim/6.jpg,stim/1.jpg,stim/latef.jpg,CD,2,4,0,17,17,33,,,,,,,,,,,,,,,,,,4,1,1.49947978136,,,,,,2016_Feb_02_1455,P12,PLC_L_D1S1,NHGY,60.0182396314,
stim/posf.jpg,stim/negf.jpg,stim/3.jpg,stim/5.jpg,stim/latef.jpg,EF,2,4,0,18,18,55,,,,,,,,,,,,,,,,,,4,1,1.13298195953,,,,,,2016_Feb_02_1455,P12,PLC_L_D1S1,NHGY,60.0182396314,
stim/posf.jpg,stim/negf.jpg,stim/4.jpg,stim/2.jpg,stim/latef.jpg,AB,2,4,0,19,19,11,,,,,,,,,,,,,,,,,,4,1,1.31625234697,,,,,,2016_Feb_02_1455,P12,PLC_L_D1S1,NHGY,60.0182396314,
stim/negf.jpg,stim/posf.jpg,stim/3.jpg,stim/5.jpg,stim/latef.jpg,EF,2,4,0,20,20,56,,,,,,,,,,,,,,,,,,4,1,1.19961276682,,,,,,2016_Feb_02_1455,P12,PLC_L_D1S1,NHGY,60.0182396314,
stim/posf.jpg,stim/negf.jpg,stim/2.jpg,stim/4.jpg,stim/latef.jpg,AB,1,2,0,21,21,4,,,,,,,,,,,,,,,,,,2,1,1.03299664815,,,,,,2016_Feb_02_1455,P12,PLC_L_D1S1,NHGY,60.0182396314,
stim/negf.jpg,stim/posf.jpg,stim/4.jpg,stim/2.jpg,stim/latef.jpg,AB,2,4,0,22,22,18,,,,,,,,,,,,,,,,,,4,1,0.733046768069,,,,,,2016_Feb_02_1455,P12,PLC_L_D1S1,NHGY,60.0182396314,
stim/negf.jpg,stim/posf.jpg,stim/3.jpg,stim/5.jpg,stim/latef.jpg,EF,2,4,0,23,23,57,,,,,,,,,,,,,,,,,,4,1,0.599777315961,,,,,,2016_Feb_02_1455,P12,PLC_L_D1S1,NHGY,60.0182396314,
stim/posf.jpg,stim/negf.jpg,stim/6.jpg,stim/1.jpg,stim/latef.jpg,CD,2,4,0,24,24,35,,,,,,,,,,,,,,,,,,4,1,1.09961326607,,,,,,2016_Feb_02_1455,P12,PLC_L_D1S1,NHGY,60.0182396314,
stim/negf.jpg,stim/posf.jpg,stim/6.jpg,stim/1.jpg,stim/latef.jpg,CD,2,4,0,25,25,38,,,,,,,,,,,,,,,,,,4,1,1.09979421508,,,,,,2016_Feb_02_1455,P12,PLC_L_D1S1,NHGY,60.0182396314,
stim/posf.jpg,stim/negf.jpg,stim/4.jpg,stim/2.jpg,stim/latef.jpg,AB,2,4,0,26,26,12,,,,,,,,,,,,,,,,,,4,1,1.31622669003,,,,,,2016_Feb_02_1455,P12,PLC_L_D1S1,NHGY,60.0182396314,
stim/posf.jpg,stim/negf.jpg,stim/1.jpg,stim/6.jpg,stim/latef.jpg,CD,1,2,0,27,27,25,,,,,,,,,,,,,,,,,,2,1,1.19960299547,,,,,,2016_Feb_02_1455,P12,PLC_L_D1S1,NHGY,60.0182396314,
stim/posf.jpg,stim/negf.jpg,stim/2.jpg,stim/4.jpg,stim/latef.jpg,AB,1,2,0,28,28,0,,,,,,,,,,,,,,,,,,2,1,1.16629503538,,,,,,2016_Feb_02_1455,P12,PLC_L_D1S1,NHGY,60.0182396314,
stim/negf.jpg,stim/posf.jpg,stim/1.jpg,stim/6.jpg,stim/latef.jpg,CD,1,2,0,29,29,28,,,,,,,,,,,,,,,,,,2,1,0.982987604605,,,,,,2016_Feb_02_1455,P12,PLC_L_D1S1,NHGY,60.0182396314,
stim/posf.jpg,stim/negf.jpg,stim/6.jpg,stim/1.jpg,stim/latef.jpg,CD,2,4,0,30,30,32,,,,,,,,,,,,,,,,,,4,1,0.866378033248,,,,,,2016_Feb_02_1455,P12,PLC_L_D1S1,NHGY,60.0182396314,
stim/posf.jpg,stim/negf.jpg,stim/2.jpg,stim/4.jpg,stim/latef.jpg,AB,1,2,0,31,31,2,,,,,,,,,,,,,,,,,,2,1,1.19966945812,,,,,,2016_Feb_02_1455,P12,PLC_L_D1S1,NHGY,60.0182396314,
stim/posf.jpg,stim/negf.jpg,stim/1.jpg,stim/6.jpg,stim/latef.jpg,CD,1,2,0,32,32,20,,,,,,,,,,,,,,,,,,2,1,1.19960729318,,,,,,2016_Feb_02_1455,P12,PLC_L_D1S1,NHGY,60.0182396314,
stim/negf.jpg,stim/posf.jpg,stim/3.jpg,stim/5.jpg,stim/latef.jpg,EF,2,4,0,33,33,59,,,,,,,,,,,,,,,,,,4,1,0.91542286449,,,,,,2016_Feb_02_1455,P12,PLC_L_D1S1,NHGY,60.0182396314,
stim/posf.jpg,stim/negf.jpg,stim/5.jpg,stim/3.jpg,stim/latef.jpg,EF,1,2,0,34,34,40,,,,,,,,,,,,,,,,,,None,0,,,,,,,2016_Feb_02_1455,P12,PLC_L_D1S1,NHGY,60.0182396314,
stim/posf.jpg,stim/negf.jpg,stim/6.jpg,stim/1.jpg,stim/latef.jpg,CD,2,4,0,35,35,34,,,,,,,,,,,,,,,,,,4,1,0.883050855256,,,,,,2016_Feb_02_1455,P12,PLC_L_D1S1,NHGY,60.0182396314,
stim/posf.jpg,stim/negf.jpg,stim/5.jpg,stim/3.jpg,stim/latef.jpg,EF,1,2,0,36,36,45,,,,,,,,,,,,,,,,,,2,1,0.899660170976,,,,,,2016_Feb_02_1455,P12,PLC_L_D1S1,NHGY,60.0182396314,
stim/negf.jpg,stim/posf.jpg,stim/2.jpg,stim/4.jpg,stim/latef.jpg,AB,1,2,0,37,37,8,,,,,,,,,,,,,,,,,,2,1,0.98303222081,,,,,,2016_Feb_02_1455,P12,PLC_L_D1S1,NHGY,60.0182396314,
stim/negf.jpg,stim/posf.jpg,stim/1.jpg,stim/6.jpg,stim/latef.jpg,CD,1,2,0,38,38,27,,,,,,,,,,,,,,,,,,2,1,1.01634490568,,,,,,2016_Feb_02_1455,P12,PLC_L_D1S1,NHGY,60.0182396314,
stim/posf.jpg,stim/negf.jpg,stim/4.jpg,stim/2.jpg,stim/latef.jpg,AB,2,4,0,39,39,17,,,,,,,,,,,,,,,,,,4,1,1.53279913685,,,,,,2016_Feb_02_1455,P12,PLC_L_D1S1,NHGY,60.0182396314,
stim/negf.jpg,stim/posf.jpg,stim/5.jpg,stim/3.jpg,stim/latef.jpg,EF,1,2,0,40,40,47,,,,,,,,,,,,,,,,,,4,0,1.46618261517,,,,,,2016_Feb_02_1455,P12,PLC_L_D1S1,NHGY,60.0182396314,
stim/posf.jpg,stim/negf.jpg,stim/4.jpg,stim/2.jpg,stim/latef.jpg,AB,2,4,0,41,41,15,,,,,,,,,,,,,,,,,,4,1,0.966343221479,,,,,,2016_Feb_02_1455,P12,PLC_L_D1S1,NHGY,60.0182396314,
stim/posf.jpg,stim/negf.jpg,stim/1.jpg,stim/6.jpg,stim/latef.jpg,CD,1,2,0,42,42,21,,,,,,,,,,,,,,,,,,2,1,0.816407912723,,,,,,2016_Feb_02_1455,P12,PLC_L_D1S1,NHGY,60.0182396314,
stim/posf.jpg,stim/negf.jpg,stim/5.jpg,stim/3.jpg,stim/latef.jpg,EF,1,2,0,43,43,41,,,,,,,,,,,,,,,,,,2,1,1.13294061248,,,,,,2016_Feb_02_1455,P12,PLC_L_D1S1,NHGY,60.0182396314,
stim/posf.jpg,stim/negf.jpg,stim/3.jpg,stim/5.jpg,stim/latef.jpg,EF,2,4,0,44,44,52,,,,,,,,,,,,,,,,,,2,0,1.28291166232,,,,,,2016_Feb_02_1455,P12,PLC_L_D1S1,NHGY,60.0182396314,
stim/posf.jpg,stim/negf.jpg,stim/1.jpg,stim/6.jpg,stim/latef.jpg,CD,1,2,0,45,45,24,,,,,,,,,,,,,,,,,,2,1,1.34949928497,,,,,,2016_Feb_02_1455,P12,PLC_L_D1S1,NHGY,60.0182396314,
stim/posf.jpg,stim/negf.jpg,stim/1.jpg,stim/6.jpg,stim/latef.jpg,CD,1,2,0,46,46,23,,,,,,,,,,,,,,,,,,2,1,0.866364165682,,,,,,2016_Feb_02_1455,P12,PLC_L_D1S1,NHGY,60.0182396314,
stim/negf.jpg,stim/posf.jpg,stim/3.jpg,stim/5.jpg,stim/latef.jpg,EF,2,4,0,47,47,58,,,,,,,,,,,,,,,,,,4,1,0.916365161164,,,,,,2016_Feb_02_1455,P12,PLC_L_D1S1,NHGY,60.0182396314,
stim/posf.jpg,stim/negf.jpg,stim/4.jpg,stim/2.jpg,stim/latef.jpg,AB,2,4,0,48,48,13,,,,,,,,,,,,,,,,,,2,0,0.949689593312,,,,,,2016_Feb_02_1455,P12,PLC_L_D1S1,NHGY,60.0182396314,
stim/posf.jpg,stim/negf.jpg,stim/2.jpg,stim/4.jpg,stim/latef.jpg,AB,1,2,0,49,49,5,,,,,,,,,,,,,,,,,,None,0,,,,,,,2016_Feb_02_1455,P12,PLC_L_D1S1,NHGY,60.0182396314,
stim/posf.jpg,stim/negf.jpg,stim/4.jpg,stim/2.jpg,stim/latef.jpg,AB,2,4,0,50,50,14,,,,,,,,,,,,,,,,,,2,0,0.799723532906,,,,,,2016_Feb_02_1455,P12,PLC_L_D1S1,NHGY,60.0182396314,
stim/posf.jpg,stim/negf.jpg,stim/2.jpg,stim/4.jpg,stim/latef.jpg,AB,1,2,0,51,51,3,,,,,,,,,,,,,,,,,,2,1,0.999673160351,,,,,,2016_Feb_02_1455,P12,PLC_L_D1S1,NHGY,60.0182396314,
stim/negf.jpg,stim/posf.jpg,stim/4.jpg,stim/2.jpg,stim/latef.jpg,AB,2,4,0,52,52,19,,,,,,,,,,,,,,,,,,4,1,0.966419281058,,,,,,2016_Feb_02_1455,P12,PLC_L_D1S1,NHGY,60.0182396314,
stim/posf.jpg,stim/negf.jpg,stim/5.jpg,stim/3.jpg,stim/latef.jpg,EF,1,2,0,53,53,44,,,,,,,,,,,,,,,,,,2,1,0.799736934308,,,,,,2016_Feb_02_1455,P12,PLC_L_D1S1,NHGY,60.0182396314,
stim/posf.jpg,stim/negf.jpg,stim/6.jpg,stim/1.jpg,stim/latef.jpg,CD,2,4,0,54,54,36,,,,,,,,,,,,,,,,,,4,1,0.883075315223,,,,,,2016_Feb_02_1455,P12,PLC_L_D1S1,NHGY,60.0182396314,
stim/posf.jpg,stim/negf.jpg,stim/1.jpg,stim/6.jpg,stim/latef.jpg,CD,1,2,0,55,55,22,,,,,,,,,,,,,,,,,,2,1,0.633125826122,,,,,,2016_Feb_02_1455,P12,PLC_L_D1S1,NHGY,60.0182396314,
stim/negf.jpg,stim/posf.jpg,stim/5.jpg,stim/3.jpg,stim/latef.jpg,EF,1,2,0,56,56,46,,,,,,,,,,,,,,,,,,2,1,0.816402153368,,,,,,2016_Feb_02_1455,P12,PLC_L_D1S1,NHGY,60.0182396314,
stim/negf.jpg,stim/posf.jpg,stim/5.jpg,stim/3.jpg,stim/latef.jpg,EF,1,2,0,57,57,48,,,,,,,,,,,,,,,,,,4,0,1.24954072826,,,,,,2016_Feb_02_1455,P12,PLC_L_D1S1,NHGY,60.0182396314,
stim/negf.jpg,stim/posf.jpg,stim/6.jpg,stim/1.jpg,stim/latef.jpg,CD,2,4,0,58,58,37,,,,,,,,,,,,,,,,,,4,1,0.683052716897,,,,,,2016_Feb_02_1455,P12,PLC_L_D1S1,NHGY,60.0182396314,
stim/negf.jpg,stim/posf.jpg,stim/5.jpg,stim/3.jpg,stim/latef.jpg,EF,1,2,0,59,59,49,,,,,,,,,,,,,,,,,,2,1,0.79973809821,,,,,,2016_Feb_02_1455,P12,PLC_L_D1S1,NHGY,60.0182396314,
,,,,,,,,,,,,,,,,,,,,,,,,,,,,,,,,0.9984375,-0.025390625,1,0,0,2016_Feb_02_1455,P12,PLC_L_D1S1,NHGY,60.0182396314,
stim/negf.jpg,stim/posf.jpg,stim/2.jpg,stim/4.jpg,stim/latef.jpg,AB,1,2,,,,,0,0,0,9,,,,,,,,,,,,,,2,1,1.08296680777,,,,,,2016_Feb_02_1455,P12,PLC_L_D1S1,NHGY,60.0182396314,
stim/posf.jpg,stim/negf.jpg,stim/2.jpg,stim/4.jpg,stim/latef.jpg,AB,1,2,,,,,0,1,1,7,,,,,,,,,,,,,,4,0,0.966356367246,,,,,,2016_Feb_02_1455,P12,PLC_L_D1S1,NHGY,60.0182396314,
stim/posf.jpg,stim/negf.jpg,stim/5.jpg,stim/3.jpg,stim/latef.jpg,EF,1,2,,,,,0,2,2,44,,,,,,,,,,,,,,2,1,1.08290854354,,,,,,2016_Feb_02_1455,P12,PLC_L_D1S1,NHGY,60.0182396314,
stim/negf.jpg,stim/posf.jpg,stim/5.jpg,stim/3.jpg,stim/latef.jpg,EF,1,2,,,,,0,3,3,49,,,,,,,,,,,,,,2,1,0.633063204035,,,,,,2016_Feb_02_1455,P12,PLC_L_D1S1,NHGY,60.0182396314,
stim/posf.jpg,stim/negf.jpg,stim/6.jpg,stim/1.jpg,stim/latef.jpg,CD,2,4,,,,,0,4,4,36,,,,,,,,,,,,,,4,1,0.716331997503,,,,,,2016_Feb_02_1455,P12,PLC_L_D1S1,NHGY,60.0182396314,
stim/posf.jpg,stim/negf.jpg,stim/3.jpg,stim/5.jpg,stim/latef.jpg,EF,2,4,,,,,0,5,5,55,,,,,,,,,,,,,,2,0,1.19961228562,,,,,,2016_Feb_02_1455,P12,PLC_L_D1S1,NHGY,60.0182396314,
stim/posf.jpg,stim/negf.jpg,stim/5.jpg,stim/3.jpg,stim/latef.jpg,EF,1,2,,,,,0,6,6,45,,,,,,,,,,,,,,2,1,0.899688531665,,,,,,2016_Feb_02_1455,P12,PLC_L_D1S1,NHGY,60.0182396314,
stim/posf.jpg,stim/negf.jpg,stim/6.jpg,stim/1.jpg,stim/latef.jpg,CD,2,4,,,,,0,7,7,32,,,,,,,,,,,,,,4,1,0.566472101714,,,,,,2016_Feb_02_1455,P12,PLC_L_D1S1,NHGY,60.0182396314,
stim/posf.jpg,stim/negf.jpg,stim/1.jpg,stim/6.jpg,stim/latef.jpg,CD,1,2,,,,,0,8,8,20,,,,,,,,,,,,,,2,1,0.549818410388,,,,,,2016_Feb_02_1455,P12,PLC_L_D1S1,NHGY,60.0182396314,
stim/posf.jpg,stim/negf.jpg,stim/4.jpg,stim/2.jpg,stim/latef.jpg,AB,2,4,,,,,0,9,9,17,,,,,,,,,,,,,,4,1,1.44953017496,,,,,,2016_Feb_02_1455,P12,PLC_L_D1S1,NHGY,60.0182396314,
stim/negf.jpg,stim/posf.jpg,stim/1.jpg,stim/6.jpg,stim/latef.jpg,CD,1,2,,,,,0,10,10,27,,,,,,,,,,,,,,2,1,0.866407587913,,,,,,2016_Feb_02_1455,P12,PLC_L_D1S1,NHGY,60.0182396314,
stim/posf.jpg,stim/negf.jpg,stim/5.jpg,stim/3.jpg,stim/latef.jpg,EF,1,2,,,,,0,11,11,43,,,,,,,,,,,,,,2,1,0.966398962414,,,,,,2016_Feb_02_1455,P12,PLC_L_D1S1,NHGY,60.0182396314,
stim/posf.jpg,stim/negf.jpg,stim/4.jpg,stim/2.jpg,stim/latef.jpg,AB,2,4,,,,,0,12,12,12,,,,,,,,,,,,,,4,1,0.499848539484,,,,,,2016_Feb_02_1455,P12,PLC_L_D1S1,NHGY,60.0182396314,
stim/posf.jpg,stim/negf.jpg,stim/5.jpg,stim/3.jpg,stim/latef.jpg,EF,1,2,,,,,0,13,13,41,,,,,,,,,,,,,,2,1,0.667427309569,,,,,,2016_Feb_02_1455,P12,PLC_L_D1S1,NHGY,60.0182396314,
stim/posf.jpg,stim/negf.jpg,stim/6.jpg,stim/1.jpg,stim/latef.jpg,CD,2,4,,,,,0,14,14,30,,,,,,,,,,,,,,4,1,0.649795658679,,,,,,2016_Feb_02_1455,P12,PLC_L_D1S1,NHGY,60.0182396314,
stim/posf.jpg,stim/negf.jpg,stim/4.jpg,stim/2.jpg,stim/latef.jpg,AB,2,4,,,,,0,15,15,11,,,,,,,,,,,,,,2,0,0.849714564552,,,,,,2016_Feb_02_1455,P12,PLC_L_D1S1,NHGY,60.0182396314,
stim/posf.jpg,stim/negf.jpg,stim/5.jpg,stim/3.jpg,stim/latef.jpg,EF,1,2,,,,,0,16,16,42,,,,,,,,,,,,,,2,1,1.26624119217,,,,,,2016_Feb_02_1455,P12,PLC_L_D1S1,NHGY,60.0182396314,
stim/posf.jpg,stim/negf.jpg,stim/4.jpg,stim/2.jpg,stim/latef.jpg,AB,2,4,,,,,0,17,17,15,,,,,,,,,,,,,,4,1,1.31626073187,,,,,,2016_Feb_02_1455,P12,PLC_L_D1S1,NHGY,60.0182396314,
stim/posf.jpg,stim/negf.jpg,stim/2.jpg,stim/4.jpg,stim/latef.jpg,AB,1,2,,,,,0,18,18,4,,,,,,,,,,,,,,2,1,0.999677418967,,,,,,2016_Feb_02_1455,P12,PLC_L_D1S1,NHGY,60.0182396314,
stim/negf.jpg,stim/posf.jpg,stim/1.jpg,stim/6.jpg,stim/latef.jpg,CD,1,2,,,,,0,19,19,29,,,,,,,,,,,,,,2,1,0.833099639852,,,,,,2016_Feb_02_1455,P12,PLC_L_D1S1,NHGY,60.0182396314,
stim/posf.jpg,stim/negf.jpg,stim/2.jpg,stim/4.jpg,stim/latef.jpg,AB,1,2,,,,,0,20,20,1,,,,,,,,,,,,,,4,0,1.06633028323,,,,,,2016_Feb_02_1455,P12,PLC_L_D1S1,NHGY,60.0182396314,
stim/posf.jpg,stim/negf.jpg,stim/1.jpg,stim/6.jpg,stim/latef.jpg,CD,1,2,,,,,0,21,21,23,,,,,,,,,,,,,,2,1,0.799722579529,,,,,,2016_Feb_02_1455,P12,PLC_L_D1S1,NHGY,60.0182396314,
stim/posf.jpg,stim/negf.jpg,stim/4.jpg,stim/2.jpg,stim/latef.jpg,AB,2,4,,,,,0,22,22,13,,,,,,,,,,,,,,4,1,1.23290845031,,,,,,2016_Feb_02_1455,P12,PLC_L_D1S1,NHGY,60.0182396314,
stim/posf.jpg,stim/negf.jpg,stim/3.jpg,stim/5.jpg,stim/latef.jpg,EF,2,4,,,,,0,23,23,52,,,,,,,,,,,,,,2,0,1.26624191698,,,,,,2016_Feb_02_1455,P12,PLC_L_D1S1,NHGY,60.0182396314,
stim/negf.jpg,stim/posf.jpg,stim/1.jpg,stim/6.jpg,stim/latef.jpg,CD,1,2,,,,,0,24,24,28,,,,,,,,,,,,,,2,1,0.999669437071,,,,,,2016_Feb_02_1455,P12,PLC_L_D1S1,NHGY,60.0182396314,
stim/negf.jpg,stim/posf.jpg,stim/5.jpg,stim/3.jpg,stim/latef.jpg,EF,1,2,,,,,0,25,25,46,,,,,,,,,,,,,,None,0,,,,,,,2016_Feb_02_1455,P12,PLC_L_D1S1,NHGY,60.0182396314,
stim/posf.jpg,stim/negf.jpg,stim/1.jpg,stim/6.jpg,stim/latef.jpg,CD,1,2,,,,,0,26,26,24,,,,,,,,,,,,,,2,1,0.633114563048,,,,,,2016_Feb_02_1455,P12,PLC_L_D1S1,NHGY,60.0182396314,
stim/posf.jpg,stim/negf.jpg,stim/1.jpg,stim/6.jpg,stim/latef.jpg,CD,1,2,,,,,0,27,27,22,,,,,,,,,,,,,,2,1,0.683116812655,,,,,,2016_Feb_02_1455,P12,PLC_L_D1S1,NHGY,60.0182396314,
stim/negf.jpg,stim/posf.jpg,stim/5.jpg,stim/3.jpg,stim/latef.jpg,EF,1,2,,,,,0,28,28,48,,,,,,,,,,,,,,2,1,0.916345495147,,,,,,2016_Feb_02_1455,P12,PLC_L_D1S1,NHGY,60.0182396314,
stim/negf.jpg,stim/posf.jpg,stim/5.jpg,stim/3.jpg,stim/latef.jpg,EF,1,2,,,,,0,29,29,47,,,,,,,,,,,,,,4,0,1.03300131578,,,,,,2016_Feb_02_1455,P12,PLC_L_D1S1,NHGY,60.0182396314,
stim/negf.jpg,stim/posf.jpg,stim/3.jpg,stim/5.jpg,stim/latef.jpg,EF,2,4,,,,,0,30,30,57,,,,,,,,,,,,,,4,1,0.849698651889,,,,,,2016_Feb_02_1455,P12,PLC_L_D1S1,NHGY,60.0182396314,
stim/posf.jpg,stim/negf.jpg,stim/6.jpg,stim/1.jpg,stim/latef.jpg,CD,2,4,,,,,0,31,31,34,,,,,,,,,,,,,,4,1,0.749737006488,,,,,,2016_Feb_02_1455,P12,PLC_L_D1S1,NHGY,60.0182396314,
stim/posf.jpg,stim/negf.jpg,stim/3.jpg,stim/5.jpg,stim/latef.jpg,EF,2,4,,,,,0,32,32,51,,,,,,,,,,,,,,2,0,0.69981491267,,,,,,2016_Feb_02_1455,P12,PLC_L_D1S1,NHGY,60.0182396314,
stim/posf.jpg,stim/negf.jpg,stim/2.jpg,stim/4.jpg,stim/latef.jpg,AB,1,2,,,,,0,33,33,3,,,,,,,,,,,,,,2,1,1.19958308584,,,,,,2016_Feb_02_1455,P12,PLC_L_D1S1,NHGY,60.0182396314,
stim/posf.jpg,stim/negf.jpg,stim/2.jpg,stim/4.jpg,stim/latef.jpg,AB,1,2,,,,,0,34,34,6,,,,,,,,,,,,,,2,1,0.949675569356,,,,,,2016_Feb_02_1455,P12,PLC_L_D1S1,NHGY,60.0182396314,
stim/posf.jpg,stim/negf.jpg,stim/6.jpg,stim/1.jpg,stim/latef.jpg,CD,2,4,,,,,0,35,35,35,,,,,,,,,,,,,,4,1,0.749763830348,,,,,,2016_Feb_02_1455,P12,PLC_L_D1S1,NHGY,60.0182396314,
stim/posf.jpg,stim/negf.jpg,stim/2.jpg,stim/4.jpg,stim/latef.jpg,AB,1,2,,,,,0,36,36,2,,,,,,,,,,,,,,2,1,1.39952812084,,,,,,2016_Feb_02_1455,P12,PLC_L_D1S1,NHGY,60.0182396314,
stim/negf.jpg,stim/posf.jpg,stim/4.jpg,stim/2.jpg,stim/latef.jpg,AB,2,4,,,,,0,37,37,19,,,,,,,,,,,,,,4,1,0.983053146969,,,,,,2016_Feb_02_1455,P12,PLC_L_D1S1,NHGY,60.0182396314,
stim/posf.jpg,stim/negf.jpg,stim/4.jpg,stim/2.jpg,stim/latef.jpg,AB,2,4,,,,,0,38,38,10,,,,,,,,,,,,,,4,1,0.7831139014,,,,,,2016_Feb_02_1455,P12,PLC_L_D1S1,NHGY,60.0182396314,
stim/negf.jpg,stim/posf.jpg,stim/6.jpg,stim/1.jpg,stim/latef.jpg,CD,2,4,,,,,0,39,39,38,,,,,,,,,,,,,,4,1,0.833046747017,,,,,,2016_Feb_02_1455,P12,PLC_L_D1S1,NHGY,60.0182396314,
stim/posf.jpg,stim/negf.jpg,stim/3.jpg,stim/5.jpg,stim/latef.jpg,EF,2,4,,,,,0,40,40,54,,,,,,,,,,,,,,2,0,1.39953142307,,,,,,2016_Feb_02_1455,P12,PLC_L_D1S1,NHGY,60.0182396314,
stim/posf.jpg,stim/negf.jpg,stim/2.jpg,stim/4.jpg,stim/latef.jpg,AB,1,2,,,,,0,41,41,0,,,,,,,,,,,,,,4,0,0.566498336103,,,,,,2016_Feb_02_1455,P12,PLC_L_D1S1,NHGY,60.0182396314,
stim/posf.jpg,stim/negf.jpg,stim/6.jpg,stim/1.jpg,stim/latef.jpg,CD,2,4,,,,,0,42,42,31,,,,,,,,,,,,,,4,1,0.666446306419,,,,,,2016_Feb_02_1455,P12,PLC_L_D1S1,NHGY,60.0182396314,
stim/posf.jpg,stim/negf.jpg,stim/4.jpg,stim/2.jpg,stim/latef.jpg,AB,2,4,,,,,0,43,43,16,,,,,,,,,,,,,,2,0,0.649793989519,,,,,,2016_Feb_02_1455,P12,PLC_L_D1S1,NHGY,60.0182396314,
stim/negf.jpg,stim/posf.jpg,stim/3.jpg,stim/5.jpg,stim/latef.jpg,EF,2,4,,,,,0,44,44,56,,,,,,,,,,,,,,2,0,0.84973581552,,,,,,2016_Feb_02_1455,P12,PLC_L_D1S1,NHGY,60.0182396314,
stim/negf.jpg,stim/posf.jpg,stim/4.jpg,stim/2.jpg,stim/latef.jpg,AB,2,4,,,,,0,45,45,18,,,,,,,,,,,,,,2,0,1.28286037849,,,,,,2016_Feb_02_1455,P12,PLC_L_D1S1,NHGY,60.0182396314,
stim/posf.jpg,stim/negf.jpg,stim/3.jpg,stim/5.jpg,stim/latef.jpg,EF,2,4,,,,,0,46,46,53,,,,,,,,,,,,,,4,1,1.03299207675,,,,,,2016_Feb_02_1455,P12,PLC_L_D1S1,NHGY,60.0182396314,
stim/posf.jpg,stim/negf.jpg,stim/2.jpg,stim/4.jpg,stim/latef.jpg,AB,1,2,,,,,0,47,47,5,,,,,,,,,,,,,,2,1,1.11629238878,,,,,,2016_Feb_02_1455,P12,PLC_L_D1S1,NHGY,60.0182396314,
stim/posf.jpg,stim/negf.jpg,stim/4.jpg,stim/2.jpg,stim/latef.jpg,AB,2,4,,,,,0,48,48,14,,,,,,,,,,,,,,4,1,1.03300566462,,,,,,2016_Feb_02_1455,P12,PLC_L_D1S1,NHGY,60.0182396314,
stim/posf.jpg,stim/negf.jpg,stim/5.jpg,stim/3.jpg,stim/latef.jpg,EF,1,2,,,,,0,49,49,40,,,,,,,,,,,,,,2,1,1.24958987978,,,,,,2016_Feb_02_1455,P12,PLC_L_D1S1,NHGY,60.0182396314,
stim/negf.jpg,stim/posf.jpg,stim/3.jpg,stim/5.jpg,stim/latef.jpg,EF,2,4,,,,,0,50,50,59,,,,,,,,,,,,,,4,1,0.883026308073,,,,,,2016_Feb_02_1455,P12,PLC_L_D1S1,NHGY,60.0182396314,
stim/negf.jpg,stim/posf.jpg,stim/6.jpg,stim/1.jpg,stim/latef.jpg,CD,2,4,,,,,0,51,51,39,,,,,,,,,,,,,,4,1,0.766469951354,,,,,,2016_Feb_02_1455,P12,PLC_L_D1S1,NHGY,60.0182396314,
stim/posf.jpg,stim/negf.jpg,stim/1.jpg,stim/6.jpg,stim/latef.jpg,CD,1,2,,,,,0,52,52,25,,,,,,,,,,,,,,2,1,0.899610481124,,,,,,2016_Feb_02_1455,P12,PLC_L_D1S1,NHGY,60.0182396314,
stim/posf.jpg,stim/negf.jpg,stim/1.jpg,stim/6.jpg,stim/latef.jpg,CD,1,2,,,,,0,53,53,21,,,,,,,,,,,,,,2,1,0.683076668597,,,,,,2016_Feb_02_1455,P12,PLC_L_D1S1,NHGY,60.0182396314,
stim/negf.jpg,stim/posf.jpg,stim/6.jpg,stim/1.jpg,stim/latef.jpg,CD,2,4,,,,,0,54,54,37,,,,,,,,,,,,,,4,1,0.666445635747,,,,,,2016_Feb_02_1455,P12,PLC_L_D1S1,NHGY,60.0182396314,
stim/posf.jpg,stim/negf.jpg,stim/3.jpg,stim/5.jpg,stim/latef.jpg,EF,2,4,,,,,0,55,55,50,,,,,,,,,,,,,,2,0,1.14965443568,,,,,,2016_Feb_02_1455,P12,PLC_L_D1S1,NHGY,60.0182396314,
stim/negf.jpg,stim/posf.jpg,stim/2.jpg,stim/4.jpg,stim/latef.jpg,AB,1,2,,,,,0,56,56,8,,,,,,,,,,,,,,2,1,1.08299177299,,,,,,2016_Feb_02_1455,P12,PLC_L_D1S1,NHGY,60.0182396314,
stim/posf.jpg,stim/negf.jpg,stim/6.jpg,stim/1.jpg,stim/latef.jpg,CD,2,4,,,,,0,57,57,33,,,,,,,,,,,,,,4,1,0.64978292494,,,,,,2016_Feb_02_1455,P12,PLC_L_D1S1,NHGY,60.0182396314,
stim/posf.jpg,stim/negf.jpg,stim/1.jpg,stim/6.jpg,stim/latef.jpg,CD,1,2,,,,,0,58,58,26,,,,,,,,,,,,,,2,1,0.8497301103,,,,,,2016_Feb_02_1455,P12,PLC_L_D1S1,NHGY,60.0182396314,
stim/negf.jpg,stim/posf.jpg,stim/3.jpg,stim/5.jpg,stim/latef.jpg,EF,2,4,,,,,0,59,59,58,,,,,,,,,,,,,,4,1,0.749733971925,,,,,,2016_Feb_02_1455,P12,PLC_L_D1S1,NHGY,60.0182396314,
,,,,,,,,,,,,,,,,,,,,,,,,,,,,,,,,0.9984375,-0.025390625,1,0,0,2016_Feb_02_1455,P12,PLC_L_D1S1,NHGY,60.0182396314,
stim/posf.jpg,stim/negf.jpg,stim/6.jpg,stim/1.jpg,stim/latef.jpg,CD,2,4,,,,,,,,,0,0,0,35,,,,,,,,,,4,1,0.699738398959,,,,,,2016_Feb_02_1455,P12,PLC_L_D1S1,NHGY,60.0182396314,
stim/posf.jpg,stim/negf.jpg,stim/3.jpg,stim/5.jpg,stim/latef.jpg,EF,2,4,,,,,,,,,0,1,1,54,,,,,,,,,,2,0,0.733096006797,,,,,,2016_Feb_02_1455,P12,PLC_L_D1S1,NHGY,60.0182396314,
stim/posf.jpg,stim/negf.jpg,stim/1.jpg,stim/6.jpg,stim/latef.jpg,CD,1,2,,,,,,,,,0,2,2,20,,,,,,,,,,2,1,1.0663287073,,,,,,2016_Feb_02_1455,P12,PLC_L_D1S1,NHGY,60.0182396314,
stim/negf.jpg,stim/posf.jpg,stim/4.jpg,stim/2.jpg,stim/latef.jpg,AB,2,4,,,,,,,,,0,3,3,19,,,,,,,,,,2,0,1.04966217998,,,,,,2016_Feb_02_1455,P12,PLC_L_D1S1,NHGY,60.0182396314,
stim/posf.jpg,stim/negf.jpg,stim/1.jpg,stim/6.jpg,stim/latef.jpg,CD,1,2,,,,,,,,,0,4,4,24,,,,,,,,,,2,1,0.783092957196,,,,,,2016_Feb_02_1455,P12,PLC_L_D1S1,NHGY,60.0182396314,
stim/posf.jpg,stim/negf.jpg,stim/2.jpg,stim/4.jpg,stim/latef.jpg,AB,1,2,,,,,,,,,0,5,5,7,,,,,,,,,,4,0,0.666463569447,,,,,,2016_Feb_02_1455,P12,PLC_L_D1S1,NHGY,60.0182396314,
stim/negf.jpg,stim/posf.jpg,stim/2.jpg,stim/4.jpg,stim/latef.jpg,AB,1,2,,,,,,,,,0,6,6,9,,,,,,,,,,2,1,0.633178544523,,,,,,2016_Feb_02_1455,P12,PLC_L_D1S1,NHGY,60.0182396314,
stim/posf.jpg,stim/negf.jpg,stim/2.jpg,stim/4.jpg,stim/latef.jpg,AB,1,2,,,,,,,,,0,7,7,6,,,,,,,,,,2,1,0.816405557853,,,,,,2016_Feb_02_1455,P12,PLC_L_D1S1,NHGY,60.0182396314,
stim/negf.jpg,stim/posf.jpg,stim/6.jpg,stim/1.jpg,stim/latef.jpg,CD,2,4,,,,,,,,,0,8,8,37,,,,,,,,,,4,1,0.649791631641,,,,,,2016_Feb_02_1455,P12,PLC_L_D1S1,NHGY,60.0182396314,
stim/posf.jpg,stim/negf.jpg,stim/5.jpg,stim/3.jpg,stim/latef.jpg,EF,1,2,,,,,,,,,0,9,9,41,,,,,,,,,,2,1,1.1663019857,,,,,,2016_Feb_02_1455,P12,PLC_L_D1S1,NHGY,60.0182396314,
stim/posf.jpg,stim/negf.jpg,stim/3.jpg,stim/5.jpg,stim/latef.jpg,EF,2,4,,,,,,,,,0,10,10,52,,,,,,,,,,4,1,0.983020088571,,,,,,2016_Feb_02_1455,P12,PLC_L_D1S1,NHGY,60.0182396314,
stim/posf.jpg,stim/negf.jpg,stim/1.jpg,stim/6.jpg,stim/latef.jpg,CD,1,2,,,,,,,,,0,11,11,22,,,,,,,,,,2,1,0.816369064894,,,,,,2016_Feb_02_1455,P12,PLC_L_D1S1,NHGY,60.0182396314,
stim/posf.jpg,stim/negf.jpg,stim/1.jpg,stim/6.jpg,stim/latef.jpg,CD,1,2,,,,,,,,,0,12,12,23,,,,,,,,,,2,1,0.766418745723,,,,,,2016_Feb_02_1455,P12,PLC_L_D1S1,NHGY,60.0182396314,
stim/posf.jpg,stim/negf.jpg,stim/6.jpg,stim/1.jpg,stim/latef.jpg,CD,2,4,,,,,,,,,0,13,13,34,,,,,,,,,,4,1,1.38291303975,,,,,,2016_Feb_02_1455,P12,PLC_L_D1S1,NHGY,60.0182396314,
stim/posf.jpg,stim/negf.jpg,stim/2.jpg,stim/4.jpg,stim/latef.jpg,AB,1,2,,,,,,,,,0,14,14,5,,,,,,,,,,2,1,0.866344114705,,,,,,2016_Feb_02_1455,P12,PLC_L_D1S1,NHGY,60.0182396314,
stim/posf.jpg,stim/negf.jpg,stim/2.jpg,stim/4.jpg,stim/latef.jpg,AB,1,2,,,,,,,,,0,15,15,1,,,,,,,,,,2,1,0.999673776889,,,,,,2016_Feb_02_1455,P12,PLC_L_D1S1,NHGY,60.0182396314,
stim/negf.jpg,stim/posf.jpg,stim/5.jpg,stim/3.jpg,stim/latef.jpg,EF,1,2,,,,,,,,,0,16,16,49,,,,,,,,,,4,0,0.683111739009,,,,,,2016_Feb_02_1455,P12,PLC_L_D1S1,NHGY,60.0182396314,
stim/posf.jpg,stim/negf.jpg,stim/1.jpg,stim/6.jpg,stim/latef.jpg,CD,1,2,,,,,,,,,0,17,17,26,,,,,,,,,,2,1,0.849690273006,,,,,,2016_Feb_02_1455,P12,PLC_L_D1S1,NHGY,60.0182396314,
stim/posf.jpg,stim/negf.jpg,stim/1.jpg,stim/6.jpg,stim/latef.jpg,CD,1,2,,,,,,,,,0,18,18,25,,,,,,,,,,2,1,0.633113498395,,,,,,2016_Feb_02_1455,P12,PLC_L_D1S1,NHGY,60.0182396314,
stim/posf.jpg,stim/negf.jpg,stim/5.jpg,stim/3.jpg,stim/latef.jpg,EF,1,2,,,,,,,,,0,19,19,44,,,,,,,,,,4,0,0.666429253916,,,,,,2016_Feb_02_1455,P12,PLC_L_D1S1,NHGY,60.0182396314,
stim/negf.jpg,stim/posf.jpg,stim/5.jpg,stim/3.jpg,stim/latef.jpg,EF,1,2,,,,,,,,,0,20,20,47,,,,,,,,,,2,1,0.716337302727,,,,,,2016_Feb_02_1455,P12,PLC_L_D1S1,NHGY,60.0182396314,
stim/posf.jpg,stim/negf.jpg,stim/6.jpg,stim/1.jpg,stim/latef.jpg,CD,2,4,,,,,,,,,0,21,21,36,,,,,,,,,,4,1,0.71642227051,,,,,,2016_Feb_02_1455,P12,PLC_L_D1S1,NHGY,60.0182396314,
stim/posf.jpg,stim/negf.jpg,stim/4.jpg,stim/2.jpg,stim/latef.jpg,AB,2,4,,,,,,,,,0,22,22,11,,,,,,,,,,2,0,1.09960833678,,,,,,2016_Feb_02_1455,P12,PLC_L_D1S1,NHGY,60.0182396314,
stim/posf.jpg,stim/negf.jpg,stim/3.jpg,stim/5.jpg,stim/latef.jpg,EF,2,4,,,,,,,,,0,23,23,55,,,,,,,,,,4,1,1.56622401035,,,,,,2016_Feb_02_1455,P12,PLC_L_D1S1,NHGY,60.0182396314,
stim/posf.jpg,stim/negf.jpg,stim/3.jpg,stim/5.jpg,stim/latef.jpg,EF,2,4,,,,,,,,,0,24,24,50,,,,,,,,,,4,1,1.09967062503,,,,,,2016_Feb_02_1455,P12,PLC_L_D1S1,NHGY,60.0182396314,
stim/posf.jpg,stim/negf.jpg,stim/2.jpg,stim/4.jpg,stim/latef.jpg,AB,1,2,,,,,,,,,0,25,25,3,,,,,,,,,,2,1,0.816400869167,,,,,,2016_Feb_02_1455,P12,PLC_L_D1S1,NHGY,60.0182396314,
stim/posf.jpg,stim/negf.jpg,stim/4.jpg,stim/2.jpg,stim/latef.jpg,AB,2,4,,,,,,,,,0,26,26,14,,,,,,,,,,4,1,0.999657816107,,,,,,2016_Feb_02_1455,P12,PLC_L_D1S1,NHGY,60.0182396314,
stim/negf.jpg,stim/posf.jpg,stim/6.jpg,stim/1.jpg,stim/latef.jpg,CD,2,4,,,,,,,,,0,27,27,39,,,,,,,,,,4,1,0.933001189465,,,,,,2016_Feb_02_1455,P12,PLC_L_D1S1,NHGY,60.0182396314,
stim/negf.jpg,stim/posf.jpg,stim/1.jpg,stim/6.jpg,stim/latef.jpg,CD,1,2,,,,,,,,,0,28,28,29,,,,,,,,,,2,1,1.01633185916,,,,,,2016_Feb_02_1455,P12,PLC_L_D1S1,NHGY,60.0182396314,
stim/negf.jpg,stim/posf.jpg,stim/3.jpg,stim/5.jpg,stim/latef.jpg,EF,2,4,,,,,,,,,0,29,29,56,,,,,,,,,,None,0,,,,,,,2016_Feb_02_1455,P12,PLC_L_D1S1,NHGY,60.0182396314,
stim/posf.jpg,stim/negf.jpg,stim/6.jpg,stim/1.jpg,stim/latef.jpg,CD,2,4,,,,,,,,,0,30,30,32,,,,,,,,,,4,1,0.616478817452,,,,,,2016_Feb_02_1455,P12,PLC_L_D1S1,NHGY,60.0182396314,
stim/posf.jpg,stim/negf.jpg,stim/5.jpg,stim/3.jpg,stim/latef.jpg,EF,1,2,,,,,,,,,0,31,31,40,,,,,,,,,,2,1,0.899718642717,,,,,,2016_Feb_02_1455,P12,PLC_L_D1S1,NHGY,60.0182396314,
stim/negf.jpg,stim/posf.jpg,stim/3.jpg,stim/5.jpg,stim/latef.jpg,EF,2,4,,,,,,,,,0,32,32,58,,,,,,,,,,4,1,0.683051216157,,,,,,2016_Feb_02_1455,P12,PLC_L_D1S1,NHGY,60.0182396314,
stim/negf.jpg,stim/posf.jpg,stim/6.jpg,stim/1.jpg,stim/latef.jpg,CD,2,4,,,,,,,,,0,33,33,38,,,,,,,,,,4,1,0.699742356825,,,,,,2016_Feb_02_1455,P12,PLC_L_D1S1,NHGY,60.0182396314,
stim/posf.jpg,stim/negf.jpg,stim/4.jpg,stim/2.jpg,stim/latef.jpg,AB,2,4,,,,,,,,,0,34,34,16,,,,,,,,,,4,1,1.09963674258,,,,,,2016_Feb_02_1455,P12,PLC_L_D1S1,NHGY,60.0182396314,
stim/posf.jpg,stim/negf.jpg,stim/6.jpg,stim/1.jpg,stim/latef.jpg,CD,2,4,,,,,,,,,0,35,35,30,,,,,,,,,,4,1,0.666452375546,,,,,,2016_Feb_02_1455,P12,PLC_L_D1S1,NHGY,60.0182396314,
stim/negf.jpg,stim/posf.jpg,stim/1.jpg,stim/6.jpg,stim/latef.jpg,CD,1,2,,,,,,,,,0,36,36,28,,,,,,,,,,2,1,0.649799751882,,,,,,2016_Feb_02_1455,P12,PLC_L_D1S1,NHGY,60.0182396314,
stim/posf.jpg,stim/negf.jpg,stim/5.jpg,stim/3.jpg,stim/latef.jpg,EF,1,2,,,,,,,,,0,37,37,45,,,,,,,,,,4,0,0.583153666515,,,,,,2016_Feb_02_1455,P12,PLC_L_D1S1,NHGY,60.0182396314,
stim/posf.jpg,stim/negf.jpg,stim/2.jpg,stim/4.jpg,stim/latef.jpg,AB,1,2,,,,,,,,,0,38,38,2,,,,,,,,,,2,1,0.933029029857,,,,,,2016_Feb_02_1455,P12,PLC_L_D1S1,NHGY,60.0182396314,
stim/posf.jpg,stim/negf.jpg,stim/6.jpg,stim/1.jpg,stim/latef.jpg,CD,2,4,,,,,,,,,0,39,39,31,,,,,,,,,,4,1,0.649786025669,,,,,,2016_Feb_02_1455,P12,PLC_L_D1S1,NHGY,60.0182396314,
stim/posf.jpg,stim/negf.jpg,stim/2.jpg,stim/4.jpg,stim/latef.jpg,AB,1,2,,,,,,,,,0,40,40,4,,,,,,,,,,2,1,0.633104295456,,,,,,2016_Feb_02_1455,P12,PLC_L_D1S1,NHGY,60.0182396314,
stim/posf.jpg,stim/negf.jpg,stim/4.jpg,stim/2.jpg,stim/latef.jpg,AB,2,4,,,,,,,,,0,41,41,12,,,,,,,,,,4,1,0.633124409591,,,,,,2016_Feb_02_1455,P12,PLC_L_D1S1,NHGY,60.0182396314,
stim/posf.jpg,stim/negf.jpg,stim/3.jpg,stim/5.jpg,stim/latef.jpg,EF,2,4,,,,,,,,,0,42,42,51,,,,,,,,,,2,0,0.633142078631,,,,,,2016_Feb_02_1455,P12,PLC_L_D1S1,NHGY,60.0182396314,
stim/posf.jpg,stim/negf.jpg,stim/5.jpg,stim/3.jpg,stim/latef.jpg,EF,1,2,,,,,,,,,0,43,43,42,,,,,,,,,,2,1,0.666447882347,,,,,,2016_Feb_02_1455,P12,PLC_L_D1S1,NHGY,60.0182396314,
stim/posf.jpg,stim/negf.jpg,stim/2.jpg,stim/4.jpg,stim/latef.jpg,AB,1,2,,,,,,,,,0,44,44,0,,,,,,,,,,2,1,0.833070993452,,,,,,2016_Feb_02_1455,P12,PLC_L_D1S1,NHGY,60.0182396314,
stim/posf.jpg,stim/negf.jpg,stim/1.jpg,stim/6.jpg,stim/latef.jpg,CD,1,2,,,,,,,,,0,45,45,21,,,,,,,,,,4,0,0.333227984752,,,,,,2016_Feb_02_1455,P12,PLC_L_D1S1,NHGY,60.0182396314,
stim/posf.jpg,stim/negf.jpg,stim/4.jpg,stim/2.jpg,stim/latef.jpg,AB,2,4,,,,,,,,,0,46,46,13,,,,,,,,,,2,0,0.733085261014,,,,,,2016_Feb_02_1455,P12,PLC_L_D1S1,NHGY,60.0182396314,
stim/posf.jpg,stim/negf.jpg,stim/4.jpg,stim/2.jpg,stim/latef.jpg,AB,2,4,,,,,,,,,0,47,47,15,,,,,,,,,,2,0,0.78308400388,,,,,,2016_Feb_02_1455,P12,PLC_L_D1S1,NHGY,60.0182396314,
stim/negf.jpg,stim/posf.jpg,stim/3.jpg,stim/5.jpg,stim/latef.jpg,EF,2,4,,,,,,,,,0,48,48,57,,,,,,,,,,2,0,1.26621807355,,,,,,2016_Feb_02_1455,P12,PLC_L_D1S1,NHGY,60.0182396314,
stim/negf.jpg,stim/posf.jpg,stim/1.jpg,stim/6.jpg,stim/latef.jpg,CD,1,2,,,,,,,,,0,49,49,27,,,,,,,,,,2,1,0.866415957775,,,,,,2016_Feb_02_1455,P12,PLC_L_D1S1,NHGY,60.0182396314,
stim/negf.jpg,stim/posf.jpg,stim/4.jpg,stim/2.jpg,stim/latef.jpg,AB,2,4,,,,,,,,,0,50,50,18,,,,,,,,,,4,1,1.26627445809,,,,,,2016_Feb_02_1455,P12,PLC_L_D1S1,NHGY,60.0182396314,
stim/negf.jpg,stim/posf.jpg,stim/2.jpg,stim/4.jpg,stim/latef.jpg,AB,1,2,,,,,,,,,0,51,51,8,,,,,,,,,,2,1,0.683115077331,,,,,,2016_Feb_02_1455,P12,PLC_L_D1S1,NHGY,60.0182396314,
stim/negf.jpg,stim/posf.jpg,stim/5.jpg,stim/3.jpg,stim/latef.jpg,EF,1,2,,,,,,,,,0,52,52,46,,,,,,,,,,2,1,1.09964277261,,,,,,2016_Feb_02_1455,P12,PLC_L_D1S1,NHGY,60.0182396314,
stim/negf.jpg,stim/posf.jpg,stim/3.jpg,stim/5.jpg,stim/latef.jpg,EF,2,4,,,,,,,,,0,53,53,59,,,,,,,,,,2,0,1.14962785242,,,,,,2016_Feb_02_1455,P12,PLC_L_D1S1,NHGY,60.0182396314,
stim/negf.jpg,stim/posf.jpg,stim/5.jpg,stim/3.jpg,stim/latef.jpg,EF,1,2,,,,,,,,,0,54,54,48,,,,,,,,,,4,0,0.649730660672,,,,,,2016_Feb_02_1455,P12,PLC_L_D1S1,NHGY,60.0182396314,
stim/posf.jpg,stim/negf.jpg,stim/5.jpg,stim/3.jpg,stim/latef.jpg,EF,1,2,,,,,,,,,0,55,55,43,,,,,,,,,,4,0,0.616441268863,,,,,,2016_Feb_02_1455,P12,PLC_L_D1S1,NHGY,60.0182396314,
stim/posf.jpg,stim/negf.jpg,stim/3.jpg,stim/5.jpg,stim/latef.jpg,EF,2,4,,,,,,,,,0,56,56,53,,,,,,,,,,2,0,0.949744570342,,,,,,2016_Feb_02_1455,P12,PLC_L_D1S1,NHGY,60.0182396314,
stim/posf.jpg,stim/negf.jpg,stim/6.jpg,stim/1.jpg,stim/latef.jpg,CD,2,4,,,,,,,,,0,57,57,33,,,,,,,,,,4,1,0.999671870137,,,,,,2016_Feb_02_1455,P12,PLC_L_D1S1,NHGY,60.0182396314,
stim/posf.jpg,stim/negf.jpg,stim/4.jpg,stim/2.jpg,stim/latef.jpg,AB,2,4,,,,,,,,,0,58,58,10,,,,,,,,,,2,0,1.33288316028,,,,,,2016_Feb_02_1455,P12,PLC_L_D1S1,NHGY,60.0182396314,
stim/posf.jpg,stim/negf.jpg,stim/4.jpg,stim/2.jpg,stim/latef.jpg,AB,2,4,,,,,,,,,0,59,59,17,,,,,,,,,,4,1,0.683114151022,,,,,,2016_Feb_02_1455,P12,PLC_L_D1S1,NHGY,60.0182396314,
,,,,,,,,,,,,,,,,,,,,,,,,,,,,,,,,0.9984375,-0.025390625,1,0,0,2016_Feb_02_1455,P12,PLC_L_D1S1,NHGY,60.0182396314,
stim/posf.jpg,stim/negf.jpg,stim/2.jpg,stim/4.jpg,stim/latef.jpg,AB,1,2,,,,,,,,,,,,,0,0,0,2,,,,,,2,1,0.783082785844,,,,,,2016_Feb_02_1455,P12,PLC_L_D1S1,NHGY,60.0182396314,
stim/posf.jpg,stim/negf.jpg,stim/3.jpg,stim/5.jpg,stim/latef.jpg,EF,2,4,,,,,,,,,,,,,0,1,1,55,,,,,,4,1,0.949665975444,,,,,,2016_Feb_02_1455,P12,PLC_L_D1S1,NHGY,60.0182396314,
stim/posf.jpg,stim/negf.jpg,stim/3.jpg,stim/5.jpg,stim/latef.jpg,EF,2,4,,,,,,,,,,,,,0,2,2,50,,,,,,2,0,0.99962910354,,,,,,2016_Feb_02_1455,P12,PLC_L_D1S1,NHGY,60.0182396314,
stim/negf.jpg,stim/posf.jpg,stim/2.jpg,stim/4.jpg,stim/latef.jpg,AB,1,2,,,,,,,,,,,,,0,3,3,8,,,,,,2,1,0.733152451486,,,,,,2016_Feb_02_1455,P12,PLC_L_D1S1,NHGY,60.0182396314,
stim/posf.jpg,stim/negf.jpg,stim/1.jpg,stim/6.jpg,stim/latef.jpg,CD,1,2,,,,,,,,,,,,,0,4,4,20,,,,,,2,1,0.7330918354,,,,,,2016_Feb_02_1455,P12,PLC_L_D1S1,NHGY,60.0182396314,
stim/negf.jpg,stim/posf.jpg,stim/5.jpg,stim/3.jpg,stim/latef.jpg,EF,1,2,,,,,,,,,,,,,0,5,5,46,,,,,,4,0,0.983002696221,,,,,,2016_Feb_02_1455,P12,PLC_L_D1S1,NHGY,60.0182396314,
stim/posf.jpg,stim/negf.jpg,stim/1.jpg,stim/6.jpg,stim/latef.jpg,CD,1,2,,,,,,,,,,,,,0,6,6,25,,,,,,2,1,0.599800843603,,,,,,2016_Feb_02_1455,P12,PLC_L_D1S1,NHGY,60.0182396314,
stim/posf.jpg,stim/negf.jpg,stim/1.jpg,stim/6.jpg,stim/latef.jpg,CD,1,2,,,,,,,,,,,,,0,7,7,22,,,,,,2,1,0.633108626251,,,,,,2016_Feb_02_1455,P12,PLC_L_D1S1,NHGY,60.0182396314,
stim/negf.jpg,stim/posf.jpg,stim/1.jpg,stim/6.jpg,stim/latef.jpg,CD,1,2,,,,,,,,,,,,,0,8,8,29,,,,,,2,1,0.566525584019,,,,,,2016_Feb_02_1455,P12,PLC_L_D1S1,NHGY,60.0182396314,
stim/posf.jpg,stim/negf.jpg,stim/4.jpg,stim/2.jpg,stim/latef.jpg,AB,2,4,,,,,,,,,,,,,0,9,9,16,,,,,,2,0,0.966333269675,,,,,,2016_Feb_02_1455,P12,PLC_L_D1S1,NHGY,60.0182396314,
stim/posf.jpg,stim/negf.jpg,stim/5.jpg,stim/3.jpg,stim/latef.jpg,EF,1,2,,,,,,,,,,,,,0,10,10,44,,,,,,2,1,0.733080554282,,,,,,2016_Feb_02_1455,P12,PLC_L_D1S1,NHGY,60.0182396314,
stim/posf.jpg,stim/negf.jpg,stim/3.jpg,stim/5.jpg,stim/latef.jpg,EF,2,4,,,,,,,,,,,,,0,11,11,51,,,,,,4,1,0.966368607755,,,,,,2016_Feb_02_1455,P12,PLC_L_D1S1,NHGY,60.0182396314,
stim/posf.jpg,stim/negf.jpg,stim/1.jpg,stim/6.jpg,stim/latef.jpg,CD,1,2,,,,,,,,,,,,,0,12,12,26,,,,,,2,1,0.616449196623,,,,,,2016_Feb_02_1455,P12,PLC_L_D1S1,NHGY,60.0182396314,
stim/posf.jpg,stim/negf.jpg,stim/2.jpg,stim/4.jpg,stim/latef.jpg,AB,1,2,,,,,,,,,,,,,0,13,13,3,,,,,,2,1,0.79978906324,,,,,,2016_Feb_02_1455,P12,PLC_L_D1S1,NHGY,60.0182396314,
stim/negf.jpg,stim/posf.jpg,stim/6.jpg,stim/1.jpg,stim/latef.jpg,CD,2,4,,,,,,,,,,,,,0,14,14,39,,,,,,4,1,0.5998028887,,,,,,2016_Feb_02_1455,P12,PLC_L_D1S1,NHGY,60.0182396314,
stim/posf.jpg,stim/negf.jpg,stim/3.jpg,stim/5.jpg,stim/latef.jpg,EF,2,4,,,,,,,,,,,,,0,15,15,52,,,,,,4,1,0.916457999564,,,,,,2016_Feb_02_1455,P12,PLC_L_D1S1,NHGY,60.0182396314,
stim/posf.jpg,stim/negf.jpg,stim/2.jpg,stim/4.jpg,stim/latef.jpg,AB,1,2,,,,,,,,,,,,,0,16,16,4,,,,,,2,1,0.599772308479,,,,,,2016_Feb_02_1455,P12,PLC_L_D1S1,NHGY,60.0182396314,
stim/posf.jpg,stim/negf.jpg,stim/4.jpg,stim/2.jpg,stim/latef.jpg,AB,2,4,,,,,,,,,,,,,0,17,17,14,,,,,,4,1,0.766435729055,,,,,,2016_Feb_02_1455,P12,PLC_L_D1S1,NHGY,60.0182396314,
stim/posf.jpg,stim/negf.jpg,stim/6.jpg,stim/1.jpg,stim/latef.jpg,CD,2,4,,,,,,,,,,,,,0,18,18,30,,,,,,4,1,0.716428595274,,,,,,2016_Feb_02_1455,P12,PLC_L_D1S1,NHGY,60.0182396314,
stim/posf.jpg,stim/negf.jpg,stim/3.jpg,stim/5.jpg,stim/latef.jpg,EF,2,4,,,,,,,,,,,,,0,19,19,53,,,,,,4,1,0.783097657913,,,,,,2016_Feb_02_1455,P12,PLC_L_D1S1,NHGY,60.0182396314,
stim/negf.jpg,stim/posf.jpg,stim/4.jpg,stim/2.jpg,stim/latef.jpg,AB,2,4,,,,,,,,,,,,,0,20,20,19,,,,,,2,0,0.566466844611,,,,,,2016_Feb_02_1455,P12,PLC_L_D1S1,NHGY,60.0182396314,
stim/negf.jpg,stim/posf.jpg,stim/5.jpg,stim/3.jpg,stim/latef.jpg,EF,1,2,,,,,,,,,,,,,0,21,21,49,,,,,,2,1,0.966336779423,,,,,,2016_Feb_02_1455,P12,PLC_L_D1S1,NHGY,60.0182396314,
stim/posf.jpg,stim/negf.jpg,stim/5.jpg,stim/3.jpg,stim/latef.jpg,EF,1,2,,,,,,,,,,,,,0,22,22,45,,,,,,2,1,0.916336277171,,,,,,2016_Feb_02_1455,P12,PLC_L_D1S1,NHGY,60.0182396314,
stim/negf.jpg,stim/posf.jpg,stim/4.jpg,stim/2.jpg,stim/latef.jpg,AB,2,4,,,,,,,,,,,,,0,23,23,18,,,,,,4,1,0.749778970084,,,,,,2016_Feb_02_1455,P12,PLC_L_D1S1,NHGY,60.0182396314,
stim/negf.jpg,stim/posf.jpg,stim/2.jpg,stim/4.jpg,stim/latef.jpg,AB,1,2,,,,,,,,,,,,,0,24,24,9,,,,,,2,1,0.616463395012,,,,,,2016_Feb_02_1455,P12,PLC_L_D1S1,NHGY,60.0182396314,
stim/posf.jpg,stim/negf.jpg,stim/2.jpg,stim/4.jpg,stim/latef.jpg,AB,1,2,,,,,,,,,,,,,0,25,25,7,,,,,,2,1,0.683100659394,,,,,,2016_Feb_02_1455,P12,PLC_L_D1S1,NHGY,60.0182396314,
stim/posf.jpg,stim/negf.jpg,stim/3.jpg,stim/5.jpg,stim/latef.jpg,EF,2,4,,,,,,,,,,,,,0,26,26,54,,,,,,4,1,0.816363416817,,,,,,2016_Feb_02_1455,P12,PLC_L_D1S1,NHGY,60.0182396314,
stim/negf.jpg,stim/posf.jpg,stim/3.jpg,stim/5.jpg,stim/latef.jpg,EF,2,4,,,,,,,,,,,,,0,27,27,56,,,,,,4,1,0.683166219803,,,,,,2016_Feb_02_1455,P12,PLC_L_D1S1,NHGY,60.0182396314,
stim/negf.jpg,stim/posf.jpg,stim/6.jpg,stim/1.jpg,stim/latef.jpg,CD,2,4,,,,,,,,,,,,,0,28,28,38,,,,,,4,1,0.716441629762,,,,,,2016_Feb_02_1455,P12,PLC_L_D1S1,NHGY,60.0182396314,
stim/posf.jpg,stim/negf.jpg,stim/5.jpg,stim/3.jpg,stim/latef.jpg,EF,1,2,,,,,,,,,,,,,0,29,29,42,,,,,,2,1,0.716398649633,,,,,,2016_Feb_02_1455,P12,PLC_L_D1S1,NHGY,60.0182396314,
stim/posf.jpg,stim/negf.jpg,stim/2.jpg,stim/4.jpg,stim/latef.jpg,AB,1,2,,,,,,,,,,,,,0,30,30,1,,,,,,2,1,0.599740239547,,,,,,2016_Feb_02_1455,P12,PLC_L_D1S1,NHGY,60.0182396314,
stim/posf.jpg,stim/negf.jpg,stim/6.jpg,stim/1.jpg,stim/latef.jpg,CD,2,4,,,,,,,,,,,,,0,31,31,31,,,,,,4,1,0.749789727897,,,,,,2016_Feb_02_1455,P12,PLC_L_D1S1,NHGY,60.0182396314,
stim/posf.jpg,stim/negf.jpg,stim/6.jpg,stim/1.jpg,stim/latef.jpg,CD,2,4,,,,,,,,,,,,,0,32,32,34,,,,,,4,1,0.533171449839,,,,,,2016_Feb_02_1455,P12,PLC_L_D1S1,NHGY,60.0182396314,
stim/negf.jpg,stim/posf.jpg,stim/5.jpg,stim/3.jpg,stim/latef.jpg,EF,1,2,,,,,,,,,,,,,0,33,33,47,,,,,,2,1,0.833041568108,,,,,,2016_Feb_02_1455,P12,PLC_L_D1S1,NHGY,60.0182396314,
stim/posf.jpg,stim/negf.jpg,stim/4.jpg,stim/2.jpg,stim/latef.jpg,AB,2,4,,,,,,,,,,,,,0,34,34,15,,,,,,2,0,0.649798022571,,,,,,2016_Feb_02_1455,P12,PLC_L_D1S1,NHGY,60.0182396314,
stim/posf.jpg,stim/negf.jpg,stim/5.jpg,stim/3.jpg,stim/latef.jpg,EF,1,2,,,,,,,,,,,,,0,35,35,41,,,,,,4,0,0.833034617785,,,,,,2016_Feb_02_1455,P12,PLC_L_D1S1,NHGY,60.0182396314,
stim/posf.jpg,stim/negf.jpg,stim/6.jpg,stim/1.jpg,stim/latef.jpg,CD,2,4,,,,,,,,,,,,,0,36,36,36,,,,,,4,1,0.749689848949,,,,,,2016_Feb_02_1455,P12,PLC_L_D1S1,NHGY,60.0182396314,
stim/negf.jpg,stim/posf.jpg,stim/3.jpg,stim/5.jpg,stim/latef.jpg,EF,2,4,,,,,,,,,,,,,0,37,37,59,,,,,,2,0,0.566476182886,,,,,,2016_Feb_02_1455,P12,PLC_L_D1S1,NHGY,60.0182396314,
stim/posf.jpg,stim/negf.jpg,stim/2.jpg,stim/4.jpg,stim/latef.jpg,AB,1,2,,,,,,,,,,,,,0,38,38,0,,,,,,4,0,0.499832518552,,,,,,2016_Feb_02_1455,P12,PLC_L_D1S1,NHGY,60.0182396314,
stim/negf.jpg,stim/posf.jpg,stim/6.jpg,stim/1.jpg,stim/latef.jpg,CD,2,4,,,,,,,,,,,,,0,39,39,37,,,,,,4,1,0.766426487019,,,,,,2016_Feb_02_1455,P12,PLC_L_D1S1,NHGY,60.0182396314,
stim/posf.jpg,stim/negf.jpg,stim/1.jpg,stim/6.jpg,stim/latef.jpg,CD,1,2,,,,,,,,,,,,,0,40,40,21,,,,,,2,1,0.56647285058,,,,,,2016_Feb_02_1455,P12,PLC_L_D1S1,NHGY,60.0182396314,
stim/negf.jpg,stim/posf.jpg,stim/1.jpg,stim/6.jpg,stim/latef.jpg,CD,1,2,,,,,,,,,,,,,0,41,41,28,,,,,,2,1,0.583156442432,,,,,,2016_Feb_02_1455,P12,PLC_L_D1S1,NHGY,60.0182396314,
stim/negf.jpg,stim/posf.jpg,stim/3.jpg,stim/5.jpg,stim/latef.jpg,EF,2,4,,,,,,,,,,,,,0,42,42,57,,,,,,4,1,0.649787364005,,,,,,2016_Feb_02_1455,P12,PLC_L_D1S1,NHGY,60.0182396314,
stim/posf.jpg,stim/negf.jpg,stim/4.jpg,stim/2.jpg,stim/latef.jpg,AB,2,4,,,,,,,,,,,,,0,43,43,13,,,,,,2,0,0.499825736649,,,,,,2016_Feb_02_1455,P12,PLC_L_D1S1,NHGY,60.0182396314,
stim/posf.jpg,stim/negf.jpg,stim/6.jpg,stim/1.jpg,stim/latef.jpg,CD,2,4,,,,,,,,,,,,,0,44,44,32,,,,,,4,1,0.633200475184,,,,,,2016_Feb_02_1455,P12,PLC_L_D1S1,NHGY,60.0182396314,
stim/posf.jpg,stim/negf.jpg,stim/4.jpg,stim/2.jpg,stim/latef.jpg,AB,2,4,,,,,,,,,,,,,0,45,45,12,,,,,,4,1,0.533175597176,,,,,,2016_Feb_02_1455,P12,PLC_L_D1S1,NHGY,60.0182396314,
stim/posf.jpg,stim/negf.jpg,stim/5.jpg,stim/3.jpg,stim/latef.jpg,EF,1,2,,,,,,,,,,,,,0,46,46,43,,,,,,4,0,0.616511253299,,,,,,2016_Feb_02_1455,P12,PLC_L_D1S1,NHGY,60.0182396314,
stim/posf.jpg,stim/negf.jpg,stim/4.jpg,stim/2.jpg,stim/latef.jpg,AB,2,4,,,,,,,,,,,,,0,47,47,10,,,,,,2,0,0.616477668589,,,,,,2016_Feb_02_1455,P12,PLC_L_D1S1,NHGY,60.0182396314,
stim/negf.jpg,stim/posf.jpg,stim/3.jpg,stim/5.jpg,stim/latef.jpg,EF,2,4,,,,,,,,,,,,,0,48,48,58,,,,,,4,1,0.733091916602,,,,,,2016_Feb_02_1455,P12,PLC_L_D1S1,NHGY,60.0182396314,
stim/posf.jpg,stim/negf.jpg,stim/1.jpg,stim/6.jpg,stim/latef.jpg,CD,1,2,,,,,,,,,,,,,0,49,49,24,,,,,,2,1,0.833064133352,,,,,,2016_Feb_02_1455,P12,PLC_L_D1S1,NHGY,60.0182396314,
stim/negf.jpg,stim/posf.jpg,stim/5.jpg,stim/3.jpg,stim/latef.jpg,EF,1,2,,,,,,,,,,,,,0,50,50,48,,,,,,2,1,1.09954460493,,,,,,2016_Feb_02_1455,P12,PLC_L_D1S1,NHGY,60.0182396314,
stim/posf.jpg,stim/negf.jpg,stim/6.jpg,stim/1.jpg,stim/latef.jpg,CD,2,4,,,,,,,,,,,,,0,51,51,35,,,,,,4,1,0.649781610665,,,,,,2016_Feb_02_1455,P12,PLC_L_D1S1,NHGY,60.0182396314,
stim/posf.jpg,stim/negf.jpg,stim/4.jpg,stim/2.jpg,stim/latef.jpg,AB,2,4,,,,,,,,,,,,,0,52,52,11,,,,,,2,0,1.01634490868,,,,,,2016_Feb_02_1455,P12,PLC_L_D1S1,NHGY,60.0182396314,
stim/posf.jpg,stim/negf.jpg,stim/5.jpg,stim/3.jpg,stim/latef.jpg,EF,1,2,,,,,,,,,,,,,0,53,53,40,,,,,,4,0,0.549785794092,,,,,,2016_Feb_02_1455,P12,PLC_L_D1S1,NHGY,60.0182396314,
stim/negf.jpg,stim/posf.jpg,stim/1.jpg,stim/6.jpg,stim/latef.jpg,CD,1,2,,,,,,,,,,,,,0,54,54,27,,,,,,2,1,0.633113284863,,,,,,2016_Feb_02_1455,P12,PLC_L_D1S1,NHGY,60.0182396314,
stim/posf.jpg,stim/negf.jpg,stim/2.jpg,stim/4.jpg,stim/latef.jpg,AB,1,2,,,,,,,,,,,,,0,55,55,5,,,,,,2,1,0.749752696596,,,,,,2016_Feb_02_1455,P12,PLC_L_D1S1,NHGY,60.0182396314,
stim/posf.jpg,stim/negf.jpg,stim/1.jpg,stim/6.jpg,stim/latef.jpg,CD,1,2,,,,,,,,,,,,,0,56,56,23,,,,,,2,1,0.649801048112,,,,,,2016_Feb_02_1455,P12,PLC_L_D1S1,NHGY,60.0182396314,
stim/posf.jpg,stim/negf.jpg,stim/2.jpg,stim/4.jpg,stim/latef.jpg,AB,1,2,,,,,,,,,,,,,0,57,57,6,,,,,,4,0,0.883092626371,,,,,,2016_Feb_02_1455,P12,PLC_L_D1S1,NHGY,60.0182396314,
stim/posf.jpg,stim/negf.jpg,stim/6.jpg,stim/1.jpg,stim/latef.jpg,CD,2,4,,,,,,,,,,,,,0,58,58,33,,,,,,4,1,0.716418631439,,,,,,2016_Feb_02_1455,P12,PLC_L_D1S1,NHGY,60.0182396314,
stim/posf.jpg,stim/negf.jpg,stim/4.jpg,stim/2.jpg,stim/latef.jpg,AB,2,4,,,,,,,,,,,,,0,59,59,17,,,,,,2,0,0.899673737791,,,,,,2016_Feb_02_1455,P12,PLC_L_D1S1,NHGY,60.0182396314,
