fb_corr,fb_incorr,symbol2,symbol1,fb_late,pair,position,correct,block_01.thisRepN,block_01.thisTrialN,block_01.thisN,block_01.thisIndex,block_02.thisRepN,block_02.thisTrialN,block_02.thisN,block_02.thisIndex,block_03.thisRepN,block_03.thisTrialN,block_03.thisN,block_03.thisIndex,block_04.thisRepN,block_04.thisTrialN,block_04.thisN,block_04.thisIndex,mouse.x,mouse.y,mouse.leftButton,mouse.midButton,mouse.rightButton,buttonBox_2.keys,buttonBox_2.corr,buttonBox_2.rt,mouse_2.x,mouse_2.y,mouse_2.leftButton,mouse_2.midButton,mouse_2.rightButton,date,Participant,expName,Group,frameRate,
,,,,,,,,,,,,,,,,,,,,,,,,0.9984375,0.724609375,1,0,0,,,,,,,,,2016_Apr_11_0947,P13,PLC_L_D1S1,NHGY,60.011409078,
stim/posf.jpg,stim/negf.jpg,stim/6.jpg,stim/1.jpg,stim/latef.jpg,AB,1,2,0,0,0,2,,,,,,,,,,,,,,,,,,4,0,0.966378601745,,,,,,2016_Apr_11_0947,P13,PLC_L_D1S1,NHGY,60.011409078,
stim/posf.jpg,stim/negf.jpg,stim/2.jpg,stim/5.jpg,stim/latef.jpg,CD,2,4,0,1,1,36,,,,,,,,,,,,,,,,,,4,1,1.23291534607,,,,,,2016_Apr_11_0947,P13,PLC_L_D1S1,NHGY,60.011409078,
stim/posf.jpg,stim/negf.jpg,stim/3.jpg,stim/4.jpg,stim/latef.jpg,EF,2,4,0,2,2,50,,,,,,,,,,,,,,,,,,2,0,1.29955796589,,,,,,2016_Apr_11_0947,P13,PLC_L_D1S1,NHGY,60.011409078,
stim/negf.jpg,stim/posf.jpg,stim/4.jpg,stim/3.jpg,stim/latef.jpg,EF,1,2,0,3,3,49,,,,,,,,,,,,,,,,,,None,0,,,,,,,2016_Apr_11_0947,P13,PLC_L_D1S1,NHGY,60.011409078,
stim/posf.jpg,stim/negf.jpg,stim/2.jpg,stim/5.jpg,stim/latef.jpg,CD,2,4,0,4,4,33,,,,,,,,,,,,,,,,,,4,1,0.633043073951,,,,,,2016_Apr_11_0947,P13,PLC_L_D1S1,NHGY,60.011409078,
stim/negf.jpg,stim/posf.jpg,stim/2.jpg,stim/5.jpg,stim/latef.jpg,CD,2,4,0,5,5,38,,,,,,,,,,,,,,,,,,4,1,0.649733724807,,,,,,2016_Apr_11_0947,P13,PLC_L_D1S1,NHGY,60.011409078,
stim/negf.jpg,stim/posf.jpg,stim/3.jpg,stim/4.jpg,stim/latef.jpg,EF,2,4,0,6,6,59,,,,,,,,,,,,,,,,,,4,1,1.34952645196,,,,,,2016_Apr_11_0947,P13,PLC_L_D1S1,NHGY,60.011409078,
stim/posf.jpg,stim/negf.jpg,stim/1.jpg,stim/6.jpg,stim/latef.jpg,AB,2,4,0,7,7,13,,,,,,,,,,,,,,,,,,2,0,0.93301280963,,,,,,2016_Apr_11_0947,P13,PLC_L_D1S1,NHGY,60.011409078,
stim/negf.jpg,stim/posf.jpg,stim/6.jpg,stim/1.jpg,stim/latef.jpg,AB,1,2,0,8,8,9,,,,,,,,,,,,,,,,,,2,1,0.866352081743,,,,,,2016_Apr_11_0947,P13,PLC_L_D1S1,NHGY,60.011409078,
stim/negf.jpg,stim/posf.jpg,stim/1.jpg,stim/6.jpg,stim/latef.jpg,AB,2,4,0,9,9,18,,,,,,,,,,,,,,,,,,2,0,1.14963773491,,,,,,2016_Apr_11_0947,P13,PLC_L_D1S1,NHGY,60.011409078,
stim/posf.jpg,stim/negf.jpg,stim/6.jpg,stim/1.jpg,stim/latef.jpg,AB,1,2,0,10,10,0,,,,,,,,,,,,,,,,,,4,0,0.66642528994,,,,,,2016_Apr_11_0947,P13,PLC_L_D1S1,NHGY,60.011409078,
stim/posf.jpg,stim/negf.jpg,stim/1.jpg,stim/6.jpg,stim/latef.jpg,AB,2,4,0,11,11,16,,,,,,,,,,,,,,,,,,2,0,1.1496102044,,,,,,2016_Apr_11_0947,P13,PLC_L_D1S1,NHGY,60.011409078,
stim/posf.jpg,stim/negf.jpg,stim/4.jpg,stim/3.jpg,stim/latef.jpg,EF,1,2,0,12,12,45,,,,,,,,,,,,,,,,,,4,0,1.38279601659,,,,,,2016_Apr_11_0947,P13,PLC_L_D1S1,NHGY,60.011409078,
stim/posf.jpg,stim/negf.jpg,stim/6.jpg,stim/1.jpg,stim/latef.jpg,AB,1,2,0,13,13,5,,,,,,,,,,,,,,,,,,4,0,0.883005731514,,,,,,2016_Apr_11_0947,P13,PLC_L_D1S1,NHGY,60.011409078,
stim/posf.jpg,stim/negf.jpg,stim/6.jpg,stim/1.jpg,stim/latef.jpg,AB,1,2,0,14,14,3,,,,,,,,,,,,,,,,,,4,0,0.966346328425,,,,,,2016_Apr_11_0947,P13,PLC_L_D1S1,NHGY,60.011409078,
stim/posf.jpg,stim/negf.jpg,stim/2.jpg,stim/5.jpg,stim/latef.jpg,CD,2,4,0,15,15,30,,,,,,,,,,,,,,,,,,4,1,1.16628011865,,,,,,2016_Apr_11_0947,P13,PLC_L_D1S1,NHGY,60.011409078,
stim/posf.jpg,stim/negf.jpg,stim/6.jpg,stim/1.jpg,stim/latef.jpg,AB,1,2,0,16,16,7,,,,,,,,,,,,,,,,,,2,1,1.29955694936,,,,,,2016_Apr_11_0947,P13,PLC_L_D1S1,NHGY,60.011409078,
stim/posf.jpg,stim/negf.jpg,stim/5.jpg,stim/2.jpg,stim/latef.jpg,CD,1,2,0,17,17,25,,,,,,,,,,,,,,,,,,2,1,1.38288253892,,,,,,2016_Apr_11_0947,P13,PLC_L_D1S1,NHGY,60.011409078,
stim/negf.jpg,stim/posf.jpg,stim/1.jpg,stim/6.jpg,stim/latef.jpg,AB,2,4,0,18,18,19,,,,,,,,,,,,,,,,,,4,1,1.09964241907,,,,,,2016_Apr_11_0947,P13,PLC_L_D1S1,NHGY,60.011409078,
stim/negf.jpg,stim/posf.jpg,stim/4.jpg,stim/3.jpg,stim/latef.jpg,EF,1,2,0,19,19,46,,,,,,,,,,,,,,,,,,None,0,,,,,,,2016_Apr_11_0947,P13,PLC_L_D1S1,NHGY,60.011409078,
stim/posf.jpg,stim/negf.jpg,stim/6.jpg,stim/1.jpg,stim/latef.jpg,AB,1,2,0,20,20,1,,,,,,,,,,,,,,,,,,4,0,0.933039561208,,,,,,2016_Apr_11_0947,P13,PLC_L_D1S1,NHGY,60.011409078,
stim/posf.jpg,stim/negf.jpg,stim/3.jpg,stim/4.jpg,stim/latef.jpg,EF,2,4,0,21,21,54,,,,,,,,,,,,,,,,,,2,0,1.09960998034,,,,,,2016_Apr_11_0947,P13,PLC_L_D1S1,NHGY,60.011409078,
stim/negf.jpg,stim/posf.jpg,stim/5.jpg,stim/2.jpg,stim/latef.jpg,CD,1,2,0,22,22,27,,,,,,,,,,,,,,,,,,2,1,0.883020735857,,,,,,2016_Apr_11_0947,P13,PLC_L_D1S1,NHGY,60.011409078,
stim/posf.jpg,stim/negf.jpg,stim/2.jpg,stim/5.jpg,stim/latef.jpg,CD,2,4,0,23,23,31,,,,,,,,,,,,,,,,,,4,1,0.716432897373,,,,,,2016_Apr_11_0947,P13,PLC_L_D1S1,NHGY,60.011409078,
stim/posf.jpg,stim/negf.jpg,stim/2.jpg,stim/5.jpg,stim/latef.jpg,CD,2,4,0,24,24,34,,,,,,,,,,,,,,,,,,4,1,0.683136121021,,,,,,2016_Apr_11_0947,P13,PLC_L_D1S1,NHGY,60.011409078,
stim/negf.jpg,stim/posf.jpg,stim/3.jpg,stim/4.jpg,stim/latef.jpg,EF,2,4,0,25,25,57,,,,,,,,,,,,,,,,,,4,1,1.03297592884,,,,,,2016_Apr_11_0947,P13,PLC_L_D1S1,NHGY,60.011409078,
stim/posf.jpg,stim/negf.jpg,stim/1.jpg,stim/6.jpg,stim/latef.jpg,AB,2,4,0,26,26,17,,,,,,,,,,,,,,,,,,2,0,1.16623501539,,,,,,2016_Apr_11_0947,P13,PLC_L_D1S1,NHGY,60.011409078,
stim/posf.jpg,stim/negf.jpg,stim/3.jpg,stim/4.jpg,stim/latef.jpg,EF,2,4,0,27,27,52,,,,,,,,,,,,,,,,,,4,1,1.03298303252,,,,,,2016_Apr_11_0947,P13,PLC_L_D1S1,NHGY,60.011409078,
stim/negf.jpg,stim/posf.jpg,stim/5.jpg,stim/2.jpg,stim/latef.jpg,CD,1,2,0,28,28,29,,,,,,,,,,,,,,,,,,2,1,0.816385102424,,,,,,2016_Apr_11_0947,P13,PLC_L_D1S1,NHGY,60.011409078,
stim/posf.jpg,stim/negf.jpg,stim/3.jpg,stim/4.jpg,stim/latef.jpg,EF,2,4,0,29,29,51,,,,,,,,,,,,,,,,,,4,1,1.11629670041,,,,,,2016_Apr_11_0947,P13,PLC_L_D1S1,NHGY,60.011409078,
stim/posf.jpg,stim/negf.jpg,stim/1.jpg,stim/6.jpg,stim/latef.jpg,AB,2,4,0,30,30,15,,,,,,,,,,,,,,,,,,2,0,1.23292900907,,,,,,2016_Apr_11_0947,P13,PLC_L_D1S1,NHGY,60.011409078,
stim/posf.jpg,stim/negf.jpg,stim/6.jpg,stim/1.jpg,stim/latef.jpg,AB,1,2,0,31,31,4,,,,,,,,,,,,,,,,,,4,0,1.31624487243,,,,,,2016_Apr_11_0947,P13,PLC_L_D1S1,NHGY,60.011409078,
stim/posf.jpg,stim/negf.jpg,stim/5.jpg,stim/2.jpg,stim/latef.jpg,CD,1,2,0,32,32,23,,,,,,,,,,,,,,,,,,2,1,1.2828998079,,,,,,2016_Apr_11_0947,P13,PLC_L_D1S1,NHGY,60.011409078,
stim/posf.jpg,stim/negf.jpg,stim/4.jpg,stim/3.jpg,stim/latef.jpg,EF,1,2,0,33,33,41,,,,,,,,,,,,,,,,,,4,0,1.13300911343,,,,,,2016_Apr_11_0947,P13,PLC_L_D1S1,NHGY,60.011409078,
stim/posf.jpg,stim/negf.jpg,stim/5.jpg,stim/2.jpg,stim/latef.jpg,CD,1,2,0,34,34,21,,,,,,,,,,,,,,,,,,2,1,0.933018397537,,,,,,2016_Apr_11_0947,P13,PLC_L_D1S1,NHGY,60.011409078,
stim/posf.jpg,stim/negf.jpg,stim/6.jpg,stim/1.jpg,stim/latef.jpg,AB,1,2,0,35,35,6,,,,,,,,,,,,,,,,,,2,1,0.73312568956,,,,,,2016_Apr_11_0947,P13,PLC_L_D1S1,NHGY,60.011409078,
stim/posf.jpg,stim/negf.jpg,stim/5.jpg,stim/2.jpg,stim/latef.jpg,CD,1,2,0,36,36,26,,,,,,,,,,,,,,,,,,2,1,0.933062243659,,,,,,2016_Apr_11_0947,P13,PLC_L_D1S1,NHGY,60.011409078,
stim/negf.jpg,stim/posf.jpg,stim/3.jpg,stim/4.jpg,stim/latef.jpg,EF,2,4,0,37,37,58,,,,,,,,,,,,,,,,,,2,0,1.01634220065,,,,,,2016_Apr_11_0947,P13,PLC_L_D1S1,NHGY,60.011409078,
stim/posf.jpg,stim/negf.jpg,stim/4.jpg,stim/3.jpg,stim/latef.jpg,EF,1,2,0,38,38,44,,,,,,,,,,,,,,,,,,4,0,1.21626094142,,,,,,2016_Apr_11_0947,P13,PLC_L_D1S1,NHGY,60.011409078,
stim/posf.jpg,stim/negf.jpg,stim/4.jpg,stim/3.jpg,stim/latef.jpg,EF,1,2,0,39,39,43,,,,,,,,,,,,,,,,,,4,0,1.39954226381,,,,,,2016_Apr_11_0947,P13,PLC_L_D1S1,NHGY,60.011409078,
stim/posf.jpg,stim/negf.jpg,stim/5.jpg,stim/2.jpg,stim/latef.jpg,CD,1,2,0,40,40,20,,,,,,,,,,,,,,,,,,2,1,1.14959423164,,,,,,2016_Apr_11_0947,P13,PLC_L_D1S1,NHGY,60.011409078,
stim/negf.jpg,stim/posf.jpg,stim/5.jpg,stim/2.jpg,stim/latef.jpg,CD,1,2,0,41,41,28,,,,,,,,,,,,,,,,,,2,1,0.79972755796,,,,,,2016_Apr_11_0947,P13,PLC_L_D1S1,NHGY,60.011409078,
stim/posf.jpg,stim/negf.jpg,stim/1.jpg,stim/6.jpg,stim/latef.jpg,AB,2,4,0,42,42,12,,,,,,,,,,,,,,,,,,2,0,1.14954622918,,,,,,2016_Apr_11_0947,P13,PLC_L_D1S1,NHGY,60.011409078,
stim/negf.jpg,stim/posf.jpg,stim/4.jpg,stim/3.jpg,stim/latef.jpg,EF,1,2,0,43,43,47,,,,,,,,,,,,,,,,,,4,0,1.28292110991,,,,,,2016_Apr_11_0947,P13,PLC_L_D1S1,NHGY,60.011409078,
stim/negf.jpg,stim/posf.jpg,stim/6.jpg,stim/1.jpg,stim/latef.jpg,AB,1,2,0,44,44,8,,,,,,,,,,,,,,,,,,4,0,1.33287191799,,,,,,2016_Apr_11_0947,P13,PLC_L_D1S1,NHGY,60.011409078,
stim/posf.jpg,stim/negf.jpg,stim/5.jpg,stim/2.jpg,stim/latef.jpg,CD,1,2,0,45,45,24,,,,,,,,,,,,,,,,,,2,1,1.04967182475,,,,,,2016_Apr_11_0947,P13,PLC_L_D1S1,NHGY,60.011409078,
stim/negf.jpg,stim/posf.jpg,stim/4.jpg,stim/3.jpg,stim/latef.jpg,EF,1,2,0,46,46,48,,,,,,,,,,,,,,,,,,4,0,1.11628859825,,,,,,2016_Apr_11_0947,P13,PLC_L_D1S1,NHGY,60.011409078,
stim/posf.jpg,stim/negf.jpg,stim/2.jpg,stim/5.jpg,stim/latef.jpg,CD,2,4,0,47,47,32,,,,,,,,,,,,,,,,,,4,1,1.06630728826,,,,,,2016_Apr_11_0947,P13,PLC_L_D1S1,NHGY,60.011409078,
stim/posf.jpg,stim/negf.jpg,stim/4.jpg,stim/3.jpg,stim/latef.jpg,EF,1,2,0,48,48,40,,,,,,,,,,,,,,,,,,4,0,1.23291151453,,,,,,2016_Apr_11_0947,P13,PLC_L_D1S1,NHGY,60.011409078,
stim/posf.jpg,stim/negf.jpg,stim/1.jpg,stim/6.jpg,stim/latef.jpg,AB,2,4,0,49,49,14,,,,,,,,,,,,,,,,,,4,1,0.833071801446,,,,,,2016_Apr_11_0947,P13,PLC_L_D1S1,NHGY,60.011409078,
stim/negf.jpg,stim/posf.jpg,stim/3.jpg,stim/4.jpg,stim/latef.jpg,EF,2,4,0,50,50,56,,,,,,,,,,,,,,,,,,2,0,1.26634829231,,,,,,2016_Apr_11_0947,P13,PLC_L_D1S1,NHGY,60.011409078,
stim/posf.jpg,stim/negf.jpg,stim/3.jpg,stim/4.jpg,stim/latef.jpg,EF,2,4,0,51,51,55,,,,,,,,,,,,,,,,,,2,0,1.08297733183,,,,,,2016_Apr_11_0947,P13,PLC_L_D1S1,NHGY,60.011409078,
stim/posf.jpg,stim/negf.jpg,stim/1.jpg,stim/6.jpg,stim/latef.jpg,AB,2,4,0,52,52,11,,,,,,,,,,,,,,,,,,4,1,0.683096247786,,,,,,2016_Apr_11_0947,P13,PLC_L_D1S1,NHGY,60.011409078,
stim/posf.jpg,stim/negf.jpg,stim/4.jpg,stim/3.jpg,stim/latef.jpg,EF,1,2,0,53,53,42,,,,,,,,,,,,,,,,,,4,0,1.13293437743,,,,,,2016_Apr_11_0947,P13,PLC_L_D1S1,NHGY,60.011409078,
stim/posf.jpg,stim/negf.jpg,stim/5.jpg,stim/2.jpg,stim/latef.jpg,CD,1,2,0,54,54,22,,,,,,,,,,,,,,,,,,2,1,0.81635007124,,,,,,2016_Apr_11_0947,P13,PLC_L_D1S1,NHGY,60.011409078,
stim/posf.jpg,stim/negf.jpg,stim/3.jpg,stim/4.jpg,stim/latef.jpg,EF,2,4,0,55,55,53,,,,,,,,,,,,,,,,,,2,0,1.08299072717,,,,,,2016_Apr_11_0947,P13,PLC_L_D1S1,NHGY,60.011409078,
stim/posf.jpg,stim/negf.jpg,stim/2.jpg,stim/5.jpg,stim/latef.jpg,CD,2,4,0,56,56,35,,,,,,,,,,,,,,,,,,4,1,1.44951243106,,,,,,2016_Apr_11_0947,P13,PLC_L_D1S1,NHGY,60.011409078,
stim/negf.jpg,stim/posf.jpg,stim/2.jpg,stim/5.jpg,stim/latef.jpg,CD,2,4,0,57,57,39,,,,,,,,,,,,,,,,,,4,1,0.766456904621,,,,,,2016_Apr_11_0947,P13,PLC_L_D1S1,NHGY,60.011409078,
stim/posf.jpg,stim/negf.jpg,stim/1.jpg,stim/6.jpg,stim/latef.jpg,AB,2,4,0,58,58,10,,,,,,,,,,,,,,,,,,4,1,1.49950128382,,,,,,2016_Apr_11_0947,P13,PLC_L_D1S1,NHGY,60.011409078,
stim/negf.jpg,stim/posf.jpg,stim/2.jpg,stim/5.jpg,stim/latef.jpg,CD,2,4,0,59,59,37,,,,,,,,,,,,,,,,,,4,1,0.799741452541,,,,,,2016_Apr_11_0947,P13,PLC_L_D1S1,NHGY,60.011409078,
,,,,,,,,,,,,,,,,,,,,,,,,,,,,,,,,0.9984375,0.724609375,1,0,0,2016_Apr_11_0947,P13,PLC_L_D1S1,NHGY,60.011409078,
stim/posf.jpg,stim/negf.jpg,stim/6.jpg,stim/1.jpg,stim/latef.jpg,AB,1,2,,,,,0,0,0,7,,,,,,,,,,,,,,4,0,0.81638954448,,,,,,2016_Apr_11_0947,P13,PLC_L_D1S1,NHGY,60.011409078,
stim/posf.jpg,stim/negf.jpg,stim/2.jpg,stim/5.jpg,stim/latef.jpg,CD,2,4,,,,,0,1,1,36,,,,,,,,,,,,,,4,1,0.983004766112,,,,,,2016_Apr_11_0947,P13,PLC_L_D1S1,NHGY,60.011409078,
stim/posf.jpg,stim/negf.jpg,stim/6.jpg,stim/1.jpg,stim/latef.jpg,AB,1,2,,,,,0,2,2,2,,,,,,,,,,,,,,4,0,1.03297951376,,,,,,2016_Apr_11_0947,P13,PLC_L_D1S1,NHGY,60.011409078,
stim/negf.jpg,stim/posf.jpg,stim/3.jpg,stim/4.jpg,stim/latef.jpg,EF,2,4,,,,,0,3,3,59,,,,,,,,,,,,,,2,0,1.08292659857,,,,,,2016_Apr_11_0947,P13,PLC_L_D1S1,NHGY,60.011409078,
stim/posf.jpg,stim/negf.jpg,stim/2.jpg,stim/5.jpg,stim/latef.jpg,CD,2,4,,,,,0,4,4,33,,,,,,,,,,,,,,4,1,0.799728342913,,,,,,2016_Apr_11_0947,P13,PLC_L_D1S1,NHGY,60.011409078,
stim/posf.jpg,stim/negf.jpg,stim/1.jpg,stim/6.jpg,stim/latef.jpg,AB,2,4,,,,,0,5,5,13,,,,,,,,,,,,,,2,0,0.816392151968,,,,,,2016_Apr_11_0947,P13,PLC_L_D1S1,NHGY,60.011409078,
stim/posf.jpg,stim/negf.jpg,stim/6.jpg,stim/1.jpg,stim/latef.jpg,AB,1,2,,,,,0,6,6,6,,,,,,,,,,,,,,2,1,1.2495894738,,,,,,2016_Apr_11_0947,P13,PLC_L_D1S1,NHGY,60.011409078,
stim/posf.jpg,stim/negf.jpg,stim/4.jpg,stim/3.jpg,stim/latef.jpg,EF,1,2,,,,,0,7,7,43,,,,,,,,,,,,,,4,0,0.883016585528,,,,,,2016_Apr_11_0947,P13,PLC_L_D1S1,NHGY,60.011409078,
stim/negf.jpg,stim/posf.jpg,stim/5.jpg,stim/2.jpg,stim/latef.jpg,CD,1,2,,,,,0,8,8,28,,,,,,,,,,,,,,2,1,0.833050252816,,,,,,2016_Apr_11_0947,P13,PLC_L_D1S1,NHGY,60.011409078,
stim/posf.jpg,stim/negf.jpg,stim/2.jpg,stim/5.jpg,stim/latef.jpg,CD,2,4,,,,,0,9,9,30,,,,,,,,,,,,,,4,1,0.966348932907,,,,,,2016_Apr_11_0947,P13,PLC_L_D1S1,NHGY,60.011409078,
stim/negf.jpg,stim/posf.jpg,stim/3.jpg,stim/4.jpg,stim/latef.jpg,EF,2,4,,,,,0,10,10,57,,,,,,,,,,,,,,2,0,0.916362344785,,,,,,2016_Apr_11_0947,P13,PLC_L_D1S1,NHGY,60.011409078,
stim/posf.jpg,stim/negf.jpg,stim/2.jpg,stim/5.jpg,stim/latef.jpg,CD,2,4,,,,,0,11,11,35,,,,,,,,,,,,,,4,1,0.816443904768,,,,,,2016_Apr_11_0947,P13,PLC_L_D1S1,NHGY,60.011409078,
stim/posf.jpg,stim/negf.jpg,stim/2.jpg,stim/5.jpg,stim/latef.jpg,CD,2,4,,,,,0,12,12,32,,,,,,,,,,,,,,4,1,0.766395215092,,,,,,2016_Apr_11_0947,P13,PLC_L_D1S1,NHGY,60.011409078,
stim/negf.jpg,stim/posf.jpg,stim/6.jpg,stim/1.jpg,stim/latef.jpg,AB,1,2,,,,,0,13,13,8,,,,,,,,,,,,,,2,1,0.98296426732,,,,,,2016_Apr_11_0947,P13,PLC_L_D1S1,NHGY,60.011409078,
stim/negf.jpg,stim/posf.jpg,stim/5.jpg,stim/2.jpg,stim/latef.jpg,CD,1,2,,,,,0,14,14,29,,,,,,,,,,,,,,2,1,0.899662635384,,,,,,2016_Apr_11_0947,P13,PLC_L_D1S1,NHGY,60.011409078,
stim/posf.jpg,stim/negf.jpg,stim/2.jpg,stim/5.jpg,stim/latef.jpg,CD,2,4,,,,,0,15,15,34,,,,,,,,,,,,,,4,1,0.816379397225,,,,,,2016_Apr_11_0947,P13,PLC_L_D1S1,NHGY,60.011409078,
stim/posf.jpg,stim/negf.jpg,stim/1.jpg,stim/6.jpg,stim/latef.jpg,AB,2,4,,,,,0,16,16,15,,,,,,,,,,,,,,2,0,0.982984829494,,,,,,2016_Apr_11_0947,P13,PLC_L_D1S1,NHGY,60.011409078,
stim/posf.jpg,stim/negf.jpg,stim/5.jpg,stim/2.jpg,stim/latef.jpg,CD,1,2,,,,,0,17,17,23,,,,,,,,,,,,,,2,1,1.04969381548,,,,,,2016_Apr_11_0947,P13,PLC_L_D1S1,NHGY,60.011409078,
stim/posf.jpg,stim/negf.jpg,stim/1.jpg,stim/6.jpg,stim/latef.jpg,AB,2,4,,,,,0,18,18,14,,,,,,,,,,,,,,2,0,1.29956154479,,,,,,2016_Apr_11_0947,P13,PLC_L_D1S1,NHGY,60.011409078,
stim/posf.jpg,stim/negf.jpg,stim/4.jpg,stim/3.jpg,stim/latef.jpg,EF,1,2,,,,,0,19,19,41,,,,,,,,,,,,,,4,0,0.982999409781,,,,,,2016_Apr_11_0947,P13,PLC_L_D1S1,NHGY,60.011409078,
stim/posf.jpg,stim/negf.jpg,stim/4.jpg,stim/3.jpg,stim/latef.jpg,EF,1,2,,,,,0,20,20,42,,,,,,,,,,,,,,4,0,1.21628735315,,,,,,2016_Apr_11_0947,P13,PLC_L_D1S1,NHGY,60.011409078,
stim/negf.jpg,stim/posf.jpg,stim/2.jpg,stim/5.jpg,stim/latef.jpg,CD,2,4,,,,,0,21,21,39,,,,,,,,,,,,,,4,1,0.799682981019,,,,,,2016_Apr_11_0947,P13,PLC_L_D1S1,NHGY,60.011409078,
stim/negf.jpg,stim/posf.jpg,stim/4.jpg,stim/3.jpg,stim/latef.jpg,EF,1,2,,,,,0,22,22,49,,,,,,,,,,,,,,4,0,0.733079395345,,,,,,2016_Apr_11_0947,P13,PLC_L_D1S1,NHGY,60.011409078,
stim/posf.jpg,stim/negf.jpg,stim/1.jpg,stim/6.jpg,stim/latef.jpg,AB,2,4,,,,,0,23,23,11,,,,,,,,,,,,,,2,0,0.749793829393,,,,,,2016_Apr_11_0947,P13,PLC_L_D1S1,NHGY,60.011409078,
stim/negf.jpg,stim/posf.jpg,stim/3.jpg,stim/4.jpg,stim/latef.jpg,EF,2,4,,,,,0,24,24,56,,,,,,,,,,,,,,2,0,0.833050276877,,,,,,2016_Apr_11_0947,P13,PLC_L_D1S1,NHGY,60.011409078,
stim/negf.jpg,stim/posf.jpg,stim/2.jpg,stim/5.jpg,stim/latef.jpg,CD,2,4,,,,,0,25,25,38,,,,,,,,,,,,,,4,1,0.916384708444,,,,,,2016_Apr_11_0947,P13,PLC_L_D1S1,NHGY,60.011409078,
stim/posf.jpg,stim/negf.jpg,stim/6.jpg,stim/1.jpg,stim/latef.jpg,AB,1,2,,,,,0,26,26,4,,,,,,,,,,,,,,4,0,0.916343668305,,,,,,2016_Apr_11_0947,P13,PLC_L_D1S1,NHGY,60.011409078,
stim/posf.jpg,stim/negf.jpg,stim/3.jpg,stim/4.jpg,stim/latef.jpg,EF,2,4,,,,,0,27,27,55,,,,,,,,,,,,,,2,0,0.899712842337,,,,,,2016_Apr_11_0947,P13,PLC_L_D1S1,NHGY,60.011409078,
stim/posf.jpg,stim/negf.jpg,stim/1.jpg,stim/6.jpg,stim/latef.jpg,AB,2,4,,,,,0,28,28,17,,,,,,,,,,,,,,2,0,0.833002563129,,,,,,2016_Apr_11_0947,P13,PLC_L_D1S1,NHGY,60.011409078,
stim/posf.jpg,stim/negf.jpg,stim/1.jpg,stim/6.jpg,stim/latef.jpg,AB,2,4,,,,,0,29,29,10,,,,,,,,,,,,,,2,0,1.13294744796,,,,,,2016_Apr_11_0947,P13,PLC_L_D1S1,NHGY,60.011409078,
stim/posf.jpg,stim/negf.jpg,stim/3.jpg,stim/4.jpg,stim/latef.jpg,EF,2,4,,,,,0,30,30,54,,,,,,,,,,,,,,2,0,0.949706224365,,,,,,2016_Apr_11_0947,P13,PLC_L_D1S1,NHGY,60.011409078,
stim/negf.jpg,stim/posf.jpg,stim/4.jpg,stim/3.jpg,stim/latef.jpg,EF,1,2,,,,,0,31,31,46,,,,,,,,,,,,,,4,0,0.899703696575,,,,,,2016_Apr_11_0947,P13,PLC_L_D1S1,NHGY,60.011409078,
stim/negf.jpg,stim/posf.jpg,stim/6.jpg,stim/1.jpg,stim/latef.jpg,AB,1,2,,,,,0,32,32,9,,,,,,,,,,,,,,4,0,0.616457832431,,,,,,2016_Apr_11_0947,P13,PLC_L_D1S1,NHGY,60.011409078,
stim/posf.jpg,stim/negf.jpg,stim/3.jpg,stim/4.jpg,stim/latef.jpg,EF,2,4,,,,,0,33,33,50,,,,,,,,,,,,,,2,0,0.899743491615,,,,,,2016_Apr_11_0947,P13,PLC_L_D1S1,NHGY,60.011409078,
stim/posf.jpg,stim/negf.jpg,stim/5.jpg,stim/2.jpg,stim/latef.jpg,CD,1,2,,,,,0,34,34,21,,,,,,,,,,,,,,2,1,0.849709364181,,,,,,2016_Apr_11_0947,P13,PLC_L_D1S1,NHGY,60.011409078,
stim/posf.jpg,stim/negf.jpg,stim/6.jpg,stim/1.jpg,stim/latef.jpg,AB,1,2,,,,,0,35,35,1,,,,,,,,,,,,,,4,0,1.13294308109,,,,,,2016_Apr_11_0947,P13,PLC_L_D1S1,NHGY,60.011409078,
stim/negf.jpg,stim/posf.jpg,stim/2.jpg,stim/5.jpg,stim/latef.jpg,CD,2,4,,,,,0,36,36,37,,,,,,,,,,,,,,2,0,0.833059774513,,,,,,2016_Apr_11_0947,P13,PLC_L_D1S1,NHGY,60.011409078,
stim/posf.jpg,stim/negf.jpg,stim/3.jpg,stim/4.jpg,stim/latef.jpg,EF,2,4,,,,,0,37,37,51,,,,,,,,,,,,,,4,1,0.699742571324,,,,,,2016_Apr_11_0947,P13,PLC_L_D1S1,NHGY,60.011409078,
stim/posf.jpg,stim/negf.jpg,stim/6.jpg,stim/1.jpg,stim/latef.jpg,AB,1,2,,,,,0,38,38,0,,,,,,,,,,,,,,2,1,0.949659770754,,,,,,2016_Apr_11_0947,P13,PLC_L_D1S1,NHGY,60.011409078,
stim/negf.jpg,stim/posf.jpg,stim/5.jpg,stim/2.jpg,stim/latef.jpg,CD,1,2,,,,,0,39,39,27,,,,,,,,,,,,,,4,0,0.916391093334,,,,,,2016_Apr_11_0947,P13,PLC_L_D1S1,NHGY,60.011409078,
stim/posf.jpg,stim/negf.jpg,stim/6.jpg,stim/1.jpg,stim/latef.jpg,AB,1,2,,,,,0,40,40,3,,,,,,,,,,,,,,2,1,1.03298711067,,,,,,2016_Apr_11_0947,P13,PLC_L_D1S1,NHGY,60.011409078,
stim/posf.jpg,stim/negf.jpg,stim/4.jpg,stim/3.jpg,stim/latef.jpg,EF,1,2,,,,,0,41,41,44,,,,,,,,,,,,,,2,1,0.883045204753,,,,,,2016_Apr_11_0947,P13,PLC_L_D1S1,NHGY,60.011409078,
stim/negf.jpg,stim/posf.jpg,stim/4.jpg,stim/3.jpg,stim/latef.jpg,EF,1,2,,,,,0,42,42,47,,,,,,,,,,,,,,2,1,0.832968987568,,,,,,2016_Apr_11_0947,P13,PLC_L_D1S1,NHGY,60.011409078,
stim/posf.jpg,stim/negf.jpg,stim/5.jpg,stim/2.jpg,stim/latef.jpg,CD,1,2,,,,,0,43,43,20,,,,,,,,,,,,,,4,0,0.849699806394,,,,,,2016_Apr_11_0947,P13,PLC_L_D1S1,NHGY,60.011409078,
stim/posf.jpg,stim/negf.jpg,stim/5.jpg,stim/2.jpg,stim/latef.jpg,CD,1,2,,,,,0,44,44,22,,,,,,,,,,,,,,2,1,1.01634407732,,,,,,2016_Apr_11_0947,P13,PLC_L_D1S1,NHGY,60.011409078,
stim/posf.jpg,stim/negf.jpg,stim/1.jpg,stim/6.jpg,stim/latef.jpg,AB,2,4,,,,,0,45,45,16,,,,,,,,,,,,,,2,0,1.03298842494,,,,,,2016_Apr_11_0947,P13,PLC_L_D1S1,NHGY,60.011409078,
stim/posf.jpg,stim/negf.jpg,stim/5.jpg,stim/2.jpg,stim/latef.jpg,CD,1,2,,,,,0,46,46,26,,,,,,,,,,,,,,4,0,0.683123612891,,,,,,2016_Apr_11_0947,P13,PLC_L_D1S1,NHGY,60.011409078,
stim/posf.jpg,stim/negf.jpg,stim/6.jpg,stim/1.jpg,stim/latef.jpg,AB,1,2,,,,,0,47,47,5,,,,,,,,,,,,,,2,1,1.06629957406,,,,,,2016_Apr_11_0947,P13,PLC_L_D1S1,NHGY,60.011409078,
stim/posf.jpg,stim/negf.jpg,stim/3.jpg,stim/4.jpg,stim/latef.jpg,EF,2,4,,,,,0,48,48,52,,,,,,,,,,,,,,4,1,1.49951530772,,,,,,2016_Apr_11_0947,P13,PLC_L_D1S1,NHGY,60.011409078,
stim/negf.jpg,stim/posf.jpg,stim/3.jpg,stim/4.jpg,stim/latef.jpg,EF,2,4,,,,,0,49,49,58,,,,,,,,,,,,,,4,1,1.21627756078,,,,,,2016_Apr_11_0947,P13,PLC_L_D1S1,NHGY,60.011409078,
stim/posf.jpg,stim/negf.jpg,stim/5.jpg,stim/2.jpg,stim/latef.jpg,CD,1,2,,,,,0,50,50,25,,,,,,,,,,,,,,4,0,0.866407849535,,,,,,2016_Apr_11_0947,P13,PLC_L_D1S1,NHGY,60.011409078,
stim/negf.jpg,stim/posf.jpg,stim/4.jpg,stim/3.jpg,stim/latef.jpg,EF,1,2,,,,,0,51,51,48,,,,,,,,,,,,,,2,1,0.799727230144,,,,,,2016_Apr_11_0947,P13,PLC_L_D1S1,NHGY,60.011409078,
stim/posf.jpg,stim/negf.jpg,stim/2.jpg,stim/5.jpg,stim/latef.jpg,CD,2,4,,,,,0,52,52,31,,,,,,,,,,,,,,2,0,0.883046627294,,,,,,2016_Apr_11_0947,P13,PLC_L_D1S1,NHGY,60.011409078,
stim/posf.jpg,stim/negf.jpg,stim/4.jpg,stim/3.jpg,stim/latef.jpg,EF,1,2,,,,,0,53,53,45,,,,,,,,,,,,,,4,0,0.966354520814,,,,,,2016_Apr_11_0947,P13,PLC_L_D1S1,NHGY,60.011409078,
stim/posf.jpg,stim/negf.jpg,stim/1.jpg,stim/6.jpg,stim/latef.jpg,AB,2,4,,,,,0,54,54,12,,,,,,,,,,,,,,4,1,0.933032177833,,,,,,2016_Apr_11_0947,P13,PLC_L_D1S1,NHGY,60.011409078,
stim/posf.jpg,stim/negf.jpg,stim/3.jpg,stim/4.jpg,stim/latef.jpg,EF,2,4,,,,,0,55,55,53,,,,,,,,,,,,,,4,1,0.799659868498,,,,,,2016_Apr_11_0947,P13,PLC_L_D1S1,NHGY,60.011409078,
stim/posf.jpg,stim/negf.jpg,stim/4.jpg,stim/3.jpg,stim/latef.jpg,EF,1,2,,,,,0,56,56,40,,,,,,,,,,,,,,2,1,0.833037016876,,,,,,2016_Apr_11_0947,P13,PLC_L_D1S1,NHGY,60.011409078,
stim/negf.jpg,stim/posf.jpg,stim/1.jpg,stim/6.jpg,stim/latef.jpg,AB,2,4,,,,,0,57,57,18,,,,,,,,,,,,,,4,1,0.849732133848,,,,,,2016_Apr_11_0947,P13,PLC_L_D1S1,NHGY,60.011409078,
stim/posf.jpg,stim/negf.jpg,stim/5.jpg,stim/2.jpg,stim/latef.jpg,CD,1,2,,,,,0,58,58,24,,,,,,,,,,,,,,4,0,0.766405687154,,,,,,2016_Apr_11_0947,P13,PLC_L_D1S1,NHGY,60.011409078,
stim/negf.jpg,stim/posf.jpg,stim/1.jpg,stim/6.jpg,stim/latef.jpg,AB,2,4,,,,,0,59,59,19,,,,,,,,,,,,,,4,1,0.916336504475,,,,,,2016_Apr_11_0947,P13,PLC_L_D1S1,NHGY,60.011409078,
,,,,,,,,,,,,,,,,,,,,,,,,,,,,,,,,0.9984375,0.724609375,1,0,0,2016_Apr_11_0947,P13,PLC_L_D1S1,NHGY,60.011409078,
stim/posf.jpg,stim/negf.jpg,stim/5.jpg,stim/2.jpg,stim/latef.jpg,CD,1,2,,,,,,,,,0,0,0,20,,,,,,,,,,4,0,1.46618907907,,,,,,2016_Apr_11_0947,P13,PLC_L_D1S1,NHGY,60.011409078,
stim/posf.jpg,stim/negf.jpg,stim/5.jpg,stim/2.jpg,stim/latef.jpg,CD,1,2,,,,,,,,,0,1,1,22,,,,,,,,,,2,1,1.03306313087,,,,,,2016_Apr_11_0947,P13,PLC_L_D1S1,NHGY,60.011409078,
stim/negf.jpg,stim/posf.jpg,stim/4.jpg,stim/3.jpg,stim/latef.jpg,EF,1,2,,,,,,,,,0,2,2,46,,,,,,,,,,4,0,1.08296803871,,,,,,2016_Apr_11_0947,P13,PLC_L_D1S1,NHGY,60.011409078,
stim/posf.jpg,stim/negf.jpg,stim/6.jpg,stim/1.jpg,stim/latef.jpg,AB,1,2,,,,,,,,,0,3,3,2,,,,,,,,,,2,1,1.43286580678,,,,,,2016_Apr_11_0947,P13,PLC_L_D1S1,NHGY,60.011409078,
stim/posf.jpg,stim/negf.jpg,stim/3.jpg,stim/4.jpg,stim/latef.jpg,EF,2,4,,,,,,,,,0,4,4,55,,,,,,,,,,2,0,0.816380822773,,,,,,2016_Apr_11_0947,P13,PLC_L_D1S1,NHGY,60.011409078,
stim/negf.jpg,stim/posf.jpg,stim/2.jpg,stim/5.jpg,stim/latef.jpg,CD,2,4,,,,,,,,,0,5,5,37,,,,,,,,,,4,1,0.799697314692,,,,,,2016_Apr_11_0947,P13,PLC_L_D1S1,NHGY,60.011409078,
stim/posf.jpg,stim/negf.jpg,stim/2.jpg,stim/5.jpg,stim/latef.jpg,CD,2,4,,,,,,,,,0,6,6,34,,,,,,,,,,2,0,0.916367478562,,,,,,2016_Apr_11_0947,P13,PLC_L_D1S1,NHGY,60.011409078,
stim/posf.jpg,stim/negf.jpg,stim/6.jpg,stim/1.jpg,stim/latef.jpg,AB,1,2,,,,,,,,,0,7,7,6,,,,,,,,,,4,0,0.982994636903,,,,,,2016_Apr_11_0947,P13,PLC_L_D1S1,NHGY,60.011409078,
stim/posf.jpg,stim/negf.jpg,stim/3.jpg,stim/4.jpg,stim/latef.jpg,EF,2,4,,,,,,,,,0,8,8,52,,,,,,,,,,2,0,0.816440512324,,,,,,2016_Apr_11_0947,P13,PLC_L_D1S1,NHGY,60.011409078,
stim/negf.jpg,stim/posf.jpg,stim/6.jpg,stim/1.jpg,stim/latef.jpg,AB,1,2,,,,,,,,,0,9,9,8,,,,,,,,,,2,1,0.783105811589,,,,,,2016_Apr_11_0947,P13,PLC_L_D1S1,NHGY,60.011409078,
stim/posf.jpg,stim/negf.jpg,stim/4.jpg,stim/3.jpg,stim/latef.jpg,EF,1,2,,,,,,,,,0,10,10,45,,,,,,,,,,4,0,1.03300534505,,,,,,2016_Apr_11_0947,P13,PLC_L_D1S1,NHGY,60.011409078,
stim/posf.jpg,stim/negf.jpg,stim/6.jpg,stim/1.jpg,stim/latef.jpg,AB,1,2,,,,,,,,,0,11,11,0,,,,,,,,,,4,0,1.08294919681,,,,,,2016_Apr_11_0947,P13,PLC_L_D1S1,NHGY,60.011409078,
stim/posf.jpg,stim/negf.jpg,stim/1.jpg,stim/6.jpg,stim/latef.jpg,AB,2,4,,,,,,,,,0,12,12,10,,,,,,,,,,2,0,0.716415093063,,,,,,2016_Apr_11_0947,P13,PLC_L_D1S1,NHGY,60.011409078,
stim/posf.jpg,stim/negf.jpg,stim/2.jpg,stim/5.jpg,stim/latef.jpg,CD,2,4,,,,,,,,,0,13,13,31,,,,,,,,,,4,1,1.0829576298,,,,,,2016_Apr_11_0947,P13,PLC_L_D1S1,NHGY,60.011409078,
stim/posf.jpg,stim/negf.jpg,stim/2.jpg,stim/5.jpg,stim/latef.jpg,CD,2,4,,,,,,,,,0,14,14,32,,,,,,,,,,4,1,0.683090485446,,,,,,2016_Apr_11_0947,P13,PLC_L_D1S1,NHGY,60.011409078,
stim/negf.jpg,stim/posf.jpg,stim/6.jpg,stim/1.jpg,stim/latef.jpg,AB,1,2,,,,,,,,,0,15,15,9,,,,,,,,,,4,0,0.899683937399,,,,,,2016_Apr_11_0947,P13,PLC_L_D1S1,NHGY,60.011409078,
stim/negf.jpg,stim/posf.jpg,stim/4.jpg,stim/3.jpg,stim/latef.jpg,EF,1,2,,,,,,,,,0,16,16,49,,,,,,,,,,4,0,1.14964048075,,,,,,2016_Apr_11_0947,P13,PLC_L_D1S1,NHGY,60.011409078,
stim/posf.jpg,stim/negf.jpg,stim/2.jpg,stim/5.jpg,stim/latef.jpg,CD,2,4,,,,,,,,,0,17,17,36,,,,,,,,,,4,1,0.816399021064,,,,,,2016_Apr_11_0947,P13,PLC_L_D1S1,NHGY,60.011409078,
stim/posf.jpg,stim/negf.jpg,stim/3.jpg,stim/4.jpg,stim/latef.jpg,EF,2,4,,,,,,,,,0,18,18,51,,,,,,,,,,4,1,1.18290707097,,,,,,2016_Apr_11_0947,P13,PLC_L_D1S1,NHGY,60.011409078,
stim/posf.jpg,stim/negf.jpg,stim/5.jpg,stim/2.jpg,stim/latef.jpg,CD,1,2,,,,,,,,,0,19,19,21,,,,,,,,,,2,1,1.03303213573,,,,,,2016_Apr_11_0947,P13,PLC_L_D1S1,NHGY,60.011409078,
stim/posf.jpg,stim/negf.jpg,stim/6.jpg,stim/1.jpg,stim/latef.jpg,AB,1,2,,,,,,,,,0,20,20,3,,,,,,,,,,4,0,1.14965244151,,,,,,2016_Apr_11_0947,P13,PLC_L_D1S1,NHGY,60.011409078,
stim/negf.jpg,stim/posf.jpg,stim/5.jpg,stim/2.jpg,stim/latef.jpg,CD,1,2,,,,,,,,,0,21,21,29,,,,,,,,,,2,1,0.783078124682,,,,,,2016_Apr_11_0947,P13,PLC_L_D1S1,NHGY,60.011409078,
stim/posf.jpg,stim/negf.jpg,stim/1.jpg,stim/6.jpg,stim/latef.jpg,AB,2,4,,,,,,,,,0,22,22,16,,,,,,,,,,4,1,1.31623803641,,,,,,2016_Apr_11_0947,P13,PLC_L_D1S1,NHGY,60.011409078,
stim/negf.jpg,stim/posf.jpg,stim/5.jpg,stim/2.jpg,stim/latef.jpg,CD,1,2,,,,,,,,,0,23,23,27,,,,,,,,,,4,0,1.03301241866,,,,,,2016_Apr_11_0947,P13,PLC_L_D1S1,NHGY,60.011409078,
stim/posf.jpg,stim/negf.jpg,stim/5.jpg,stim/2.jpg,stim/latef.jpg,CD,1,2,,,,,,,,,0,24,24,26,,,,,,,,,,4,0,0.866371684529,,,,,,2016_Apr_11_0947,P13,PLC_L_D1S1,NHGY,60.011409078,
stim/posf.jpg,stim/negf.jpg,stim/3.jpg,stim/4.jpg,stim/latef.jpg,EF,2,4,,,,,,,,,0,25,25,54,,,,,,,,,,2,0,1.08293003312,,,,,,2016_Apr_11_0947,P13,PLC_L_D1S1,NHGY,60.011409078,
stim/posf.jpg,stim/negf.jpg,stim/5.jpg,stim/2.jpg,stim/latef.jpg,CD,1,2,,,,,,,,,0,26,26,25,,,,,,,,,,4,0,0.749757811755,,,,,,2016_Apr_11_0947,P13,PLC_L_D1S1,NHGY,60.011409078,
stim/negf.jpg,stim/posf.jpg,stim/4.jpg,stim/3.jpg,stim/latef.jpg,EF,1,2,,,,,,,,,0,27,27,48,,,,,,,,,,4,0,0.699759491434,,,,,,2016_Apr_11_0947,P13,PLC_L_D1S1,NHGY,60.011409078,
stim/posf.jpg,stim/negf.jpg,stim/5.jpg,stim/2.jpg,stim/latef.jpg,CD,1,2,,,,,,,,,0,28,28,23,,,,,,,,,,4,0,0.949677719424,,,,,,2016_Apr_11_0947,P13,PLC_L_D1S1,NHGY,60.011409078,
stim/posf.jpg,stim/negf.jpg,stim/6.jpg,stim/1.jpg,stim/latef.jpg,AB,1,2,,,,,,,,,0,29,29,4,,,,,,,,,,4,0,0.94962594858,,,,,,2016_Apr_11_0947,P13,PLC_L_D1S1,NHGY,60.011409078,
stim/negf.jpg,stim/posf.jpg,stim/1.jpg,stim/6.jpg,stim/latef.jpg,AB,2,4,,,,,,,,,0,30,30,18,,,,,,,,,,2,0,1.19958906027,,,,,,2016_Apr_11_0947,P13,PLC_L_D1S1,NHGY,60.011409078,
stim/negf.jpg,stim/posf.jpg,stim/2.jpg,stim/5.jpg,stim/latef.jpg,CD,2,4,,,,,,,,,0,31,31,38,,,,,,,,,,4,1,0.733079368278,,,,,,2016_Apr_11_0947,P13,PLC_L_D1S1,NHGY,60.011409078,
stim/negf.jpg,stim/posf.jpg,stim/3.jpg,stim/4.jpg,stim/latef.jpg,EF,2,4,,,,,,,,,0,32,32,59,,,,,,,,,,2,0,0.649766100382,,,,,,2016_Apr_11_0947,P13,PLC_L_D1S1,NHGY,60.011409078,
stim/posf.jpg,stim/negf.jpg,stim/1.jpg,stim/6.jpg,stim/latef.jpg,AB,2,4,,,,,,,,,0,33,33,15,,,,,,,,,,4,1,1.19959466322,,,,,,2016_Apr_11_0947,P13,PLC_L_D1S1,NHGY,60.011409078,
stim/negf.jpg,stim/posf.jpg,stim/3.jpg,stim/4.jpg,stim/latef.jpg,EF,2,4,,,,,,,,,0,34,34,58,,,,,,,,,,4,1,1.23291704229,,,,,,2016_Apr_11_0947,P13,PLC_L_D1S1,NHGY,60.011409078,
stim/posf.jpg,stim/negf.jpg,stim/6.jpg,stim/1.jpg,stim/latef.jpg,AB,1,2,,,,,,,,,0,35,35,1,,,,,,,,,,4,0,1.03299567298,,,,,,2016_Apr_11_0947,P13,PLC_L_D1S1,NHGY,60.011409078,
stim/negf.jpg,stim/posf.jpg,stim/3.jpg,stim/4.jpg,stim/latef.jpg,EF,2,4,,,,,,,,,0,36,36,57,,,,,,,,,,2,0,1.16628127051,,,,,,2016_Apr_11_0947,P13,PLC_L_D1S1,NHGY,60.011409078,
stim/posf.jpg,stim/negf.jpg,stim/6.jpg,stim/1.jpg,stim/latef.jpg,AB,1,2,,,,,,,,,0,37,37,5,,,,,,,,,,4,0,0.899701275549,,,,,,2016_Apr_11_0947,P13,PLC_L_D1S1,NHGY,60.011409078,
stim/negf.jpg,stim/posf.jpg,stim/3.jpg,stim/4.jpg,stim/latef.jpg,EF,2,4,,,,,,,,,0,38,38,56,,,,,,,,,,2,0,1.03299934211,,,,,,2016_Apr_11_0947,P13,PLC_L_D1S1,NHGY,60.011409078,
stim/posf.jpg,stim/negf.jpg,stim/3.jpg,stim/4.jpg,stim/latef.jpg,EF,2,4,,,,,,,,,0,39,39,50,,,,,,,,,,2,0,0.883048353589,,,,,,2016_Apr_11_0947,P13,PLC_L_D1S1,NHGY,60.011409078,
stim/posf.jpg,stim/negf.jpg,stim/3.jpg,stim/4.jpg,stim/latef.jpg,EF,2,4,,,,,,,,,0,40,40,53,,,,,,,,,,2,0,0.933014908855,,,,,,2016_Apr_11_0947,P13,PLC_L_D1S1,NHGY,60.011409078,
stim/posf.jpg,stim/negf.jpg,stim/1.jpg,stim/6.jpg,stim/latef.jpg,AB,2,4,,,,,,,,,0,41,41,14,,,,,,,,,,4,1,0.89966082187,,,,,,2016_Apr_11_0947,P13,PLC_L_D1S1,NHGY,60.011409078,
stim/posf.jpg,stim/negf.jpg,stim/1.jpg,stim/6.jpg,stim/latef.jpg,AB,2,4,,,,,,,,,0,42,42,17,,,,,,,,,,4,1,0.816398801518,,,,,,2016_Apr_11_0947,P13,PLC_L_D1S1,NHGY,60.011409078,
stim/negf.jpg,stim/posf.jpg,stim/4.jpg,stim/3.jpg,stim/latef.jpg,EF,1,2,,,,,,,,,0,43,43,47,,,,,,,,,,4,0,1.36627533674,,,,,,2016_Apr_11_0947,P13,PLC_L_D1S1,NHGY,60.011409078,
stim/posf.jpg,stim/negf.jpg,stim/4.jpg,stim/3.jpg,stim/latef.jpg,EF,1,2,,,,,,,,,0,44,44,42,,,,,,,,,,4,0,0.599810931456,,,,,,2016_Apr_11_0947,P13,PLC_L_D1S1,NHGY,60.011409078,
stim/posf.jpg,stim/negf.jpg,stim/5.jpg,stim/2.jpg,stim/latef.jpg,CD,1,2,,,,,,,,,0,45,45,24,,,,,,,,,,4,0,1.13293478344,,,,,,2016_Apr_11_0947,P13,PLC_L_D1S1,NHGY,60.011409078,
stim/negf.jpg,stim/posf.jpg,stim/1.jpg,stim/6.jpg,stim/latef.jpg,AB,2,4,,,,,,,,,0,46,46,19,,,,,,,,,,2,0,1.09967225332,,,,,,2016_Apr_11_0947,P13,PLC_L_D1S1,NHGY,60.011409078,
stim/posf.jpg,stim/negf.jpg,stim/1.jpg,stim/6.jpg,stim/latef.jpg,AB,2,4,,,,,,,,,0,47,47,13,,,,,,,,,,2,0,0.866419259933,,,,,,2016_Apr_11_0947,P13,PLC_L_D1S1,NHGY,60.011409078,
stim/posf.jpg,stim/negf.jpg,stim/4.jpg,stim/3.jpg,stim/latef.jpg,EF,1,2,,,,,,,,,0,48,48,41,,,,,,,,,,4,0,1.01633349098,,,,,,2016_Apr_11_0947,P13,PLC_L_D1S1,NHGY,60.011409078,
stim/posf.jpg,stim/negf.jpg,stim/1.jpg,stim/6.jpg,stim/latef.jpg,AB,2,4,,,,,,,,,0,49,49,11,,,,,,,,,,2,0,0.749797715063,,,,,,2016_Apr_11_0947,P13,PLC_L_D1S1,NHGY,60.011409078,
stim/posf.jpg,stim/negf.jpg,stim/6.jpg,stim/1.jpg,stim/latef.jpg,AB,1,2,,,,,,,,,0,50,50,7,,,,,,,,,,4,0,1.23291349045,,,,,,2016_Apr_11_0947,P13,PLC_L_D1S1,NHGY,60.011409078,
stim/posf.jpg,stim/negf.jpg,stim/4.jpg,stim/3.jpg,stim/latef.jpg,EF,1,2,,,,,,,,,0,51,51,43,,,,,,,,,,4,0,1.0996012857,,,,,,2016_Apr_11_0947,P13,PLC_L_D1S1,NHGY,60.011409078,
stim/negf.jpg,stim/posf.jpg,stim/2.jpg,stim/5.jpg,stim/latef.jpg,CD,2,4,,,,,,,,,0,52,52,39,,,,,,,,,,4,1,0.999708105548,,,,,,2016_Apr_11_0947,P13,PLC_L_D1S1,NHGY,60.011409078,
stim/posf.jpg,stim/negf.jpg,stim/2.jpg,stim/5.jpg,stim/latef.jpg,CD,2,4,,,,,,,,,0,53,53,35,,,,,,,,,,2,0,1.46612252042,,,,,,2016_Apr_11_0947,P13,PLC_L_D1S1,NHGY,60.011409078,
stim/posf.jpg,stim/negf.jpg,stim/4.jpg,stim/3.jpg,stim/latef.jpg,EF,1,2,,,,,,,,,0,54,54,40,,,,,,,,,,2,1,0.833055236219,,,,,,2016_Apr_11_0947,P13,PLC_L_D1S1,NHGY,60.011409078,
stim/posf.jpg,stim/negf.jpg,stim/4.jpg,stim/3.jpg,stim/latef.jpg,EF,1,2,,,,,,,,,0,55,55,44,,,,,,,,,,2,1,0.299903438683,,,,,,2016_Apr_11_0947,P13,PLC_L_D1S1,NHGY,60.011409078,
stim/posf.jpg,stim/negf.jpg,stim/2.jpg,stim/5.jpg,stim/latef.jpg,CD,2,4,,,,,,,,,0,56,56,30,,,,,,,,,,2,0,0.399902494333,,,,,,2016_Apr_11_0947,P13,PLC_L_D1S1,NHGY,60.011409078,
stim/negf.jpg,stim/posf.jpg,stim/5.jpg,stim/2.jpg,stim/latef.jpg,CD,1,2,,,,,,,,,0,57,57,28,,,,,,,,,,2,1,1.18293538644,,,,,,2016_Apr_11_0947,P13,PLC_L_D1S1,NHGY,60.011409078,
stim/posf.jpg,stim/negf.jpg,stim/2.jpg,stim/5.jpg,stim/latef.jpg,CD,2,4,,,,,,,,,0,58,58,33,,,,,,,,,,2,0,0.966354421566,,,,,,2016_Apr_11_0947,P13,PLC_L_D1S1,NHGY,60.011409078,
stim/posf.jpg,stim/negf.jpg,stim/1.jpg,stim/6.jpg,stim/latef.jpg,AB,2,4,,,,,,,,,0,59,59,12,,,,,,,,,,2,0,0.499831656034,,,,,,2016_Apr_11_0947,P13,PLC_L_D1S1,NHGY,60.011409078,
,,,,,,,,,,,,,,,,,,,,,,,,,,,,,,,,0.9984375,0.724609375,1,0,0,2016_Apr_11_0947,P13,PLC_L_D1S1,NHGY,60.011409078,
stim/negf.jpg,stim/posf.jpg,stim/5.jpg,stim/2.jpg,stim/latef.jpg,CD,1,2,,,,,,,,,,,,,0,0,0,27,,,,,,2,1,0.833104934906,,,,,,2016_Apr_11_0947,P13,PLC_L_D1S1,NHGY,60.011409078,
stim/posf.jpg,stim/negf.jpg,stim/1.jpg,stim/6.jpg,stim/latef.jpg,AB,2,4,,,,,,,,,,,,,0,1,1,16,,,,,,4,1,0.899681080288,,,,,,2016_Apr_11_0947,P13,PLC_L_D1S1,NHGY,60.011409078,
stim/negf.jpg,stim/posf.jpg,stim/6.jpg,stim/1.jpg,stim/latef.jpg,AB,1,2,,,,,,,,,,,,,0,2,2,9,,,,,,4,0,1.01635845611,,,,,,2016_Apr_11_0947,P13,PLC_L_D1S1,NHGY,60.011409078,
stim/posf.jpg,stim/negf.jpg,stim/6.jpg,stim/1.jpg,stim/latef.jpg,AB,1,2,,,,,,,,,,,,,0,3,3,6,,,,,,4,0,1.11635468472,,,,,,2016_Apr_11_0947,P13,PLC_L_D1S1,NHGY,60.011409078,
stim/posf.jpg,stim/negf.jpg,stim/1.jpg,stim/6.jpg,stim/latef.jpg,AB,2,4,,,,,,,,,,,,,0,4,4,10,,,,,,2,0,0.983014056233,,,,,,2016_Apr_11_0947,P13,PLC_L_D1S1,NHGY,60.011409078,
stim/posf.jpg,stim/negf.jpg,stim/5.jpg,stim/2.jpg,stim/latef.jpg,CD,1,2,,,,,,,,,,,,,0,5,5,21,,,,,,2,1,0.799706755187,,,,,,2016_Apr_11_0947,P13,PLC_L_D1S1,NHGY,60.011409078,
stim/posf.jpg,stim/negf.jpg,stim/3.jpg,stim/4.jpg,stim/latef.jpg,EF,2,4,,,,,,,,,,,,,0,6,6,55,,,,,,4,1,1.18292357605,,,,,,2016_Apr_11_0947,P13,PLC_L_D1S1,NHGY,60.011409078,
stim/negf.jpg,stim/posf.jpg,stim/2.jpg,stim/5.jpg,stim/latef.jpg,CD,2,4,,,,,,,,,,,,,0,7,7,38,,,,,,4,1,0.599801430811,,,,,,2016_Apr_11_0947,P13,PLC_L_D1S1,NHGY,60.011409078,
stim/negf.jpg,stim/posf.jpg,stim/3.jpg,stim/4.jpg,stim/latef.jpg,EF,2,4,,,,,,,,,,,,,0,8,8,58,,,,,,2,0,0.316543347256,,,,,,2016_Apr_11_0947,P13,PLC_L_D1S1,NHGY,60.011409078,
stim/posf.jpg,stim/negf.jpg,stim/3.jpg,stim/4.jpg,stim/latef.jpg,EF,2,4,,,,,,,,,,,,,0,9,9,51,,,,,,4,1,0.316555497494,,,,,,2016_Apr_11_0947,P13,PLC_L_D1S1,NHGY,60.011409078,
stim/posf.jpg,stim/negf.jpg,stim/1.jpg,stim/6.jpg,stim/latef.jpg,AB,2,4,,,,,,,,,,,,,0,10,10,12,,,,,,2,0,0.266579576923,,,,,,2016_Apr_11_0947,P13,PLC_L_D1S1,NHGY,60.011409078,
stim/negf.jpg,stim/posf.jpg,stim/6.jpg,stim/1.jpg,stim/latef.jpg,AB,1,2,,,,,,,,,,,,,0,11,11,8,,,,,,4,0,0.29989170047,,,,,,2016_Apr_11_0947,P13,PLC_L_D1S1,NHGY,60.011409078,
stim/negf.jpg,stim/posf.jpg,stim/5.jpg,stim/2.jpg,stim/latef.jpg,CD,1,2,,,,,,,,,,,,,0,12,12,29,,,,,,2,1,0.533167451496,,,,,,2016_Apr_11_0947,P13,PLC_L_D1S1,NHGY,60.011409078,
stim/posf.jpg,stim/negf.jpg,stim/6.jpg,stim/1.jpg,stim/latef.jpg,AB,1,2,,,,,,,,,,,,,0,13,13,7,,,,,,4,0,0.316554459912,,,,,,2016_Apr_11_0947,P13,PLC_L_D1S1,NHGY,60.011409078,
stim/posf.jpg,stim/negf.jpg,stim/6.jpg,stim/1.jpg,stim/latef.jpg,AB,1,2,,,,,,,,,,,,,0,14,14,0,,,,,,2,1,0.34987298038,,,,,,2016_Apr_11_0947,P13,PLC_L_D1S1,NHGY,60.011409078,
stim/posf.jpg,stim/negf.jpg,stim/3.jpg,stim/4.jpg,stim/latef.jpg,EF,2,4,,,,,,,,,,,,,0,15,15,54,,,,,,4,1,0.399872954817,,,,,,2016_Apr_11_0947,P13,PLC_L_D1S1,NHGY,60.011409078,
stim/posf.jpg,stim/negf.jpg,stim/6.jpg,stim/1.jpg,stim/latef.jpg,AB,1,2,,,,,,,,,,,,,0,16,16,1,,,,,,2,1,0.566482050202,,,,,,2016_Apr_11_0947,P13,PLC_L_D1S1,NHGY,60.011409078,
stim/posf.jpg,stim/negf.jpg,stim/2.jpg,stim/5.jpg,stim/latef.jpg,CD,2,4,,,,,,,,,,,,,0,17,17,30,,,,,,4,1,0.816405084152,,,,,,2016_Apr_11_0947,P13,PLC_L_D1S1,NHGY,60.011409078,
stim/posf.jpg,stim/negf.jpg,stim/2.jpg,stim/5.jpg,stim/latef.jpg,CD,2,4,,,,,,,,,,,,,0,18,18,33,,,,,,2,0,0.683064079729,,,,,,2016_Apr_11_0947,P13,PLC_L_D1S1,NHGY,60.011409078,
stim/posf.jpg,stim/negf.jpg,stim/1.jpg,stim/6.jpg,stim/latef.jpg,AB,2,4,,,,,,,,,,,,,0,19,19,13,,,,,,4,1,0.566497361307,,,,,,2016_Apr_11_0947,P13,PLC_L_D1S1,NHGY,60.011409078,
stim/negf.jpg,stim/posf.jpg,stim/4.jpg,stim/3.jpg,stim/latef.jpg,EF,1,2,,,,,,,,,,,,,0,20,20,48,,,,,,2,1,0.683103237182,,,,,,2016_Apr_11_0947,P13,PLC_L_D1S1,NHGY,60.011409078,
stim/negf.jpg,stim/posf.jpg,stim/1.jpg,stim/6.jpg,stim/latef.jpg,AB,2,4,,,,,,,,,,,,,0,21,21,19,,,,,,2,0,0.916388118932,,,,,,2016_Apr_11_0947,P13,PLC_L_D1S1,NHGY,60.011409078,
stim/negf.jpg,stim/posf.jpg,stim/4.jpg,stim/3.jpg,stim/latef.jpg,EF,1,2,,,,,,,,,,,,,0,22,22,47,,,,,,4,0,0.766412844968,,,,,,2016_Apr_11_0947,P13,PLC_L_D1S1,NHGY,60.011409078,
stim/posf.jpg,stim/negf.jpg,stim/5.jpg,stim/2.jpg,stim/latef.jpg,CD,1,2,,,,,,,,,,,,,0,23,23,24,,,,,,2,1,0.683020654655,,,,,,2016_Apr_11_0947,P13,PLC_L_D1S1,NHGY,60.011409078,
stim/posf.jpg,stim/negf.jpg,stim/4.jpg,stim/3.jpg,stim/latef.jpg,EF,1,2,,,,,,,,,,,,,0,24,24,43,,,,,,4,0,0.799715353586,,,,,,2016_Apr_11_0947,P13,PLC_L_D1S1,NHGY,60.011409078,
stim/posf.jpg,stim/negf.jpg,stim/2.jpg,stim/5.jpg,stim/latef.jpg,CD,2,4,,,,,,,,,,,,,0,25,25,35,,,,,,2,0,1.04959464968,,,,,,2016_Apr_11_0947,P13,PLC_L_D1S1,NHGY,60.011409078,
stim/posf.jpg,stim/negf.jpg,stim/5.jpg,stim/2.jpg,stim/latef.jpg,CD,1,2,,,,,,,,,,,,,0,26,26,22,,,,,,2,1,0.649860294809,,,,,,2016_Apr_11_0947,P13,PLC_L_D1S1,NHGY,60.011409078,
stim/posf.jpg,stim/negf.jpg,stim/5.jpg,stim/2.jpg,stim/latef.jpg,CD,1,2,,,,,,,,,,,,,0,27,27,25,,,,,,4,0,0.749727845175,,,,,,2016_Apr_11_0947,P13,PLC_L_D1S1,NHGY,60.011409078,
stim/negf.jpg,stim/posf.jpg,stim/4.jpg,stim/3.jpg,stim/latef.jpg,EF,1,2,,,,,,,,,,,,,0,28,28,49,,,,,,4,0,0.749749556208,,,,,,2016_Apr_11_0947,P13,PLC_L_D1S1,NHGY,60.011409078,
stim/posf.jpg,stim/negf.jpg,stim/6.jpg,stim/1.jpg,stim/latef.jpg,AB,1,2,,,,,,,,,,,,,0,29,29,4,,,,,,4,0,0.866386409176,,,,,,2016_Apr_11_0947,P13,PLC_L_D1S1,NHGY,60.011409078,
stim/negf.jpg,stim/posf.jpg,stim/3.jpg,stim/4.jpg,stim/latef.jpg,EF,2,4,,,,,,,,,,,,,0,30,30,56,,,,,,2,0,0.866382752074,,,,,,2016_Apr_11_0947,P13,PLC_L_D1S1,NHGY,60.011409078,
stim/posf.jpg,stim/negf.jpg,stim/5.jpg,stim/2.jpg,stim/latef.jpg,CD,1,2,,,,,,,,,,,,,0,31,31,26,,,,,,2,1,0.783068966892,,,,,,2016_Apr_11_0947,P13,PLC_L_D1S1,NHGY,60.011409078,
stim/posf.jpg,stim/negf.jpg,stim/4.jpg,stim/3.jpg,stim/latef.jpg,EF,1,2,,,,,,,,,,,,,0,32,32,44,,,,,,4,0,0.899692192946,,,,,,2016_Apr_11_0947,P13,PLC_L_D1S1,NHGY,60.011409078,
stim/negf.jpg,stim/posf.jpg,stim/2.jpg,stim/5.jpg,stim/latef.jpg,CD,2,4,,,,,,,,,,,,,0,33,33,39,,,,,,4,1,0.84976147487,,,,,,2016_Apr_11_0947,P13,PLC_L_D1S1,NHGY,60.011409078,
stim/posf.jpg,stim/negf.jpg,stim/4.jpg,stim/3.jpg,stim/latef.jpg,EF,1,2,,,,,,,,,,,,,0,34,34,45,,,,,,4,0,0.816397896264,,,,,,2016_Apr_11_0947,P13,PLC_L_D1S1,NHGY,60.011409078,
stim/posf.jpg,stim/negf.jpg,stim/6.jpg,stim/1.jpg,stim/latef.jpg,AB,1,2,,,,,,,,,,,,,0,35,35,2,,,,,,4,0,1.14955970572,,,,,,2016_Apr_11_0947,P13,PLC_L_D1S1,NHGY,60.011409078,
stim/posf.jpg,stim/negf.jpg,stim/1.jpg,stim/6.jpg,stim/latef.jpg,AB,2,4,,,,,,,,,,,,,0,36,36,15,,,,,,4,1,0.933068481182,,,,,,2016_Apr_11_0947,P13,PLC_L_D1S1,NHGY,60.011409078,
stim/negf.jpg,stim/posf.jpg,stim/4.jpg,stim/3.jpg,stim/latef.jpg,EF,1,2,,,,,,,,,,,,,0,37,37,46,,,,,,4,0,0.966323639958,,,,,,2016_Apr_11_0947,P13,PLC_L_D1S1,NHGY,60.011409078,
stim/posf.jpg,stim/negf.jpg,stim/3.jpg,stim/4.jpg,stim/latef.jpg,EF,2,4,,,,,,,,,,,,,0,38,38,52,,,,,,2,0,0.799735849596,,,,,,2016_Apr_11_0947,P13,PLC_L_D1S1,NHGY,60.011409078,
stim/posf.jpg,stim/negf.jpg,stim/1.jpg,stim/6.jpg,stim/latef.jpg,AB,2,4,,,,,,,,,,,,,0,39,39,14,,,,,,4,1,1.1161949572,,,,,,2016_Apr_11_0947,P13,PLC_L_D1S1,NHGY,60.011409078,
stim/posf.jpg,stim/negf.jpg,stim/6.jpg,stim/1.jpg,stim/latef.jpg,AB,1,2,,,,,,,,,,,,,0,40,40,3,,,,,,2,1,1.03296410642,,,,,,2016_Apr_11_0947,P13,PLC_L_D1S1,NHGY,60.011409078,
stim/posf.jpg,stim/negf.jpg,stim/3.jpg,stim/4.jpg,stim/latef.jpg,EF,2,4,,,,,,,,,,,,,0,41,41,50,,,,,,2,0,0.849721300888,,,,,,2016_Apr_11_0947,P13,PLC_L_D1S1,NHGY,60.011409078,
stim/negf.jpg,stim/posf.jpg,stim/3.jpg,stim/4.jpg,stim/latef.jpg,EF,2,4,,,,,,,,,,,,,0,42,42,57,,,,,,4,1,0.749742825457,,,,,,2016_Apr_11_0947,P13,PLC_L_D1S1,NHGY,60.011409078,
stim/posf.jpg,stim/negf.jpg,stim/1.jpg,stim/6.jpg,stim/latef.jpg,AB,2,4,,,,,,,,,,,,,0,43,43,17,,,,,,4,1,0.766423900483,,,,,,2016_Apr_11_0947,P13,PLC_L_D1S1,NHGY,60.011409078,
stim/posf.jpg,stim/negf.jpg,stim/2.jpg,stim/5.jpg,stim/latef.jpg,CD,2,4,,,,,,,,,,,,,0,44,44,34,,,,,,4,1,0.93302982598,,,,,,2016_Apr_11_0947,P13,PLC_L_D1S1,NHGY,60.011409078,
stim/posf.jpg,stim/negf.jpg,stim/6.jpg,stim/1.jpg,stim/latef.jpg,AB,1,2,,,,,,,,,,,,,0,45,45,5,,,,,,2,1,0.983242459672,,,,,,2016_Apr_11_0947,P13,PLC_L_D1S1,NHGY,60.011409078,
stim/posf.jpg,stim/negf.jpg,stim/4.jpg,stim/3.jpg,stim/latef.jpg,EF,1,2,,,,,,,,,,,,,0,46,46,42,,,,,,2,1,1.11625970233,,,,,,2016_Apr_11_0947,P13,PLC_L_D1S1,NHGY,60.011409078,
stim/negf.jpg,stim/posf.jpg,stim/2.jpg,stim/5.jpg,stim/latef.jpg,CD,2,4,,,,,,,,,,,,,0,47,47,37,,,,,,4,1,0.916319286624,,,,,,2016_Apr_11_0947,P13,PLC_L_D1S1,NHGY,60.011409078,
stim/posf.jpg,stim/negf.jpg,stim/1.jpg,stim/6.jpg,stim/latef.jpg,AB,2,4,,,,,,,,,,,,,0,48,48,11,,,,,,4,1,1.38286265644,,,,,,2016_Apr_11_0947,P13,PLC_L_D1S1,NHGY,60.011409078,
stim/posf.jpg,stim/negf.jpg,stim/2.jpg,stim/5.jpg,stim/latef.jpg,CD,2,4,,,,,,,,,,,,,0,49,49,32,,,,,,4,1,0.966353702778,,,,,,2016_Apr_11_0947,P13,PLC_L_D1S1,NHGY,60.011409078,
stim/posf.jpg,stim/negf.jpg,stim/2.jpg,stim/5.jpg,stim/latef.jpg,CD,2,4,,,,,,,,,,,,,0,50,50,36,,,,,,4,1,0.88304346342,,,,,,2016_Apr_11_0947,P13,PLC_L_D1S1,NHGY,60.011409078,
stim/negf.jpg,stim/posf.jpg,stim/3.jpg,stim/4.jpg,stim/latef.jpg,EF,2,4,,,,,,,,,,,,,0,51,51,59,,,,,,2,0,1.13301306226,,,,,,2016_Apr_11_0947,P13,PLC_L_D1S1,NHGY,60.011409078,
stim/posf.jpg,stim/negf.jpg,stim/5.jpg,stim/2.jpg,stim/latef.jpg,CD,1,2,,,,,,,,,,,,,0,52,52,23,,,,,,2,1,0.93300992846,,,,,,2016_Apr_11_0947,P13,PLC_L_D1S1,NHGY,60.011409078,
stim/negf.jpg,stim/posf.jpg,stim/1.jpg,stim/6.jpg,stim/latef.jpg,AB,2,4,,,,,,,,,,,,,0,53,53,18,,,,,,4,1,0.666444345365,,,,,,2016_Apr_11_0947,P13,PLC_L_D1S1,NHGY,60.011409078,
stim/posf.jpg,stim/negf.jpg,stim/4.jpg,stim/3.jpg,stim/latef.jpg,EF,1,2,,,,,,,,,,,,,0,54,54,40,,,,,,4,0,1.09954881411,,,,,,2016_Apr_11_0947,P13,PLC_L_D1S1,NHGY,60.011409078,
stim/posf.jpg,stim/negf.jpg,stim/2.jpg,stim/5.jpg,stim/latef.jpg,CD,2,4,,,,,,,,,,,,,0,55,55,31,,,,,,4,1,0.799698138742,,,,,,2016_Apr_11_0947,P13,PLC_L_D1S1,NHGY,60.011409078,
stim/negf.jpg,stim/posf.jpg,stim/5.jpg,stim/2.jpg,stim/latef.jpg,CD,1,2,,,,,,,,,,,,,0,56,56,28,,,,,,2,1,0.932953285489,,,,,,2016_Apr_11_0947,P13,PLC_L_D1S1,NHGY,60.011409078,
stim/posf.jpg,stim/negf.jpg,stim/5.jpg,stim/2.jpg,stim/latef.jpg,CD,1,2,,,,,,,,,,,,,0,57,57,20,,,,,,2,1,0.683070022518,,,,,,2016_Apr_11_0947,P13,PLC_L_D1S1,NHGY,60.011409078,
stim/posf.jpg,stim/negf.jpg,stim/3.jpg,stim/4.jpg,stim/latef.jpg,EF,2,4,,,,,,,,,,,,,0,58,58,53,,,,,,4,1,1.06631035891,,,,,,2016_Apr_11_0947,P13,PLC_L_D1S1,NHGY,60.011409078,
stim/posf.jpg,stim/negf.jpg,stim/4.jpg,stim/3.jpg,stim/latef.jpg,EF,1,2,,,,,,,,,,,,,0,59,59,41,,,,,,2,1,1.0496477348,,,,,,2016_Apr_11_0947,P13,PLC_L_D1S1,NHGY,60.011409078,
