fb_corr,fb_incorr,symbol2,symbol1,fb_late,pair,position,correct,block_01.thisRepN,block_01.thisTrialN,block_01.thisN,block_01.thisIndex,block_02.thisRepN,block_02.thisTrialN,block_02.thisN,block_02.thisIndex,block_03.thisRepN,block_03.thisTrialN,block_03.thisN,block_03.thisIndex,block_04.thisRepN,block_04.thisTrialN,block_04.thisN,block_04.thisIndex,mouse.x,mouse.y,mouse.leftButton,mouse.midButton,mouse.rightButton,buttonBox_2.keys,buttonBox_2.corr,buttonBox_2.rt,mouse_2.x,mouse_2.y,mouse_2.leftButton,mouse_2.midButton,mouse_2.rightButton,date,Participant,expName,Group,frameRate,
,,,,,,,,,,,,,,,,,,,,,,,,0.9984375,0.408203125,1,0,0,,,,,,,,,2016_Feb_15_1558,P14,PLC_L_D1S1,NHGY,60.0177867915,
stim/posf.jpg,stim/negf.jpg,stim/5.jpg,stim/3.jpg,stim/latef.jpg,CD,1,2,0,0,0,21,,,,,,,,,,,,,,,,,,None,0,,,,,,,2016_Feb_15_1558,P14,PLC_L_D1S1,NHGY,60.0177867915,
stim/posf.jpg,stim/negf.jpg,stim/1.jpg,stim/4.jpg,stim/latef.jpg,AB,1,2,0,1,1,7,,,,,,,,,,,,,,,,,,4,0,0.816366914535,,,,,,2016_Feb_15_1558,P14,PLC_L_D1S1,NHGY,60.0177867915,
stim/posf.jpg,stim/negf.jpg,stim/1.jpg,stim/4.jpg,stim/latef.jpg,AB,1,2,0,2,2,4,,,,,,,,,,,,,,,,,,4,0,1.0329257765,,,,,,2016_Feb_15_1558,P14,PLC_L_D1S1,NHGY,60.0177867915,
stim/posf.jpg,stim/negf.jpg,stim/5.jpg,stim/3.jpg,stim/latef.jpg,CD,1,2,0,3,3,24,,,,,,,,,,,,,,,,,,4,0,0.733113621703,,,,,,2016_Feb_15_1558,P14,PLC_L_D1S1,NHGY,60.0177867915,
stim/posf.jpg,stim/negf.jpg,stim/4.jpg,stim/1.jpg,stim/latef.jpg,AB,2,4,0,4,4,15,,,,,,,,,,,,,,,,,,4,1,0.483169540079,,,,,,2016_Feb_15_1558,P14,PLC_L_D1S1,NHGY,60.0177867915,
stim/posf.jpg,stim/negf.jpg,stim/5.jpg,stim/3.jpg,stim/latef.jpg,CD,1,2,0,5,5,20,,,,,,,,,,,,,,,,,,2,1,0.849730456162,,,,,,2016_Feb_15_1558,P14,PLC_L_D1S1,NHGY,60.0177867915,
stim/posf.jpg,stim/negf.jpg,stim/5.jpg,stim/3.jpg,stim/latef.jpg,CD,1,2,0,6,6,25,,,,,,,,,,,,,,,,,,2,1,1.13295970406,,,,,,2016_Feb_15_1558,P14,PLC_L_D1S1,NHGY,60.0177867915,
stim/negf.jpg,stim/posf.jpg,stim/6.jpg,stim/2.jpg,stim/latef.jpg,EF,2,4,0,7,7,59,,,,,,,,,,,,,,,,,,4,1,1.249572719,,,,,,2016_Feb_15_1558,P14,PLC_L_D1S1,NHGY,60.0177867915,
stim/posf.jpg,stim/negf.jpg,stim/4.jpg,stim/1.jpg,stim/latef.jpg,AB,2,4,0,8,8,12,,,,,,,,,,,,,,,,,,2,0,1.38287291073,,,,,,2016_Feb_15_1558,P14,PLC_L_D1S1,NHGY,60.0177867915,
stim/posf.jpg,stim/negf.jpg,stim/3.jpg,stim/5.jpg,stim/latef.jpg,CD,2,4,0,9,9,32,,,,,,,,,,,,,,,,,,2,0,1.04960572928,,,,,,2016_Feb_15_1558,P14,PLC_L_D1S1,NHGY,60.0177867915,
stim/posf.jpg,stim/negf.jpg,stim/4.jpg,stim/1.jpg,stim/latef.jpg,AB,2,4,0,10,10,10,,,,,,,,,,,,,,,,,,4,1,0.799720793078,,,,,,2016_Feb_15_1558,P14,PLC_L_D1S1,NHGY,60.0177867915,
stim/posf.jpg,stim/negf.jpg,stim/3.jpg,stim/5.jpg,stim/latef.jpg,CD,2,4,0,11,11,30,,,,,,,,,,,,,,,,,,2,0,1.03300207367,,,,,,2016_Feb_15_1558,P14,PLC_L_D1S1,NHGY,60.0177867915,
stim/negf.jpg,stim/posf.jpg,stim/5.jpg,stim/3.jpg,stim/latef.jpg,CD,1,2,0,12,12,29,,,,,,,,,,,,,,,,,,4,0,1.24961167209,,,,,,2016_Feb_15_1558,P14,PLC_L_D1S1,NHGY,60.0177867915,
stim/posf.jpg,stim/negf.jpg,stim/5.jpg,stim/3.jpg,stim/latef.jpg,CD,1,2,0,13,13,22,,,,,,,,,,,,,,,,,,2,1,1.11630780821,,,,,,2016_Feb_15_1558,P14,PLC_L_D1S1,NHGY,60.0177867915,
stim/posf.jpg,stim/negf.jpg,stim/3.jpg,stim/5.jpg,stim/latef.jpg,CD,2,4,0,14,14,34,,,,,,,,,,,,,,,,,,4,1,0.816392691784,,,,,,2016_Feb_15_1558,P14,PLC_L_D1S1,NHGY,60.0177867915,
stim/posf.jpg,stim/negf.jpg,stim/2.jpg,stim/6.jpg,stim/latef.jpg,EF,1,2,0,15,15,45,,,,,,,,,,,,,,,,,,4,0,0.899717647236,,,,,,2016_Feb_15_1558,P14,PLC_L_D1S1,NHGY,60.0177867915,
stim/posf.jpg,stim/negf.jpg,stim/1.jpg,stim/4.jpg,stim/latef.jpg,AB,1,2,0,16,16,2,,,,,,,,,,,,,,,,,,2,1,0.866310316464,,,,,,2016_Feb_15_1558,P14,PLC_L_D1S1,NHGY,60.0177867915,
stim/negf.jpg,stim/posf.jpg,stim/3.jpg,stim/5.jpg,stim/latef.jpg,CD,2,4,0,17,17,38,,,,,,,,,,,,,,,,,,2,0,1.13295518079,,,,,,2016_Feb_15_1558,P14,PLC_L_D1S1,NHGY,60.0177867915,
stim/negf.jpg,stim/posf.jpg,stim/6.jpg,stim/2.jpg,stim/latef.jpg,EF,2,4,0,18,18,58,,,,,,,,,,,,,,,,,,2,0,1.06632604868,,,,,,2016_Feb_15_1558,P14,PLC_L_D1S1,NHGY,60.0177867915,
stim/negf.jpg,stim/posf.jpg,stim/3.jpg,stim/5.jpg,stim/latef.jpg,CD,2,4,0,19,19,39,,,,,,,,,,,,,,,,,,4,1,0.849710913452,,,,,,2016_Feb_15_1558,P14,PLC_L_D1S1,NHGY,60.0177867915,
stim/negf.jpg,stim/posf.jpg,stim/5.jpg,stim/3.jpg,stim/latef.jpg,CD,1,2,0,20,20,28,,,,,,,,,,,,,,,,,,4,0,0.883041649311,,,,,,2016_Feb_15_1558,P14,PLC_L_D1S1,NHGY,60.0177867915,
stim/negf.jpg,stim/posf.jpg,stim/6.jpg,stim/2.jpg,stim/latef.jpg,EF,2,4,0,21,21,57,,,,,,,,,,,,,,,,,,2,0,1.23296567093,,,,,,2016_Feb_15_1558,P14,PLC_L_D1S1,NHGY,60.0177867915,
stim/negf.jpg,stim/posf.jpg,stim/3.jpg,stim/5.jpg,stim/latef.jpg,CD,2,4,0,22,22,37,,,,,,,,,,,,,,,,,,2,0,1.28290994805,,,,,,2016_Feb_15_1558,P14,PLC_L_D1S1,NHGY,60.0177867915,
stim/posf.jpg,stim/negf.jpg,stim/6.jpg,stim/2.jpg,stim/latef.jpg,EF,2,4,0,23,23,51,,,,,,,,,,,,,,,,,,2,0,1.16628291517,,,,,,2016_Feb_15_1558,P14,PLC_L_D1S1,NHGY,60.0177867915,
stim/posf.jpg,stim/negf.jpg,stim/1.jpg,stim/4.jpg,stim/latef.jpg,AB,1,2,0,24,24,3,,,,,,,,,,,,,,,,,,2,1,0.683116346494,,,,,,2016_Feb_15_1558,P14,PLC_L_D1S1,NHGY,60.0177867915,
stim/posf.jpg,stim/negf.jpg,stim/6.jpg,stim/2.jpg,stim/latef.jpg,EF,2,4,0,25,25,53,,,,,,,,,,,,,,,,,,2,0,0.850756839422,,,,,,2016_Feb_15_1558,P14,PLC_L_D1S1,NHGY,60.0177867915,
stim/posf.jpg,stim/negf.jpg,stim/2.jpg,stim/6.jpg,stim/latef.jpg,EF,1,2,0,26,26,41,,,,,,,,,,,,,,,,,,2,1,0.91635461989,,,,,,2016_Feb_15_1558,P14,PLC_L_D1S1,NHGY,60.0177867915,
stim/negf.jpg,stim/posf.jpg,stim/1.jpg,stim/4.jpg,stim/latef.jpg,AB,1,2,0,27,27,9,,,,,,,,,,,,,,,,,,2,1,1.03303395012,,,,,,2016_Feb_15_1558,P14,PLC_L_D1S1,NHGY,60.0177867915,
stim/posf.jpg,stim/negf.jpg,stim/1.jpg,stim/4.jpg,stim/latef.jpg,AB,1,2,0,28,28,6,,,,,,,,,,,,,,,,,,4,0,0.866367116037,,,,,,2016_Feb_15_1558,P14,PLC_L_D1S1,NHGY,60.0177867915,
stim/posf.jpg,stim/negf.jpg,stim/3.jpg,stim/5.jpg,stim/latef.jpg,CD,2,4,0,29,29,35,,,,,,,,,,,,,,,,,,2,0,1.34951148638,,,,,,2016_Feb_15_1558,P14,PLC_L_D1S1,NHGY,60.0177867915,
stim/negf.jpg,stim/posf.jpg,stim/5.jpg,stim/3.jpg,stim/latef.jpg,CD,1,2,0,30,30,27,,,,,,,,,,,,,,,,,,2,1,0.649772398704,,,,,,2016_Feb_15_1558,P14,PLC_L_D1S1,NHGY,60.0177867915,
stim/posf.jpg,stim/negf.jpg,stim/4.jpg,stim/1.jpg,stim/latef.jpg,AB,2,4,0,31,31,13,,,,,,,,,,,,,,,,,,2,0,0.983028711063,,,,,,2016_Feb_15_1558,P14,PLC_L_D1S1,NHGY,60.0177867915,
stim/posf.jpg,stim/negf.jpg,stim/2.jpg,stim/6.jpg,stim/latef.jpg,EF,1,2,0,32,32,43,,,,,,,,,,,,,,,,,,2,1,1.04966225216,,,,,,2016_Feb_15_1558,P14,PLC_L_D1S1,NHGY,60.0177867915,
stim/negf.jpg,stim/posf.jpg,stim/2.jpg,stim/6.jpg,stim/latef.jpg,EF,1,2,0,33,33,46,,,,,,,,,,,,,,,,,,2,1,1.06631896903,,,,,,2016_Feb_15_1558,P14,PLC_L_D1S1,NHGY,60.0177867915,
stim/posf.jpg,stim/negf.jpg,stim/4.jpg,stim/1.jpg,stim/latef.jpg,AB,2,4,0,34,34,11,,,,,,,,,,,,,,,,,,4,1,0.799735932813,,,,,,2016_Feb_15_1558,P14,PLC_L_D1S1,NHGY,60.0177867915,
stim/negf.jpg,stim/posf.jpg,stim/2.jpg,stim/6.jpg,stim/latef.jpg,EF,1,2,0,35,35,47,,,,,,,,,,,,,,,,,,4,0,1.03297751145,,,,,,2016_Feb_15_1558,P14,PLC_L_D1S1,NHGY,60.0177867915,
stim/posf.jpg,stim/negf.jpg,stim/6.jpg,stim/2.jpg,stim/latef.jpg,EF,2,4,0,36,36,50,,,,,,,,,,,,,,,,,,2,0,0.933044692897,,,,,,2016_Feb_15_1558,P14,PLC_L_D1S1,NHGY,60.0177867915,
stim/negf.jpg,stim/posf.jpg,stim/6.jpg,stim/2.jpg,stim/latef.jpg,EF,2,4,0,37,37,56,,,,,,,,,,,,,,,,,,2,0,0.683044716957,,,,,,2016_Feb_15_1558,P14,PLC_L_D1S1,NHGY,60.0177867915,
stim/posf.jpg,stim/negf.jpg,stim/2.jpg,stim/6.jpg,stim/latef.jpg,EF,1,2,0,38,38,44,,,,,,,,,,,,,,,,,,2,1,1.24962787949,,,,,,2016_Feb_15_1558,P14,PLC_L_D1S1,NHGY,60.0177867915,
stim/posf.jpg,stim/negf.jpg,stim/6.jpg,stim/2.jpg,stim/latef.jpg,EF,2,4,0,39,39,55,,,,,,,,,,,,,,,,,,2,0,1.21626851527,,,,,,2016_Feb_15_1558,P14,PLC_L_D1S1,NHGY,60.0177867915,
stim/posf.jpg,stim/negf.jpg,stim/4.jpg,stim/1.jpg,stim/latef.jpg,AB,2,4,0,40,40,16,,,,,,,,,,,,,,,,,,4,1,0.783068692716,,,,,,2016_Feb_15_1558,P14,PLC_L_D1S1,NHGY,60.0177867915,
stim/negf.jpg,stim/posf.jpg,stim/4.jpg,stim/1.jpg,stim/latef.jpg,AB,2,4,0,41,41,18,,,,,,,,,,,,,,,,,,2,0,1.59948051218,,,,,,2016_Feb_15_1558,P14,PLC_L_D1S1,NHGY,60.0177867915,
stim/posf.jpg,stim/negf.jpg,stim/5.jpg,stim/3.jpg,stim/latef.jpg,CD,1,2,0,42,42,26,,,,,,,,,,,,,,,,,,2,1,0.866370135563,,,,,,2016_Feb_15_1558,P14,PLC_L_D1S1,NHGY,60.0177867915,
stim/negf.jpg,stim/posf.jpg,stim/2.jpg,stim/6.jpg,stim/latef.jpg,EF,1,2,0,43,43,49,,,,,,,,,,,,,,,,,,4,0,0.216606377396,,,,,,2016_Feb_15_1558,P14,PLC_L_D1S1,NHGY,60.0177867915,
stim/posf.jpg,stim/negf.jpg,stim/3.jpg,stim/5.jpg,stim/latef.jpg,CD,2,4,0,44,44,33,,,,,,,,,,,,,,,,,,2,0,0.299890412854,,,,,,2016_Feb_15_1558,P14,PLC_L_D1S1,NHGY,60.0177867915,
stim/negf.jpg,stim/posf.jpg,stim/4.jpg,stim/1.jpg,stim/latef.jpg,AB,2,4,0,45,45,19,,,,,,,,,,,,,,,,,,2,0,0.683056533409,,,,,,2016_Feb_15_1558,P14,PLC_L_D1S1,NHGY,60.0177867915,
stim/posf.jpg,stim/negf.jpg,stim/3.jpg,stim/5.jpg,stim/latef.jpg,CD,2,4,0,46,46,36,,,,,,,,,,,,,,,,,,2,0,1.01632460809,,,,,,2016_Feb_15_1558,P14,PLC_L_D1S1,NHGY,60.0177867915,
stim/posf.jpg,stim/negf.jpg,stim/1.jpg,stim/4.jpg,stim/latef.jpg,AB,1,2,0,47,47,0,,,,,,,,,,,,,,,,,,2,1,0.849718501364,,,,,,2016_Feb_15_1558,P14,PLC_L_D1S1,NHGY,60.0177867915,
stim/posf.jpg,stim/negf.jpg,stim/2.jpg,stim/6.jpg,stim/latef.jpg,EF,1,2,0,48,48,40,,,,,,,,,,,,,,,,,,4,0,1.26627517688,,,,,,2016_Feb_15_1558,P14,PLC_L_D1S1,NHGY,60.0177867915,
stim/posf.jpg,stim/negf.jpg,stim/4.jpg,stim/1.jpg,stim/latef.jpg,AB,2,4,0,49,49,17,,,,,,,,,,,,,,,,,,4,1,0.399850256766,,,,,,2016_Feb_15_1558,P14,PLC_L_D1S1,NHGY,60.0177867915,
stim/posf.jpg,stim/negf.jpg,stim/1.jpg,stim/4.jpg,stim/latef.jpg,AB,1,2,0,50,50,1,,,,,,,,,,,,,,,,,,2,1,0.5997955865,,,,,,2016_Feb_15_1558,P14,PLC_L_D1S1,NHGY,60.0177867915,
stim/posf.jpg,stim/negf.jpg,stim/2.jpg,stim/6.jpg,stim/latef.jpg,EF,1,2,0,51,51,42,,,,,,,,,,,,,,,,,,2,1,1.16627656935,,,,,,2016_Feb_15_1558,P14,PLC_L_D1S1,NHGY,60.0177867915,
stim/negf.jpg,stim/posf.jpg,stim/1.jpg,stim/4.jpg,stim/latef.jpg,AB,1,2,0,52,52,8,,,,,,,,,,,,,,,,,,2,1,0.633034223802,,,,,,2016_Feb_15_1558,P14,PLC_L_D1S1,NHGY,60.0177867915,
stim/posf.jpg,stim/negf.jpg,stim/4.jpg,stim/1.jpg,stim/latef.jpg,AB,2,4,0,53,53,14,,,,,,,,,,,,,,,,,,4,1,0.633145191389,,,,,,2016_Feb_15_1558,P14,PLC_L_D1S1,NHGY,60.0177867915,
stim/posf.jpg,stim/negf.jpg,stim/5.jpg,stim/3.jpg,stim/latef.jpg,CD,1,2,0,54,54,23,,,,,,,,,,,,,,,,,,2,1,0.799736107248,,,,,,2016_Feb_15_1558,P14,PLC_L_D1S1,NHGY,60.0177867915,
stim/posf.jpg,stim/negf.jpg,stim/6.jpg,stim/2.jpg,stim/latef.jpg,EF,2,4,0,55,55,54,,,,,,,,,,,,,,,,,,4,1,1.18293320501,,,,,,2016_Feb_15_1558,P14,PLC_L_D1S1,NHGY,60.0177867915,
stim/posf.jpg,stim/negf.jpg,stim/1.jpg,stim/4.jpg,stim/latef.jpg,AB,1,2,0,56,56,5,,,,,,,,,,,,,,,,,,2,1,0.799739174893,,,,,,2016_Feb_15_1558,P14,PLC_L_D1S1,NHGY,60.0177867915,
stim/posf.jpg,stim/negf.jpg,stim/3.jpg,stim/5.jpg,stim/latef.jpg,CD,2,4,0,57,57,31,,,,,,,,,,,,,,,,,,2,0,0.299897555657,,,,,,2016_Feb_15_1558,P14,PLC_L_D1S1,NHGY,60.0177867915,
stim/posf.jpg,stim/negf.jpg,stim/6.jpg,stim/2.jpg,stim/latef.jpg,EF,2,4,0,58,58,52,,,,,,,,,,,,,,,,,,2,0,0.316565355148,,,,,,2016_Feb_15_1558,P14,PLC_L_D1S1,NHGY,60.0177867915,
stim/negf.jpg,stim/posf.jpg,stim/2.jpg,stim/6.jpg,stim/latef.jpg,EF,1,2,0,59,59,48,,,,,,,,,,,,,,,,,,4,0,0.416457840166,,,,,,2016_Feb_15_1558,P14,PLC_L_D1S1,NHGY,60.0177867915,
,,,,,,,,,,,,,,,,,,,,,,,,,,,,,,,,0.9984375,0.408203125,1,0,0,2016_Feb_15_1558,P14,PLC_L_D1S1,NHGY,60.0177867915,
stim/negf.jpg,stim/posf.jpg,stim/3.jpg,stim/5.jpg,stim/latef.jpg,CD,2,4,,,,,0,0,0,37,,,,,,,,,,,,,,2,0,1.04966437245,,,,,,2016_Feb_15_1558,P14,PLC_L_D1S1,NHGY,60.0177867915,
stim/posf.jpg,stim/negf.jpg,stim/3.jpg,stim/5.jpg,stim/latef.jpg,CD,2,4,,,,,0,1,1,33,,,,,,,,,,,,,,2,0,1.04960107067,,,,,,2016_Feb_15_1558,P14,PLC_L_D1S1,NHGY,60.0177867915,
stim/posf.jpg,stim/negf.jpg,stim/6.jpg,stim/2.jpg,stim/latef.jpg,EF,2,4,,,,,0,2,2,55,,,,,,,,,,,,,,2,0,0.816402303743,,,,,,2016_Feb_15_1558,P14,PLC_L_D1S1,NHGY,60.0177867915,
stim/posf.jpg,stim/negf.jpg,stim/3.jpg,stim/5.jpg,stim/latef.jpg,CD,2,4,,,,,0,3,3,34,,,,,,,,,,,,,,4,1,0.366556362734,,,,,,2016_Feb_15_1558,P14,PLC_L_D1S1,NHGY,60.0177867915,
stim/negf.jpg,stim/posf.jpg,stim/6.jpg,stim/2.jpg,stim/latef.jpg,EF,2,4,,,,,0,4,4,57,,,,,,,,,,,,,,2,0,0.23329879625,,,,,,2016_Feb_15_1558,P14,PLC_L_D1S1,NHGY,60.0177867915,
stim/posf.jpg,stim/negf.jpg,stim/4.jpg,stim/1.jpg,stim/latef.jpg,AB,2,4,,,,,0,5,5,11,,,,,,,,,,,,,,4,1,0.166616205893,,,,,,2016_Feb_15_1558,P14,PLC_L_D1S1,NHGY,60.0177867915,
stim/posf.jpg,stim/negf.jpg,stim/3.jpg,stim/5.jpg,stim/latef.jpg,CD,2,4,,,,,0,6,6,36,,,,,,,,,,,,,,2,0,0.199956658973,,,,,,2016_Feb_15_1558,P14,PLC_L_D1S1,NHGY,60.0177867915,
stim/posf.jpg,stim/negf.jpg,stim/6.jpg,stim/2.jpg,stim/latef.jpg,EF,2,4,,,,,0,7,7,51,,,,,,,,,,,,,,4,1,0.183280561801,,,,,,2016_Feb_15_1558,P14,PLC_L_D1S1,NHGY,60.0177867915,
stim/posf.jpg,stim/negf.jpg,stim/2.jpg,stim/6.jpg,stim/latef.jpg,EF,1,2,,,,,0,8,8,44,,,,,,,,,,,,,,2,1,0.19985611236,,,,,,2016_Feb_15_1558,P14,PLC_L_D1S1,NHGY,60.0177867915,
stim/negf.jpg,stim/posf.jpg,stim/6.jpg,stim/2.jpg,stim/latef.jpg,EF,2,4,,,,,0,9,9,59,,,,,,,,,,,,,,4,1,0.449841880888,,,,,,2016_Feb_15_1558,P14,PLC_L_D1S1,NHGY,60.0177867915,
stim/posf.jpg,stim/negf.jpg,stim/4.jpg,stim/1.jpg,stim/latef.jpg,AB,2,4,,,,,0,10,10,13,,,,,,,,,,,,,,2,0,0.216590233156,,,,,,2016_Feb_15_1558,P14,PLC_L_D1S1,NHGY,60.0177867915,
stim/posf.jpg,stim/negf.jpg,stim/2.jpg,stim/6.jpg,stim/latef.jpg,EF,1,2,,,,,0,11,11,40,,,,,,,,,,,,,,2,1,0.183249001135,,,,,,2016_Feb_15_1558,P14,PLC_L_D1S1,NHGY,60.0177867915,
stim/posf.jpg,stim/negf.jpg,stim/1.jpg,stim/4.jpg,stim/latef.jpg,AB,1,2,,,,,0,12,12,3,,,,,,,,,,,,,,4,0,0.216592407575,,,,,,2016_Feb_15_1558,P14,PLC_L_D1S1,NHGY,60.0177867915,
stim/negf.jpg,stim/posf.jpg,stim/3.jpg,stim/5.jpg,stim/latef.jpg,CD,2,4,,,,,0,13,13,38,,,,,,,,,,,,,,4,1,1.01634145307,,,,,,2016_Feb_15_1558,P14,PLC_L_D1S1,NHGY,60.0177867915,
stim/negf.jpg,stim/posf.jpg,stim/5.jpg,stim/3.jpg,stim/latef.jpg,CD,1,2,,,,,0,14,14,28,,,,,,,,,,,,,,4,0,1.13297200773,,,,,,2016_Feb_15_1558,P14,PLC_L_D1S1,NHGY,60.0177867915,
stim/posf.jpg,stim/negf.jpg,stim/5.jpg,stim/3.jpg,stim/latef.jpg,CD,1,2,,,,,0,15,15,24,,,,,,,,,,,,,,4,0,1.54944938459,,,,,,2016_Feb_15_1558,P14,PLC_L_D1S1,NHGY,60.0177867915,
stim/posf.jpg,stim/negf.jpg,stim/1.jpg,stim/4.jpg,stim/latef.jpg,AB,1,2,,,,,0,16,16,4,,,,,,,,,,,,,,2,1,1.01631053,,,,,,2016_Feb_15_1558,P14,PLC_L_D1S1,NHGY,60.0177867915,
stim/negf.jpg,stim/posf.jpg,stim/5.jpg,stim/3.jpg,stim/latef.jpg,CD,1,2,,,,,0,17,17,27,,,,,,,,,,,,,,4,0,1.41620136089,,,,,,2016_Feb_15_1558,P14,PLC_L_D1S1,NHGY,60.0177867915,
stim/posf.jpg,stim/negf.jpg,stim/4.jpg,stim/1.jpg,stim/latef.jpg,AB,2,4,,,,,0,18,18,12,,,,,,,,,,,,,,4,1,0.899662441636,,,,,,2016_Feb_15_1558,P14,PLC_L_D1S1,NHGY,60.0177867915,
stim/negf.jpg,stim/posf.jpg,stim/6.jpg,stim/2.jpg,stim/latef.jpg,EF,2,4,,,,,0,19,19,58,,,,,,,,,,,,,,4,1,0.899693803805,,,,,,2016_Feb_15_1558,P14,PLC_L_D1S1,NHGY,60.0177867915,
stim/negf.jpg,stim/posf.jpg,stim/3.jpg,stim/5.jpg,stim/latef.jpg,CD,2,4,,,,,0,20,20,39,,,,,,,,,,,,,,2,0,1.2162519981,,,,,,2016_Feb_15_1558,P14,PLC_L_D1S1,NHGY,60.0177867915,
stim/negf.jpg,stim/posf.jpg,stim/4.jpg,stim/1.jpg,stim/latef.jpg,AB,2,4,,,,,0,21,21,18,,,,,,,,,,,,,,2,0,0.799753523658,,,,,,2016_Feb_15_1558,P14,PLC_L_D1S1,NHGY,60.0177867915,
stim/posf.jpg,stim/negf.jpg,stim/4.jpg,stim/1.jpg,stim/latef.jpg,AB,2,4,,,,,0,22,22,17,,,,,,,,,,,,,,4,1,1.21620189923,,,,,,2016_Feb_15_1558,P14,PLC_L_D1S1,NHGY,60.0177867915,
stim/posf.jpg,stim/negf.jpg,stim/4.jpg,stim/1.jpg,stim/latef.jpg,AB,2,4,,,,,0,23,23,15,,,,,,,,,,,,,,4,1,0.899706212736,,,,,,2016_Feb_15_1558,P14,PLC_L_D1S1,NHGY,60.0177867915,
stim/posf.jpg,stim/negf.jpg,stim/3.jpg,stim/5.jpg,stim/latef.jpg,CD,2,4,,,,,0,24,24,30,,,,,,,,,,,,,,2,0,0.849730167442,,,,,,2016_Feb_15_1558,P14,PLC_L_D1S1,NHGY,60.0177867915,
stim/posf.jpg,stim/negf.jpg,stim/3.jpg,stim/5.jpg,stim/latef.jpg,CD,2,4,,,,,0,25,25,32,,,,,,,,,,,,,,2,0,0.283244928986,,,,,,2016_Feb_15_1558,P14,PLC_L_D1S1,NHGY,60.0177867915,
stim/negf.jpg,stim/posf.jpg,stim/4.jpg,stim/1.jpg,stim/latef.jpg,AB,2,4,,,,,0,26,26,19,,,,,,,,,,,,,,2,0,0.783072181413,,,,,,2016_Feb_15_1558,P14,PLC_L_D1S1,NHGY,60.0177867915,
stim/posf.jpg,stim/negf.jpg,stim/3.jpg,stim/5.jpg,stim/latef.jpg,CD,2,4,,,,,0,27,27,35,,,,,,,,,,,,,,4,1,1.44959083616,,,,,,2016_Feb_15_1558,P14,PLC_L_D1S1,NHGY,60.0177867915,
stim/posf.jpg,stim/negf.jpg,stim/5.jpg,stim/3.jpg,stim/latef.jpg,CD,1,2,,,,,0,28,28,20,,,,,,,,,,,,,,2,1,0.983001721791,,,,,,2016_Feb_15_1558,P14,PLC_L_D1S1,NHGY,60.0177867915,
stim/negf.jpg,stim/posf.jpg,stim/2.jpg,stim/6.jpg,stim/latef.jpg,EF,1,2,,,,,0,29,29,46,,,,,,,,,,,,,,2,1,0.283230932098,,,,,,2016_Feb_15_1558,P14,PLC_L_D1S1,NHGY,60.0177867915,
stim/posf.jpg,stim/negf.jpg,stim/6.jpg,stim/2.jpg,stim/latef.jpg,EF,2,4,,,,,0,30,30,54,,,,,,,,,,,,,,4,1,0.499818437455,,,,,,2016_Feb_15_1558,P14,PLC_L_D1S1,NHGY,60.0177867915,
stim/posf.jpg,stim/negf.jpg,stim/2.jpg,stim/6.jpg,stim/latef.jpg,EF,1,2,,,,,0,31,31,45,,,,,,,,,,,,,,2,1,1.28298010391,,,,,,2016_Feb_15_1558,P14,PLC_L_D1S1,NHGY,60.0177867915,
stim/posf.jpg,stim/negf.jpg,stim/5.jpg,stim/3.jpg,stim/latef.jpg,CD,1,2,,,,,0,32,32,22,,,,,,,,,,,,,,4,0,1.18295652815,,,,,,2016_Feb_15_1558,P14,PLC_L_D1S1,NHGY,60.0177867915,
stim/negf.jpg,stim/posf.jpg,stim/1.jpg,stim/4.jpg,stim/latef.jpg,AB,1,2,,,,,0,33,33,9,,,,,,,,,,,,,,4,0,1.48286661905,,,,,,2016_Feb_15_1558,P14,PLC_L_D1S1,NHGY,60.0177867915,
stim/posf.jpg,stim/negf.jpg,stim/6.jpg,stim/2.jpg,stim/latef.jpg,EF,2,4,,,,,0,34,34,53,,,,,,,,,,,,,,2,0,1.09963883279,,,,,,2016_Feb_15_1558,P14,PLC_L_D1S1,NHGY,60.0177867915,
stim/posf.jpg,stim/negf.jpg,stim/5.jpg,stim/3.jpg,stim/latef.jpg,CD,1,2,,,,,0,35,35,25,,,,,,,,,,,,,,2,1,0.433195145902,,,,,,2016_Feb_15_1558,P14,PLC_L_D1S1,NHGY,60.0177867915,
stim/posf.jpg,stim/negf.jpg,stim/3.jpg,stim/5.jpg,stim/latef.jpg,CD,2,4,,,,,0,36,36,31,,,,,,,,,,,,,,2,0,1.13290010451,,,,,,2016_Feb_15_1558,P14,PLC_L_D1S1,NHGY,60.0177867915,
stim/posf.jpg,stim/negf.jpg,stim/1.jpg,stim/4.jpg,stim/latef.jpg,AB,1,2,,,,,0,37,37,0,,,,,,,,,,,,,,2,1,0.249897260923,,,,,,2016_Feb_15_1558,P14,PLC_L_D1S1,NHGY,60.0177867915,
stim/negf.jpg,stim/posf.jpg,stim/6.jpg,stim/2.jpg,stim/latef.jpg,EF,2,4,,,,,0,38,38,56,,,,,,,,,,,,,,4,1,0.233243455313,,,,,,2016_Feb_15_1558,P14,PLC_L_D1S1,NHGY,60.0177867915,
stim/negf.jpg,stim/posf.jpg,stim/5.jpg,stim/3.jpg,stim/latef.jpg,CD,1,2,,,,,0,39,39,29,,,,,,,,,,,,,,2,1,0.216590239171,,,,,,2016_Feb_15_1558,P14,PLC_L_D1S1,NHGY,60.0177867915,
stim/posf.jpg,stim/negf.jpg,stim/1.jpg,stim/4.jpg,stim/latef.jpg,AB,1,2,,,,,0,40,40,2,,,,,,,,,,,,,,4,0,0.316547749265,,,,,,2016_Feb_15_1558,P14,PLC_L_D1S1,NHGY,60.0177867915,
stim/negf.jpg,stim/posf.jpg,stim/2.jpg,stim/6.jpg,stim/latef.jpg,EF,1,2,,,,,0,41,41,47,,,,,,,,,,,,,,4,0,0.266560889016,,,,,,2016_Feb_15_1558,P14,PLC_L_D1S1,NHGY,60.0177867915,
stim/posf.jpg,stim/negf.jpg,stim/1.jpg,stim/4.jpg,stim/latef.jpg,AB,1,2,,,,,0,42,42,1,,,,,,,,,,,,,,2,1,1.09955365749,,,,,,2016_Feb_15_1558,P14,PLC_L_D1S1,NHGY,60.0177867915,
stim/posf.jpg,stim/negf.jpg,stim/1.jpg,stim/4.jpg,stim/latef.jpg,AB,1,2,,,,,0,43,43,6,,,,,,,,,,,,,,4,0,0.299878157308,,,,,,2016_Feb_15_1558,P14,PLC_L_D1S1,NHGY,60.0177867915,
stim/posf.jpg,stim/negf.jpg,stim/1.jpg,stim/4.jpg,stim/latef.jpg,AB,1,2,,,,,0,44,44,5,,,,,,,,,,,,,,2,1,0.233268140841,,,,,,2016_Feb_15_1558,P14,PLC_L_D1S1,NHGY,60.0177867915,
stim/posf.jpg,stim/negf.jpg,stim/2.jpg,stim/6.jpg,stim/latef.jpg,EF,1,2,,,,,0,45,45,41,,,,,,,,,,,,,,4,0,1.43287608364,,,,,,2016_Feb_15_1558,P14,PLC_L_D1S1,NHGY,60.0177867915,
stim/negf.jpg,stim/posf.jpg,stim/1.jpg,stim/4.jpg,stim/latef.jpg,AB,1,2,,,,,0,46,46,8,,,,,,,,,,,,,,2,1,0.834101175179,,,,,,2016_Feb_15_1558,P14,PLC_L_D1S1,NHGY,60.0177867915,
stim/negf.jpg,stim/posf.jpg,stim/2.jpg,stim/6.jpg,stim/latef.jpg,EF,1,2,,,,,0,47,47,48,,,,,,,,,,,,,,2,1,0.449863020578,,,,,,2016_Feb_15_1558,P14,PLC_L_D1S1,NHGY,60.0177867915,
stim/posf.jpg,stim/negf.jpg,stim/4.jpg,stim/1.jpg,stim/latef.jpg,AB,2,4,,,,,0,48,48,14,,,,,,,,,,,,,,4,1,1.3496095067,,,,,,2016_Feb_15_1558,P14,PLC_L_D1S1,NHGY,60.0177867915,
stim/posf.jpg,stim/negf.jpg,stim/2.jpg,stim/6.jpg,stim/latef.jpg,EF,1,2,,,,,0,49,49,42,,,,,,,,,,,,,,4,0,1.1496268419,,,,,,2016_Feb_15_1558,P14,PLC_L_D1S1,NHGY,60.0177867915,
stim/posf.jpg,stim/negf.jpg,stim/5.jpg,stim/3.jpg,stim/latef.jpg,CD,1,2,,,,,0,50,50,26,,,,,,,,,,,,,,4,0,0.749703337569,,,,,,2016_Feb_15_1558,P14,PLC_L_D1S1,NHGY,60.0177867915,
stim/posf.jpg,stim/negf.jpg,stim/1.jpg,stim/4.jpg,stim/latef.jpg,AB,1,2,,,,,0,51,51,7,,,,,,,,,,,,,,4,0,1.26623682529,,,,,,2016_Feb_15_1558,P14,PLC_L_D1S1,NHGY,60.0177867915,
stim/posf.jpg,stim/negf.jpg,stim/4.jpg,stim/1.jpg,stim/latef.jpg,AB,2,4,,,,,0,52,52,16,,,,,,,,,,,,,,4,1,0.333211133751,,,,,,2016_Feb_15_1558,P14,PLC_L_D1S1,NHGY,60.0177867915,
stim/posf.jpg,stim/negf.jpg,stim/4.jpg,stim/1.jpg,stim/latef.jpg,AB,2,4,,,,,0,53,53,10,,,,,,,,,,,,,,2,0,1.01631969384,,,,,,2016_Feb_15_1558,P14,PLC_L_D1S1,NHGY,60.0177867915,
stim/negf.jpg,stim/posf.jpg,stim/2.jpg,stim/6.jpg,stim/latef.jpg,EF,1,2,,,,,0,54,54,49,,,,,,,,,,,,,,2,1,0.499822073518,,,,,,2016_Feb_15_1558,P14,PLC_L_D1S1,NHGY,60.0177867915,
stim/posf.jpg,stim/negf.jpg,stim/6.jpg,stim/2.jpg,stim/latef.jpg,EF,2,4,,,,,0,55,55,52,,,,,,,,,,,,,,2,0,1.23293930121,,,,,,2016_Feb_15_1558,P14,PLC_L_D1S1,NHGY,60.0177867915,
stim/posf.jpg,stim/negf.jpg,stim/2.jpg,stim/6.jpg,stim/latef.jpg,EF,1,2,,,,,0,56,56,43,,,,,,,,,,,,,,2,1,0.283254119893,,,,,,2016_Feb_15_1558,P14,PLC_L_D1S1,NHGY,60.0177867915,
stim/posf.jpg,stim/negf.jpg,stim/6.jpg,stim/2.jpg,stim/latef.jpg,EF,2,4,,,,,0,57,57,50,,,,,,,,,,,,,,2,0,1.31623272306,,,,,,2016_Feb_15_1558,P14,PLC_L_D1S1,NHGY,60.0177867915,
stim/posf.jpg,stim/negf.jpg,stim/5.jpg,stim/3.jpg,stim/latef.jpg,CD,1,2,,,,,0,58,58,21,,,,,,,,,,,,,,2,1,0.93300190525,,,,,,2016_Feb_15_1558,P14,PLC_L_D1S1,NHGY,60.0177867915,
stim/posf.jpg,stim/negf.jpg,stim/5.jpg,stim/3.jpg,stim/latef.jpg,CD,1,2,,,,,0,59,59,23,,,,,,,,,,,,,,4,0,0.133300820295,,,,,,2016_Feb_15_1558,P14,PLC_L_D1S1,NHGY,60.0177867915,
,,,,,,,,,,,,,,,,,,,,,,,,,,,,,,,,0.9984375,0.408203125,1,0,0,2016_Feb_15_1558,P14,PLC_L_D1S1,NHGY,60.0177867915,
stim/posf.jpg,stim/negf.jpg,stim/6.jpg,stim/2.jpg,stim/latef.jpg,EF,2,4,,,,,,,,,0,0,0,54,,,,,,,,,,2,0,1.46614786355,,,,,,2016_Feb_15_1558,P14,PLC_L_D1S1,NHGY,60.0177867915,
stim/negf.jpg,stim/posf.jpg,stim/3.jpg,stim/5.jpg,stim/latef.jpg,CD,2,4,,,,,,,,,0,1,1,39,,,,,,,,,,2,0,1.4162539199,,,,,,2016_Feb_15_1558,P14,PLC_L_D1S1,NHGY,60.0177867915,
stim/posf.jpg,stim/negf.jpg,stim/1.jpg,stim/4.jpg,stim/latef.jpg,AB,1,2,,,,,,,,,0,2,2,1,,,,,,,,,,4,0,1.46610795408,,,,,,2016_Feb_15_1558,P14,PLC_L_D1S1,NHGY,60.0177867915,
stim/negf.jpg,stim/posf.jpg,stim/2.jpg,stim/6.jpg,stim/latef.jpg,EF,1,2,,,,,,,,,0,3,3,49,,,,,,,,,,None,0,,,,,,,2016_Feb_15_1558,P14,PLC_L_D1S1,NHGY,60.0177867915,
stim/posf.jpg,stim/negf.jpg,stim/3.jpg,stim/5.jpg,stim/latef.jpg,CD,2,4,,,,,,,,,0,4,4,30,,,,,,,,,,2,0,1.01635495372,,,,,,2016_Feb_15_1558,P14,PLC_L_D1S1,NHGY,60.0177867915,
stim/posf.jpg,stim/negf.jpg,stim/1.jpg,stim/4.jpg,stim/latef.jpg,AB,1,2,,,,,,,,,0,5,5,3,,,,,,,,,,2,1,1.56613455839,,,,,,2016_Feb_15_1558,P14,PLC_L_D1S1,NHGY,60.0177867915,
stim/posf.jpg,stim/negf.jpg,stim/4.jpg,stim/1.jpg,stim/latef.jpg,AB,2,4,,,,,,,,,0,6,6,12,,,,,,,,,,2,0,1.4162054962,,,,,,2016_Feb_15_1558,P14,PLC_L_D1S1,NHGY,60.0177867915,
stim/posf.jpg,stim/negf.jpg,stim/2.jpg,stim/6.jpg,stim/latef.jpg,EF,1,2,,,,,,,,,0,7,7,44,,,,,,,,,,2,1,1.41621041947,,,,,,2016_Feb_15_1558,P14,PLC_L_D1S1,NHGY,60.0177867915,
stim/posf.jpg,stim/negf.jpg,stim/5.jpg,stim/3.jpg,stim/latef.jpg,CD,1,2,,,,,,,,,0,8,8,20,,,,,,,,,,2,1,1.1163797806,,,,,,2016_Feb_15_1558,P14,PLC_L_D1S1,NHGY,60.0177867915,
stim/posf.jpg,stim/negf.jpg,stim/6.jpg,stim/2.jpg,stim/latef.jpg,EF,2,4,,,,,,,,,0,9,9,50,,,,,,,,,,4,1,1.21630787438,,,,,,2016_Feb_15_1558,P14,PLC_L_D1S1,NHGY,60.0177867915,
stim/posf.jpg,stim/negf.jpg,stim/1.jpg,stim/4.jpg,stim/latef.jpg,AB,1,2,,,,,,,,,0,10,10,2,,,,,,,,,,4,0,1.11625138458,,,,,,2016_Feb_15_1558,P14,PLC_L_D1S1,NHGY,60.0177867915,
stim/posf.jpg,stim/negf.jpg,stim/5.jpg,stim/3.jpg,stim/latef.jpg,CD,1,2,,,,,,,,,0,11,11,23,,,,,,,,,,2,1,0.899693000804,,,,,,2016_Feb_15_1558,P14,PLC_L_D1S1,NHGY,60.0177867915,
stim/posf.jpg,stim/negf.jpg,stim/4.jpg,stim/1.jpg,stim/latef.jpg,AB,2,4,,,,,,,,,0,12,12,11,,,,,,,,,,4,1,1.1829422275,,,,,,2016_Feb_15_1558,P14,PLC_L_D1S1,NHGY,60.0177867915,
stim/posf.jpg,stim/negf.jpg,stim/2.jpg,stim/6.jpg,stim/latef.jpg,EF,1,2,,,,,,,,,0,13,13,41,,,,,,,,,,2,1,0.916364156661,,,,,,2016_Feb_15_1558,P14,PLC_L_D1S1,NHGY,60.0177867915,
stim/posf.jpg,stim/negf.jpg,stim/5.jpg,stim/3.jpg,stim/latef.jpg,CD,1,2,,,,,,,,,0,14,14,26,,,,,,,,,,2,1,0.683111507432,,,,,,2016_Feb_15_1558,P14,PLC_L_D1S1,NHGY,60.0177867915,
stim/posf.jpg,stim/negf.jpg,stim/4.jpg,stim/1.jpg,stim/latef.jpg,AB,2,4,,,,,,,,,0,15,15,16,,,,,,,,,,4,1,0.899764738611,,,,,,2016_Feb_15_1558,P14,PLC_L_D1S1,NHGY,60.0177867915,
stim/posf.jpg,stim/negf.jpg,stim/1.jpg,stim/4.jpg,stim/latef.jpg,AB,1,2,,,,,,,,,0,16,16,6,,,,,,,,,,2,1,1.24960328419,,,,,,2016_Feb_15_1558,P14,PLC_L_D1S1,NHGY,60.0177867915,
stim/posf.jpg,stim/negf.jpg,stim/3.jpg,stim/5.jpg,stim/latef.jpg,CD,2,4,,,,,,,,,0,17,17,31,,,,,,,,,,4,1,0.733062918323,,,,,,2016_Feb_15_1558,P14,PLC_L_D1S1,NHGY,60.0177867915,
stim/posf.jpg,stim/negf.jpg,stim/6.jpg,stim/2.jpg,stim/latef.jpg,EF,2,4,,,,,,,,,0,18,18,53,,,,,,,,,,4,1,0.699755349208,,,,,,2016_Feb_15_1558,P14,PLC_L_D1S1,NHGY,60.0177867915,
stim/posf.jpg,stim/negf.jpg,stim/3.jpg,stim/5.jpg,stim/latef.jpg,CD,2,4,,,,,,,,,0,19,19,33,,,,,,,,,,4,1,1.01634330268,,,,,,2016_Feb_15_1558,P14,PLC_L_D1S1,NHGY,60.0177867915,
stim/negf.jpg,stim/posf.jpg,stim/6.jpg,stim/2.jpg,stim/latef.jpg,EF,2,4,,,,,,,,,0,20,20,56,,,,,,,,,,4,1,0.9163502109,,,,,,2016_Feb_15_1558,P14,PLC_L_D1S1,NHGY,60.0177867915,
stim/negf.jpg,stim/posf.jpg,stim/6.jpg,stim/2.jpg,stim/latef.jpg,EF,2,4,,,,,,,,,0,21,21,58,,,,,,,,,,4,1,0.766391687281,,,,,,2016_Feb_15_1558,P14,PLC_L_D1S1,NHGY,60.0177867915,
stim/posf.jpg,stim/negf.jpg,stim/1.jpg,stim/4.jpg,stim/latef.jpg,AB,1,2,,,,,,,,,0,22,22,7,,,,,,,,,,2,1,1.19960510071,,,,,,2016_Feb_15_1558,P14,PLC_L_D1S1,NHGY,60.0177867915,
stim/posf.jpg,stim/negf.jpg,stim/6.jpg,stim/2.jpg,stim/latef.jpg,EF,2,4,,,,,,,,,0,23,23,52,,,,,,,,,,4,1,0.833044590642,,,,,,2016_Feb_15_1558,P14,PLC_L_D1S1,NHGY,60.0177867915,
stim/posf.jpg,stim/negf.jpg,stim/1.jpg,stim/4.jpg,stim/latef.jpg,AB,1,2,,,,,,,,,0,24,24,5,,,,,,,,,,2,1,1.14951830437,,,,,,2016_Feb_15_1558,P14,PLC_L_D1S1,NHGY,60.0177867915,
stim/negf.jpg,stim/posf.jpg,stim/3.jpg,stim/5.jpg,stim/latef.jpg,CD,2,4,,,,,,,,,0,25,25,38,,,,,,,,,,4,1,0.783094214329,,,,,,2016_Feb_15_1558,P14,PLC_L_D1S1,NHGY,60.0177867915,
stim/posf.jpg,stim/negf.jpg,stim/4.jpg,stim/1.jpg,stim/latef.jpg,AB,2,4,,,,,,,,,0,26,26,10,,,,,,,,,,4,1,0.933019330681,,,,,,2016_Feb_15_1558,P14,PLC_L_D1S1,NHGY,60.0177867915,
stim/negf.jpg,stim/posf.jpg,stim/3.jpg,stim/5.jpg,stim/latef.jpg,CD,2,4,,,,,,,,,0,27,27,37,,,,,,,,,,4,1,0.599798545876,,,,,,2016_Feb_15_1558,P14,PLC_L_D1S1,NHGY,60.0177867915,
stim/negf.jpg,stim/posf.jpg,stim/2.jpg,stim/6.jpg,stim/latef.jpg,EF,1,2,,,,,,,,,0,28,28,47,,,,,,,,,,4,0,0.84971395403,,,,,,2016_Feb_15_1558,P14,PLC_L_D1S1,NHGY,60.0177867915,
stim/negf.jpg,stim/posf.jpg,stim/5.jpg,stim/3.jpg,stim/latef.jpg,CD,1,2,,,,,,,,,0,29,29,28,,,,,,,,,,4,0,0.96636057774,,,,,,2016_Feb_15_1558,P14,PLC_L_D1S1,NHGY,60.0177867915,
stim/posf.jpg,stim/negf.jpg,stim/5.jpg,stim/3.jpg,stim/latef.jpg,CD,1,2,,,,,,,,,0,30,30,24,,,,,,,,,,4,0,0.716438865873,,,,,,2016_Feb_15_1558,P14,PLC_L_D1S1,NHGY,60.0177867915,
stim/negf.jpg,stim/posf.jpg,stim/2.jpg,stim/6.jpg,stim/latef.jpg,EF,1,2,,,,,,,,,0,31,31,46,,,,,,,,,,2,1,1.14962844791,,,,,,2016_Feb_15_1558,P14,PLC_L_D1S1,NHGY,60.0177867915,
stim/negf.jpg,stim/posf.jpg,stim/5.jpg,stim/3.jpg,stim/latef.jpg,CD,1,2,,,,,,,,,0,32,32,27,,,,,,,,,,4,0,1.01631894798,,,,,,2016_Feb_15_1558,P14,PLC_L_D1S1,NHGY,60.0177867915,
stim/posf.jpg,stim/negf.jpg,stim/3.jpg,stim/5.jpg,stim/latef.jpg,CD,2,4,,,,,,,,,0,33,33,32,,,,,,,,,,2,0,1.58280907963,,,,,,2016_Feb_15_1558,P14,PLC_L_D1S1,NHGY,60.0177867915,
stim/posf.jpg,stim/negf.jpg,stim/5.jpg,stim/3.jpg,stim/latef.jpg,CD,1,2,,,,,,,,,0,34,34,21,,,,,,,,,,4,0,0.916344716205,,,,,,2016_Feb_15_1558,P14,PLC_L_D1S1,NHGY,60.0177867915,
stim/negf.jpg,stim/posf.jpg,stim/1.jpg,stim/4.jpg,stim/latef.jpg,AB,1,2,,,,,,,,,0,35,35,8,,,,,,,,,,2,1,0.749754296585,,,,,,2016_Feb_15_1558,P14,PLC_L_D1S1,NHGY,60.0177867915,
stim/posf.jpg,stim/negf.jpg,stim/2.jpg,stim/6.jpg,stim/latef.jpg,EF,1,2,,,,,,,,,0,36,36,40,,,,,,,,,,4,0,1.04965912437,,,,,,2016_Feb_15_1558,P14,PLC_L_D1S1,NHGY,60.0177867915,
stim/posf.jpg,stim/negf.jpg,stim/1.jpg,stim/4.jpg,stim/latef.jpg,AB,1,2,,,,,,,,,0,37,37,4,,,,,,,,,,4,0,1.18295306953,,,,,,2016_Feb_15_1558,P14,PLC_L_D1S1,NHGY,60.0177867915,
stim/posf.jpg,stim/negf.jpg,stim/2.jpg,stim/6.jpg,stim/latef.jpg,EF,1,2,,,,,,,,,0,38,38,43,,,,,,,,,,2,1,0.98307238893,,,,,,2016_Feb_15_1558,P14,PLC_L_D1S1,NHGY,60.0177867915,
stim/negf.jpg,stim/posf.jpg,stim/6.jpg,stim/2.jpg,stim/latef.jpg,EF,2,4,,,,,,,,,0,39,39,59,,,,,,,,,,4,1,1.18302953512,,,,,,2016_Feb_15_1558,P14,PLC_L_D1S1,NHGY,60.0177867915,
stim/posf.jpg,stim/negf.jpg,stim/6.jpg,stim/2.jpg,stim/latef.jpg,EF,2,4,,,,,,,,,0,40,40,51,,,,,,,,,,4,1,1.51616580928,,,,,,2016_Feb_15_1558,P14,PLC_L_D1S1,NHGY,60.0177867915,
stim/posf.jpg,stim/negf.jpg,stim/4.jpg,stim/1.jpg,stim/latef.jpg,AB,2,4,,,,,,,,,0,41,41,14,,,,,,,,,,4,1,0.833074136285,,,,,,2016_Feb_15_1558,P14,PLC_L_D1S1,NHGY,60.0177867915,
stim/posf.jpg,stim/negf.jpg,stim/1.jpg,stim/4.jpg,stim/latef.jpg,AB,1,2,,,,,,,,,0,42,42,0,,,,,,,,,,2,1,1.34955601537,,,,,,2016_Feb_15_1558,P14,PLC_L_D1S1,NHGY,60.0177867915,
stim/posf.jpg,stim/negf.jpg,stim/3.jpg,stim/5.jpg,stim/latef.jpg,CD,2,4,,,,,,,,,0,43,43,36,,,,,,,,,,4,1,0.6664508327,,,,,,2016_Feb_15_1558,P14,PLC_L_D1S1,NHGY,60.0177867915,
stim/posf.jpg,stim/negf.jpg,stim/4.jpg,stim/1.jpg,stim/latef.jpg,AB,2,4,,,,,,,,,0,44,44,13,,,,,,,,,,2,0,0.716430050902,,,,,,2016_Feb_15_1558,P14,PLC_L_D1S1,NHGY,60.0177867915,
stim/negf.jpg,stim/posf.jpg,stim/5.jpg,stim/3.jpg,stim/latef.jpg,CD,1,2,,,,,,,,,0,45,45,29,,,,,,,,,,4,0,1.29954479139,,,,,,2016_Feb_15_1558,P14,PLC_L_D1S1,NHGY,60.0177867915,
stim/posf.jpg,stim/negf.jpg,stim/4.jpg,stim/1.jpg,stim/latef.jpg,AB,2,4,,,,,,,,,0,46,46,17,,,,,,,,,,4,1,1.19960604206,,,,,,2016_Feb_15_1558,P14,PLC_L_D1S1,NHGY,60.0177867915,
stim/posf.jpg,stim/negf.jpg,stim/5.jpg,stim/3.jpg,stim/latef.jpg,CD,1,2,,,,,,,,,0,47,47,25,,,,,,,,,,4,0,1.01631154051,,,,,,2016_Feb_15_1558,P14,PLC_L_D1S1,NHGY,60.0177867915,
stim/posf.jpg,stim/negf.jpg,stim/2.jpg,stim/6.jpg,stim/latef.jpg,EF,1,2,,,,,,,,,0,48,48,45,,,,,,,,,,4,0,1.13296525891,,,,,,2016_Feb_15_1558,P14,PLC_L_D1S1,NHGY,60.0177867915,
stim/posf.jpg,stim/negf.jpg,stim/3.jpg,stim/5.jpg,stim/latef.jpg,CD,2,4,,,,,,,,,0,49,49,35,,,,,,,,,,2,0,0.866382418177,,,,,,2016_Feb_15_1558,P14,PLC_L_D1S1,NHGY,60.0177867915,
stim/negf.jpg,stim/posf.jpg,stim/6.jpg,stim/2.jpg,stim/latef.jpg,EF,2,4,,,,,,,,,0,50,50,57,,,,,,,,,,4,1,0.966339771881,,,,,,2016_Feb_15_1558,P14,PLC_L_D1S1,NHGY,60.0177867915,
stim/negf.jpg,stim/posf.jpg,stim/4.jpg,stim/1.jpg,stim/latef.jpg,AB,2,4,,,,,,,,,0,51,51,19,,,,,,,,,,4,1,0.98300207066,,,,,,2016_Feb_15_1558,P14,PLC_L_D1S1,NHGY,60.0177867915,
stim/negf.jpg,stim/posf.jpg,stim/4.jpg,stim/1.jpg,stim/latef.jpg,AB,2,4,,,,,,,,,0,52,52,18,,,,,,,,,,4,1,1.03298105127,,,,,,2016_Feb_15_1558,P14,PLC_L_D1S1,NHGY,60.0177867915,
stim/posf.jpg,stim/negf.jpg,stim/4.jpg,stim/1.jpg,stim/latef.jpg,AB,2,4,,,,,,,,,0,53,53,15,,,,,,,,,,4,1,0.533213738243,,,,,,2016_Feb_15_1558,P14,PLC_L_D1S1,NHGY,60.0177867915,
stim/posf.jpg,stim/negf.jpg,stim/6.jpg,stim/2.jpg,stim/latef.jpg,EF,2,4,,,,,,,,,0,54,54,55,,,,,,,,,,2,0,0.433174712973,,,,,,2016_Feb_15_1558,P14,PLC_L_D1S1,NHGY,60.0177867915,
stim/negf.jpg,stim/posf.jpg,stim/2.jpg,stim/6.jpg,stim/latef.jpg,EF,1,2,,,,,,,,,0,55,55,48,,,,,,,,,,2,1,0.53314570868,,,,,,2016_Feb_15_1558,P14,PLC_L_D1S1,NHGY,60.0177867915,
stim/posf.jpg,stim/negf.jpg,stim/5.jpg,stim/3.jpg,stim/latef.jpg,CD,1,2,,,,,,,,,0,56,56,22,,,,,,,,,,2,1,1.1496267607,,,,,,2016_Feb_15_1558,P14,PLC_L_D1S1,NHGY,60.0177867915,
stim/posf.jpg,stim/negf.jpg,stim/3.jpg,stim/5.jpg,stim/latef.jpg,CD,2,4,,,,,,,,,0,57,57,34,,,,,,,,,,4,1,0.71643318772,,,,,,2016_Feb_15_1558,P14,PLC_L_D1S1,NHGY,60.0177867915,
stim/negf.jpg,stim/posf.jpg,stim/1.jpg,stim/4.jpg,stim/latef.jpg,AB,1,2,,,,,,,,,0,58,58,9,,,,,,,,,,2,1,1.09962529004,,,,,,2016_Feb_15_1558,P14,PLC_L_D1S1,NHGY,60.0177867915,
stim/posf.jpg,stim/negf.jpg,stim/2.jpg,stim/6.jpg,stim/latef.jpg,EF,1,2,,,,,,,,,0,59,59,42,,,,,,,,,,4,0,1.39951388035,,,,,,2016_Feb_15_1558,P14,PLC_L_D1S1,NHGY,60.0177867915,
,,,,,,,,,,,,,,,,,,,,,,,,,,,,,,,,0.9984375,0.408203125,1,0,0,2016_Feb_15_1558,P14,PLC_L_D1S1,NHGY,60.0177867915,
stim/posf.jpg,stim/negf.jpg,stim/3.jpg,stim/5.jpg,stim/latef.jpg,CD,2,4,,,,,,,,,,,,,0,0,0,32,,,,,,4,1,0.833072888174,,,,,,2016_Feb_15_1558,P14,PLC_L_D1S1,NHGY,60.0177867915,
stim/posf.jpg,stim/negf.jpg,stim/6.jpg,stim/2.jpg,stim/latef.jpg,EF,2,4,,,,,,,,,,,,,0,1,1,53,,,,,,4,1,0.949668892715,,,,,,2016_Feb_15_1558,P14,PLC_L_D1S1,NHGY,60.0177867915,
stim/posf.jpg,stim/negf.jpg,stim/5.jpg,stim/3.jpg,stim/latef.jpg,CD,1,2,,,,,,,,,,,,,0,2,2,23,,,,,,2,1,1.03298127383,,,,,,2016_Feb_15_1558,P14,PLC_L_D1S1,NHGY,60.0177867915,
stim/posf.jpg,stim/negf.jpg,stim/3.jpg,stim/5.jpg,stim/latef.jpg,CD,2,4,,,,,,,,,,,,,0,3,3,34,,,,,,4,1,0.583142662085,,,,,,2016_Feb_15_1558,P14,PLC_L_D1S1,NHGY,60.0177867915,
stim/posf.jpg,stim/negf.jpg,stim/4.jpg,stim/1.jpg,stim/latef.jpg,AB,2,4,,,,,,,,,,,,,0,4,4,13,,,,,,4,1,1.24955409358,,,,,,2016_Feb_15_1558,P14,PLC_L_D1S1,NHGY,60.0177867915,
stim/negf.jpg,stim/posf.jpg,stim/3.jpg,stim/5.jpg,stim/latef.jpg,CD,2,4,,,,,,,,,,,,,0,5,5,37,,,,,,4,1,0.799709012714,,,,,,2016_Feb_15_1558,P14,PLC_L_D1S1,NHGY,60.0177867915,
stim/posf.jpg,stim/negf.jpg,stim/4.jpg,stim/1.jpg,stim/latef.jpg,AB,2,4,,,,,,,,,,,,,0,6,6,12,,,,,,4,1,1.46618236254,,,,,,2016_Feb_15_1558,P14,PLC_L_D1S1,NHGY,60.0177867915,
stim/negf.jpg,stim/posf.jpg,stim/4.jpg,stim/1.jpg,stim/latef.jpg,AB,2,4,,,,,,,,,,,,,0,7,7,19,,,,,,2,0,1.41620715032,,,,,,2016_Feb_15_1558,P14,PLC_L_D1S1,NHGY,60.0177867915,
stim/posf.jpg,stim/negf.jpg,stim/4.jpg,stim/1.jpg,stim/latef.jpg,AB,2,4,,,,,,,,,,,,,0,8,8,14,,,,,,2,0,1.39958152495,,,,,,2016_Feb_15_1558,P14,PLC_L_D1S1,NHGY,60.0177867915,
stim/posf.jpg,stim/negf.jpg,stim/5.jpg,stim/3.jpg,stim/latef.jpg,CD,1,2,,,,,,,,,,,,,0,9,9,25,,,,,,2,1,0.766432947121,,,,,,2016_Feb_15_1558,P14,PLC_L_D1S1,NHGY,60.0177867915,
stim/posf.jpg,stim/negf.jpg,stim/1.jpg,stim/4.jpg,stim/latef.jpg,AB,1,2,,,,,,,,,,,,,0,10,10,4,,,,,,4,0,0.533166809271,,,,,,2016_Feb_15_1558,P14,PLC_L_D1S1,NHGY,60.0177867915,
stim/posf.jpg,stim/negf.jpg,stim/1.jpg,stim/4.jpg,stim/latef.jpg,AB,1,2,,,,,,,,,,,,,0,11,11,3,,,,,,2,1,1.26619034443,,,,,,2016_Feb_15_1558,P14,PLC_L_D1S1,NHGY,60.0177867915,
stim/negf.jpg,stim/posf.jpg,stim/1.jpg,stim/4.jpg,stim/latef.jpg,AB,1,2,,,,,,,,,,,,,0,12,12,8,,,,,,4,0,1.49951209991,,,,,,2016_Feb_15_1558,P14,PLC_L_D1S1,NHGY,60.0177867915,
stim/posf.jpg,stim/negf.jpg,stim/1.jpg,stim/4.jpg,stim/latef.jpg,AB,1,2,,,,,,,,,,,,,0,13,13,6,,,,,,2,1,1.31623592905,,,,,,2016_Feb_15_1558,P14,PLC_L_D1S1,NHGY,60.0177867915,
stim/posf.jpg,stim/negf.jpg,stim/1.jpg,stim/4.jpg,stim/latef.jpg,AB,1,2,,,,,,,,,,,,,0,14,14,7,,,,,,2,1,1.16631806377,,,,,,2016_Feb_15_1558,P14,PLC_L_D1S1,NHGY,60.0177867915,
stim/posf.jpg,stim/negf.jpg,stim/1.jpg,stim/4.jpg,stim/latef.jpg,AB,1,2,,,,,,,,,,,,,0,15,15,0,,,,,,4,0,1.0330676431,,,,,,2016_Feb_15_1558,P14,PLC_L_D1S1,NHGY,60.0177867915,
stim/posf.jpg,stim/negf.jpg,stim/2.jpg,stim/6.jpg,stim/latef.jpg,EF,1,2,,,,,,,,,,,,,0,16,16,41,,,,,,2,1,0.883027923098,,,,,,2016_Feb_15_1558,P14,PLC_L_D1S1,NHGY,60.0177867915,
stim/posf.jpg,stim/negf.jpg,stim/1.jpg,stim/4.jpg,stim/latef.jpg,AB,1,2,,,,,,,,,,,,,0,17,17,2,,,,,,2,1,1.04968246555,,,,,,2016_Feb_15_1558,P14,PLC_L_D1S1,NHGY,60.0177867915,
stim/posf.jpg,stim/negf.jpg,stim/2.jpg,stim/6.jpg,stim/latef.jpg,EF,1,2,,,,,,,,,,,,,0,18,18,44,,,,,,2,1,1.23290146089,,,,,,2016_Feb_15_1558,P14,PLC_L_D1S1,NHGY,60.0177867915,
stim/negf.jpg,stim/posf.jpg,stim/5.jpg,stim/3.jpg,stim/latef.jpg,CD,1,2,,,,,,,,,,,,,0,19,19,29,,,,,,2,1,0.733081642995,,,,,,2016_Feb_15_1558,P14,PLC_L_D1S1,NHGY,60.0177867915,
stim/posf.jpg,stim/negf.jpg,stim/5.jpg,stim/3.jpg,stim/latef.jpg,CD,1,2,,,,,,,,,,,,,0,20,20,22,,,,,,2,1,0.56648064601,,,,,,2016_Feb_15_1558,P14,PLC_L_D1S1,NHGY,60.0177867915,
stim/negf.jpg,stim/posf.jpg,stim/1.jpg,stim/4.jpg,stim/latef.jpg,AB,1,2,,,,,,,,,,,,,0,21,21,9,,,,,,2,1,1.41621096082,,,,,,2016_Feb_15_1558,P14,PLC_L_D1S1,NHGY,60.0177867915,
stim/posf.jpg,stim/negf.jpg,stim/3.jpg,stim/5.jpg,stim/latef.jpg,CD,2,4,,,,,,,,,,,,,0,22,22,31,,,,,,4,1,1.11630097217,,,,,,2016_Feb_15_1558,P14,PLC_L_D1S1,NHGY,60.0177867915,
stim/negf.jpg,stim/posf.jpg,stim/3.jpg,stim/5.jpg,stim/latef.jpg,CD,2,4,,,,,,,,,,,,,0,23,23,38,,,,,,4,1,1.54953769069,,,,,,2016_Feb_15_1558,P14,PLC_L_D1S1,NHGY,60.0177867915,
stim/posf.jpg,stim/negf.jpg,stim/2.jpg,stim/6.jpg,stim/latef.jpg,EF,1,2,,,,,,,,,,,,,0,24,24,42,,,,,,2,1,0.999693836889,,,,,,2016_Feb_15_1558,P14,PLC_L_D1S1,NHGY,60.0177867915,
stim/posf.jpg,stim/negf.jpg,stim/3.jpg,stim/5.jpg,stim/latef.jpg,CD,2,4,,,,,,,,,,,,,0,25,25,35,,,,,,4,1,1.24958444222,,,,,,2016_Feb_15_1558,P14,PLC_L_D1S1,NHGY,60.0177867915,
stim/posf.jpg,stim/negf.jpg,stim/6.jpg,stim/2.jpg,stim/latef.jpg,EF,2,4,,,,,,,,,,,,,0,26,26,55,,,,,,4,1,1.21620041052,,,,,,2016_Feb_15_1558,P14,PLC_L_D1S1,NHGY,60.0177867915,
stim/negf.jpg,stim/posf.jpg,stim/2.jpg,stim/6.jpg,stim/latef.jpg,EF,1,2,,,,,,,,,,,,,0,27,27,48,,,,,,2,1,1.14962973812,,,,,,2016_Feb_15_1558,P14,PLC_L_D1S1,NHGY,60.0177867915,
stim/posf.jpg,stim/negf.jpg,stim/6.jpg,stim/2.jpg,stim/latef.jpg,EF,2,4,,,,,,,,,,,,,0,28,28,52,,,,,,2,0,0.766409711205,,,,,,2016_Feb_15_1558,P14,PLC_L_D1S1,NHGY,60.0177867915,
stim/negf.jpg,stim/posf.jpg,stim/2.jpg,stim/6.jpg,stim/latef.jpg,EF,1,2,,,,,,,,,,,,,0,29,29,49,,,,,,2,1,1.08297617913,,,,,,2016_Feb_15_1558,P14,PLC_L_D1S1,NHGY,60.0177867915,
stim/posf.jpg,stim/negf.jpg,stim/5.jpg,stim/3.jpg,stim/latef.jpg,CD,1,2,,,,,,,,,,,,,0,30,30,24,,,,,,2,1,0.699758666477,,,,,,2016_Feb_15_1558,P14,PLC_L_D1S1,NHGY,60.0177867915,
stim/posf.jpg,stim/negf.jpg,stim/3.jpg,stim/5.jpg,stim/latef.jpg,CD,2,4,,,,,,,,,,,,,0,31,31,33,,,,,,4,1,1.16627625356,,,,,,2016_Feb_15_1558,P14,PLC_L_D1S1,NHGY,60.0177867915,
stim/posf.jpg,stim/negf.jpg,stim/2.jpg,stim/6.jpg,stim/latef.jpg,EF,1,2,,,,,,,,,,,,,0,32,32,45,,,,,,2,1,0.966309555567,,,,,,2016_Feb_15_1558,P14,PLC_L_D1S1,NHGY,60.0177867915,
stim/posf.jpg,stim/negf.jpg,stim/6.jpg,stim/2.jpg,stim/latef.jpg,EF,2,4,,,,,,,,,,,,,0,33,33,50,,,,,,2,0,1.48285395147,,,,,,2016_Feb_15_1558,P14,PLC_L_D1S1,NHGY,60.0177867915,
stim/posf.jpg,stim/negf.jpg,stim/2.jpg,stim/6.jpg,stim/latef.jpg,EF,1,2,,,,,,,,,,,,,0,34,34,40,,,,,,2,1,0.683117182578,,,,,,2016_Feb_15_1558,P14,PLC_L_D1S1,NHGY,60.0177867915,
stim/posf.jpg,stim/negf.jpg,stim/2.jpg,stim/6.jpg,stim/latef.jpg,EF,1,2,,,,,,,,,,,,,0,35,35,43,,,,,,4,0,0.516491836904,,,,,,2016_Feb_15_1558,P14,PLC_L_D1S1,NHGY,60.0177867915,
stim/negf.jpg,stim/posf.jpg,stim/3.jpg,stim/5.jpg,stim/latef.jpg,CD,2,4,,,,,,,,,,,,,0,36,36,39,,,,,,4,1,0.666432162164,,,,,,2016_Feb_15_1558,P14,PLC_L_D1S1,NHGY,60.0177867915,
stim/posf.jpg,stim/negf.jpg,stim/4.jpg,stim/1.jpg,stim/latef.jpg,AB,2,4,,,,,,,,,,,,,0,37,37,10,,,,,,4,1,0.866378887376,,,,,,2016_Feb_15_1558,P14,PLC_L_D1S1,NHGY,60.0177867915,
stim/negf.jpg,stim/posf.jpg,stim/2.jpg,stim/6.jpg,stim/latef.jpg,EF,1,2,,,,,,,,,,,,,0,38,38,47,,,,,,2,1,1.26624978459,,,,,,2016_Feb_15_1558,P14,PLC_L_D1S1,NHGY,60.0177867915,
stim/posf.jpg,stim/negf.jpg,stim/4.jpg,stim/1.jpg,stim/latef.jpg,AB,2,4,,,,,,,,,,,,,0,39,39,11,,,,,,4,1,0.983054795077,,,,,,2016_Feb_15_1558,P14,PLC_L_D1S1,NHGY,60.0177867915,
stim/posf.jpg,stim/negf.jpg,stim/4.jpg,stim/1.jpg,stim/latef.jpg,AB,2,4,,,,,,,,,,,,,0,40,40,17,,,,,,2,0,0.699765469432,,,,,,2016_Feb_15_1558,P14,PLC_L_D1S1,NHGY,60.0177867915,
stim/posf.jpg,stim/negf.jpg,stim/1.jpg,stim/4.jpg,stim/latef.jpg,AB,1,2,,,,,,,,,,,,,0,41,41,5,,,,,,2,1,0.349885615898,,,,,,2016_Feb_15_1558,P14,PLC_L_D1S1,NHGY,60.0177867915,
stim/negf.jpg,stim/posf.jpg,stim/4.jpg,stim/1.jpg,stim/latef.jpg,AB,2,4,,,,,,,,,,,,,0,42,42,18,,,,,,4,1,1.14960168119,,,,,,2016_Feb_15_1558,P14,PLC_L_D1S1,NHGY,60.0177867915,
stim/negf.jpg,stim/posf.jpg,stim/5.jpg,stim/3.jpg,stim/latef.jpg,CD,1,2,,,,,,,,,,,,,0,43,43,28,,,,,,2,1,0.899700065413,,,,,,2016_Feb_15_1558,P14,PLC_L_D1S1,NHGY,60.0177867915,
stim/posf.jpg,stim/negf.jpg,stim/5.jpg,stim/3.jpg,stim/latef.jpg,CD,1,2,,,,,,,,,,,,,0,44,44,21,,,,,,2,1,0.749755289058,,,,,,2016_Feb_15_1558,P14,PLC_L_D1S1,NHGY,60.0177867915,
stim/posf.jpg,stim/negf.jpg,stim/5.jpg,stim/3.jpg,stim/latef.jpg,CD,1,2,,,,,,,,,,,,,0,45,45,26,,,,,,2,1,0.949698733092,,,,,,2016_Feb_15_1558,P14,PLC_L_D1S1,NHGY,60.0177867915,
stim/posf.jpg,stim/negf.jpg,stim/3.jpg,stim/5.jpg,stim/latef.jpg,CD,2,4,,,,,,,,,,,,,0,46,46,30,,,,,,4,1,1.08294808911,,,,,,2016_Feb_15_1558,P14,PLC_L_D1S1,NHGY,60.0177867915,
stim/posf.jpg,stim/negf.jpg,stim/1.jpg,stim/4.jpg,stim/latef.jpg,AB,1,2,,,,,,,,,,,,,0,47,47,1,,,,,,2,1,0.983019989324,,,,,,2016_Feb_15_1558,P14,PLC_L_D1S1,NHGY,60.0177867915,
stim/negf.jpg,stim/posf.jpg,stim/2.jpg,stim/6.jpg,stim/latef.jpg,EF,1,2,,,,,,,,,,,,,0,48,48,46,,,,,,2,1,1.39955602138,,,,,,2016_Feb_15_1558,P14,PLC_L_D1S1,NHGY,60.0177867915,
stim/posf.jpg,stim/negf.jpg,stim/6.jpg,stim/2.jpg,stim/latef.jpg,EF,2,4,,,,,,,,,,,,,0,49,49,54,,,,,,2,0,0.766465692739,,,,,,2016_Feb_15_1558,P14,PLC_L_D1S1,NHGY,60.0177867915,
stim/posf.jpg,stim/negf.jpg,stim/3.jpg,stim/5.jpg,stim/latef.jpg,CD,2,4,,,,,,,,,,,,,0,50,50,36,,,,,,4,1,0.749800272179,,,,,,2016_Feb_15_1558,P14,PLC_L_D1S1,NHGY,60.0177867915,
stim/posf.jpg,stim/negf.jpg,stim/6.jpg,stim/2.jpg,stim/latef.jpg,EF,2,4,,,,,,,,,,,,,0,51,51,51,,,,,,4,1,0.83304444929,,,,,,2016_Feb_15_1558,P14,PLC_L_D1S1,NHGY,60.0177867915,
stim/negf.jpg,stim/posf.jpg,stim/6.jpg,stim/2.jpg,stim/latef.jpg,EF,2,4,,,,,,,,,,,,,0,52,52,58,,,,,,4,1,1.39954973271,,,,,,2016_Feb_15_1558,P14,PLC_L_D1S1,NHGY,60.0177867915,
stim/posf.jpg,stim/negf.jpg,stim/5.jpg,stim/3.jpg,stim/latef.jpg,CD,1,2,,,,,,,,,,,,,0,53,53,20,,,,,,2,1,0.683062079233,,,,,,2016_Feb_15_1558,P14,PLC_L_D1S1,NHGY,60.0177867915,
stim/posf.jpg,stim/negf.jpg,stim/4.jpg,stim/1.jpg,stim/latef.jpg,AB,2,4,,,,,,,,,,,,,0,54,54,16,,,,,,4,1,0.616395978977,,,,,,2016_Feb_15_1558,P14,PLC_L_D1S1,NHGY,60.0177867915,
stim/negf.jpg,stim/posf.jpg,stim/5.jpg,stim/3.jpg,stim/latef.jpg,CD,1,2,,,,,,,,,,,,,0,55,55,27,,,,,,4,0,1.53282133217,,,,,,2016_Feb_15_1558,P14,PLC_L_D1S1,NHGY,60.0177867915,
stim/negf.jpg,stim/posf.jpg,stim/6.jpg,stim/2.jpg,stim/latef.jpg,EF,2,4,,,,,,,,,,,,,0,56,56,59,,,,,,4,1,1.59949121586,,,,,,2016_Feb_15_1558,P14,PLC_L_D1S1,NHGY,60.0177867915,
stim/posf.jpg,stim/negf.jpg,stim/4.jpg,stim/1.jpg,stim/latef.jpg,AB,2,4,,,,,,,,,,,,,0,57,57,15,,,,,,4,1,0.949708723994,,,,,,2016_Feb_15_1558,P14,PLC_L_D1S1,NHGY,60.0177867915,
stim/negf.jpg,stim/posf.jpg,stim/6.jpg,stim/2.jpg,stim/latef.jpg,EF,2,4,,,,,,,,,,,,,0,58,58,57,,,,,,4,1,1.24963421628,,,,,,2016_Feb_15_1558,P14,PLC_L_D1S1,NHGY,60.0177867915,
stim/negf.jpg,stim/posf.jpg,stim/6.jpg,stim/2.jpg,stim/latef.jpg,EF,2,4,,,,,,,,,,,,,0,59,59,56,,,,,,4,1,0.683069976918,,,,,,2016_Feb_15_1558,P14,PLC_L_D1S1,NHGY,60.0177867915,
