fb_corr,fb_incorr,symbol2,symbol1,fb_late,pair,position,correct,block_01.thisRepN,block_01.thisTrialN,block_01.thisN,block_01.thisIndex,block_02.thisRepN,block_02.thisTrialN,block_02.thisN,block_02.thisIndex,block_03.thisRepN,block_03.thisTrialN,block_03.thisN,block_03.thisIndex,block_04.thisRepN,block_04.thisTrialN,block_04.thisN,block_04.thisIndex,mouse.x,mouse.y,mouse.leftButton,mouse.midButton,mouse.rightButton,buttonBox_2.keys,buttonBox_2.corr,buttonBox_2.rt,mouse_2.x,mouse_2.y,mouse_2.leftButton,mouse_2.midButton,mouse_2.rightButton,expName,Participant,frameRate,SessionNumber,Version,date,Group,
,,,,,,,,,,,,,,,,,,,,,,,,0.9984375,1.0,1,0,0,,,,,,,,,PLC_L_D1S1,P1,60.0205573055,1,B,2016_Jan_06_1756,NHGY,
stim/posf.jpg,stim/negf.jpg,stim/5.jpg,stim/4.jpg,stim/latef.jpg,AB,1,2,0,0,0,3,,,,,,,,,,,,,,,,,,2,1,1.01629310045,,,,,,PLC_L_D1S1,P1,60.0205573055,1,B,2016_Jan_06_1756,NHGY,
stim/posf.jpg,stim/negf.jpg,stim/4.jpg,stim/5.jpg,stim/latef.jpg,AB,2,4,0,1,1,10,,,,,,,,,,,,,,,,,,4,1,1.11628900125,,,,,,PLC_L_D1S1,P1,60.0205573055,1,B,2016_Jan_06_1756,NHGY,
stim/posf.jpg,stim/negf.jpg,stim/3.jpg,stim/6.jpg,stim/latef.jpg,EF,1,2,0,2,2,43,,,,,,,,,,,,,,,,,,2,1,1.58280501799,,,,,,PLC_L_D1S1,P1,60.0205573055,1,B,2016_Jan_06_1756,NHGY,
stim/posf.jpg,stim/negf.jpg,stim/5.jpg,stim/4.jpg,stim/latef.jpg,AB,1,2,0,3,3,7,,,,,,,,,,,,,,,,,,2,1,1.44950871983,,,,,,PLC_L_D1S1,P1,60.0205573055,1,B,2016_Jan_06_1756,NHGY,
stim/posf.jpg,stim/negf.jpg,stim/5.jpg,stim/4.jpg,stim/latef.jpg,AB,1,2,0,4,4,6,,,,,,,,,,,,,,,,,,2,1,1.09963235603,,,,,,PLC_L_D1S1,P1,60.0205573055,1,B,2016_Jan_06_1756,NHGY,
stim/posf.jpg,stim/negf.jpg,stim/6.jpg,stim/3.jpg,stim/latef.jpg,EF,2,4,0,5,5,52,,,,,,,,,,,,,,,,,,4,1,1.3495502171,,,,,,PLC_L_D1S1,P1,60.0205573055,1,B,2016_Jan_06_1756,NHGY,
stim/posf.jpg,stim/negf.jpg,stim/1.jpg,stim/2.jpg,stim/latef.jpg,CD,1,2,0,6,6,26,,,,,,,,,,,,,,,,,,None,0,,,,,,,PLC_L_D1S1,P1,60.0205573055,1,B,2016_Jan_06_1756,NHGY,
stim/posf.jpg,stim/negf.jpg,stim/1.jpg,stim/2.jpg,stim/latef.jpg,CD,1,2,0,7,7,23,,,,,,,,,,,,,,,,,,4,0,1.21626928719,,,,,,PLC_L_D1S1,P1,60.0205573055,1,B,2016_Jan_06_1756,NHGY,
stim/posf.jpg,stim/negf.jpg,stim/2.jpg,stim/1.jpg,stim/latef.jpg,CD,2,4,0,8,8,31,,,,,,,,,,,,,,,,,,2,0,1.34953255114,,,,,,PLC_L_D1S1,P1,60.0205573055,1,B,2016_Jan_06_1756,NHGY,
stim/posf.jpg,stim/negf.jpg,stim/4.jpg,stim/5.jpg,stim/latef.jpg,AB,2,4,0,9,9,11,,,,,,,,,,,,,,,,,,4,1,1.29956327109,,,,,,PLC_L_D1S1,P1,60.0205573055,1,B,2016_Jan_06_1756,NHGY,
stim/negf.jpg,stim/posf.jpg,stim/3.jpg,stim/6.jpg,stim/latef.jpg,EF,1,2,0,10,10,48,,,,,,,,,,,,,,,,,,2,1,1.59951417691,,,,,,PLC_L_D1S1,P1,60.0205573055,1,B,2016_Jan_06_1756,NHGY,
stim/posf.jpg,stim/negf.jpg,stim/2.jpg,stim/1.jpg,stim/latef.jpg,CD,2,4,0,11,11,35,,,,,,,,,,,,,,,,,,4,1,1.4495138927,,,,,,PLC_L_D1S1,P1,60.0205573055,1,B,2016_Jan_06_1756,NHGY,
stim/posf.jpg,stim/negf.jpg,stim/6.jpg,stim/3.jpg,stim/latef.jpg,EF,2,4,0,12,12,55,,,,,,,,,,,,,,,,,,None,0,,,,,,,PLC_L_D1S1,P1,60.0205573055,1,B,2016_Jan_06_1756,NHGY,
stim/posf.jpg,stim/negf.jpg,stim/1.jpg,stim/2.jpg,stim/latef.jpg,CD,1,2,0,13,13,25,,,,,,,,,,,,,,,,,,4,0,0.849707355181,,,,,,PLC_L_D1S1,P1,60.0205573055,1,B,2016_Jan_06_1756,NHGY,
stim/posf.jpg,stim/negf.jpg,stim/1.jpg,stim/2.jpg,stim/latef.jpg,CD,1,2,0,14,14,22,,,,,,,,,,,,,,,,,,4,0,0.866319176851,,,,,,PLC_L_D1S1,P1,60.0205573055,1,B,2016_Jan_06_1756,NHGY,
stim/posf.jpg,stim/negf.jpg,stim/5.jpg,stim/4.jpg,stim/latef.jpg,AB,1,2,0,15,15,1,,,,,,,,,,,,,,,,,,2,1,1.36621806521,,,,,,PLC_L_D1S1,P1,60.0205573055,1,B,2016_Jan_06_1756,NHGY,
stim/negf.jpg,stim/posf.jpg,stim/6.jpg,stim/3.jpg,stim/latef.jpg,EF,2,4,0,16,16,57,,,,,,,,,,,,,,,,,,2,0,1.58280141201,,,,,,PLC_L_D1S1,P1,60.0205573055,1,B,2016_Jan_06_1756,NHGY,
stim/posf.jpg,stim/negf.jpg,stim/5.jpg,stim/4.jpg,stim/latef.jpg,AB,1,2,0,17,17,5,,,,,,,,,,,,,,,,,,2,1,1.46617685665,,,,,,PLC_L_D1S1,P1,60.0205573055,1,B,2016_Jan_06_1756,NHGY,
stim/posf.jpg,stim/negf.jpg,stim/3.jpg,stim/6.jpg,stim/latef.jpg,EF,1,2,0,18,18,42,,,,,,,,,,,,,,,,,,2,1,1.26625151145,,,,,,PLC_L_D1S1,P1,60.0205573055,1,B,2016_Jan_06_1756,NHGY,
stim/negf.jpg,stim/posf.jpg,stim/1.jpg,stim/2.jpg,stim/latef.jpg,CD,1,2,0,19,19,27,,,,,,,,,,,,,,,,,,4,0,1.39953838115,,,,,,PLC_L_D1S1,P1,60.0205573055,1,B,2016_Jan_06_1756,NHGY,
stim/posf.jpg,stim/negf.jpg,stim/1.jpg,stim/2.jpg,stim/latef.jpg,CD,1,2,0,20,20,21,,,,,,,,,,,,,,,,,,4,0,0.966312497228,,,,,,PLC_L_D1S1,P1,60.0205573055,1,B,2016_Jan_06_1756,NHGY,
stim/posf.jpg,stim/negf.jpg,stim/6.jpg,stim/3.jpg,stim/latef.jpg,EF,2,4,0,21,21,51,,,,,,,,,,,,,,,,,,2,0,1.01632994515,,,,,,PLC_L_D1S1,P1,60.0205573055,1,B,2016_Jan_06_1756,NHGY,
stim/negf.jpg,stim/posf.jpg,stim/3.jpg,stim/6.jpg,stim/latef.jpg,EF,1,2,0,22,22,46,,,,,,,,,,,,,,,,,,4,0,0.933027579388,,,,,,PLC_L_D1S1,P1,60.0205573055,1,B,2016_Jan_06_1756,NHGY,
stim/posf.jpg,stim/negf.jpg,stim/2.jpg,stim/1.jpg,stim/latef.jpg,CD,2,4,0,23,23,33,,,,,,,,,,,,,,,,,,4,1,1.59946106172,,,,,,PLC_L_D1S1,P1,60.0205573055,1,B,2016_Jan_06_1756,NHGY,
stim/posf.jpg,stim/negf.jpg,stim/5.jpg,stim/4.jpg,stim/latef.jpg,AB,1,2,0,24,24,2,,,,,,,,,,,,,,,,,,2,1,1.13290999275,,,,,,PLC_L_D1S1,P1,60.0205573055,1,B,2016_Jan_06_1756,NHGY,
stim/negf.jpg,stim/posf.jpg,stim/3.jpg,stim/6.jpg,stim/latef.jpg,EF,1,2,0,25,25,49,,,,,,,,,,,,,,,,,,4,0,1.18292055654,,,,,,PLC_L_D1S1,P1,60.0205573055,1,B,2016_Jan_06_1756,NHGY,
stim/negf.jpg,stim/posf.jpg,stim/1.jpg,stim/2.jpg,stim/latef.jpg,CD,1,2,0,26,26,28,,,,,,,,,,,,,,,,,,4,0,1.59945130243,,,,,,PLC_L_D1S1,P1,60.0205573055,1,B,2016_Jan_06_1756,NHGY,
stim/negf.jpg,stim/posf.jpg,stim/5.jpg,stim/4.jpg,stim/latef.jpg,AB,1,2,0,27,27,8,,,,,,,,,,,,,,,,,,2,1,0.74975309301,,,,,,PLC_L_D1S1,P1,60.0205573055,1,B,2016_Jan_06_1756,NHGY,
stim/posf.jpg,stim/negf.jpg,stim/6.jpg,stim/3.jpg,stim/latef.jpg,EF,2,4,0,28,28,50,,,,,,,,,,,,,,,,,,None,0,,,,,,,PLC_L_D1S1,P1,60.0205573055,1,B,2016_Jan_06_1756,NHGY,
stim/negf.jpg,stim/posf.jpg,stim/4.jpg,stim/5.jpg,stim/latef.jpg,AB,2,4,0,29,29,19,,,,,,,,,,,,,,,,,,4,1,0.766343257783,,,,,,PLC_L_D1S1,P1,60.0205573055,1,B,2016_Jan_06_1756,NHGY,
stim/posf.jpg,stim/negf.jpg,stim/1.jpg,stim/2.jpg,stim/latef.jpg,CD,1,2,0,30,30,20,,,,,,,,,,,,,,,,,,2,1,1.41618869862,,,,,,PLC_L_D1S1,P1,60.0205573055,1,B,2016_Jan_06_1756,NHGY,
stim/posf.jpg,stim/negf.jpg,stim/3.jpg,stim/6.jpg,stim/latef.jpg,EF,1,2,0,31,31,41,,,,,,,,,,,,,,,,,,4,0,0.916342627715,,,,,,PLC_L_D1S1,P1,60.0205573055,1,B,2016_Jan_06_1756,NHGY,
stim/posf.jpg,stim/negf.jpg,stim/2.jpg,stim/1.jpg,stim/latef.jpg,CD,2,4,0,32,32,36,,,,,,,,,,,,,,,,,,4,1,1.38288159457,,,,,,PLC_L_D1S1,P1,60.0205573055,1,B,2016_Jan_06_1756,NHGY,
stim/posf.jpg,stim/negf.jpg,stim/2.jpg,stim/1.jpg,stim/latef.jpg,CD,2,4,0,33,33,32,,,,,,,,,,,,,,,,,,4,1,0.749753062935,,,,,,PLC_L_D1S1,P1,60.0205573055,1,B,2016_Jan_06_1756,NHGY,
stim/posf.jpg,stim/negf.jpg,stim/2.jpg,stim/1.jpg,stim/latef.jpg,CD,2,4,0,34,34,30,,,,,,,,,,,,,,,,,,4,1,0.766463349662,,,,,,PLC_L_D1S1,P1,60.0205573055,1,B,2016_Jan_06_1756,NHGY,
stim/negf.jpg,stim/posf.jpg,stim/2.jpg,stim/1.jpg,stim/latef.jpg,CD,2,4,0,35,35,37,,,,,,,,,,,,,,,,,,4,1,0.866374646902,,,,,,PLC_L_D1S1,P1,60.0205573055,1,B,2016_Jan_06_1756,NHGY,
stim/negf.jpg,stim/posf.jpg,stim/6.jpg,stim/3.jpg,stim/latef.jpg,EF,2,4,0,36,36,59,,,,,,,,,,,,,,,,,,2,0,1.48275960497,,,,,,PLC_L_D1S1,P1,60.0205573055,1,B,2016_Jan_06_1756,NHGY,
stim/posf.jpg,stim/negf.jpg,stim/3.jpg,stim/6.jpg,stim/latef.jpg,EF,1,2,0,37,37,44,,,,,,,,,,,,,,,,,,4,0,1.28290886043,,,,,,PLC_L_D1S1,P1,60.0205573055,1,B,2016_Jan_06_1756,NHGY,
stim/posf.jpg,stim/negf.jpg,stim/3.jpg,stim/6.jpg,stim/latef.jpg,EF,1,2,0,38,38,40,,,,,,,,,,,,,,,,,,4,0,1.29956885599,,,,,,PLC_L_D1S1,P1,60.0205573055,1,B,2016_Jan_06_1756,NHGY,
stim/negf.jpg,stim/posf.jpg,stim/4.jpg,stim/5.jpg,stim/latef.jpg,AB,2,4,0,39,39,18,,,,,,,,,,,,,,,,,,4,1,1.08297184017,,,,,,PLC_L_D1S1,P1,60.0205573055,1,B,2016_Jan_06_1756,NHGY,
stim/posf.jpg,stim/negf.jpg,stim/4.jpg,stim/5.jpg,stim/latef.jpg,AB,2,4,0,40,40,13,,,,,,,,,,,,,,,,,,4,1,0.649801874415,,,,,,PLC_L_D1S1,P1,60.0205573055,1,B,2016_Jan_06_1756,NHGY,
stim/negf.jpg,stim/posf.jpg,stim/1.jpg,stim/2.jpg,stim/latef.jpg,CD,1,2,0,41,41,29,,,,,,,,,,,,,,,,,,2,1,0.899714776149,,,,,,PLC_L_D1S1,P1,60.0205573055,1,B,2016_Jan_06_1756,NHGY,
stim/posf.jpg,stim/negf.jpg,stim/4.jpg,stim/5.jpg,stim/latef.jpg,AB,2,4,0,42,42,12,,,,,,,,,,,,,,,,,,4,1,0.933054646752,,,,,,PLC_L_D1S1,P1,60.0205573055,1,B,2016_Jan_06_1756,NHGY,
stim/negf.jpg,stim/posf.jpg,stim/6.jpg,stim/3.jpg,stim/latef.jpg,EF,2,4,0,43,43,58,,,,,,,,,,,,,,,,,,4,1,1.48284965809,,,,,,PLC_L_D1S1,P1,60.0205573055,1,B,2016_Jan_06_1756,NHGY,
stim/posf.jpg,stim/negf.jpg,stim/6.jpg,stim/3.jpg,stim/latef.jpg,EF,2,4,0,44,44,54,,,,,,,,,,,,,,,,,,2,0,1.33293144814,,,,,,PLC_L_D1S1,P1,60.0205573055,1,B,2016_Jan_06_1756,NHGY,
stim/posf.jpg,stim/negf.jpg,stim/4.jpg,stim/5.jpg,stim/latef.jpg,AB,2,4,0,45,45,17,,,,,,,,,,,,,,,,,,4,1,0.86637966038,,,,,,PLC_L_D1S1,P1,60.0205573055,1,B,2016_Jan_06_1756,NHGY,
stim/posf.jpg,stim/negf.jpg,stim/1.jpg,stim/2.jpg,stim/latef.jpg,CD,1,2,0,46,46,24,,,,,,,,,,,,,,,,,,2,1,0.799740183382,,,,,,PLC_L_D1S1,P1,60.0205573055,1,B,2016_Jan_06_1756,NHGY,
stim/negf.jpg,stim/posf.jpg,stim/6.jpg,stim/3.jpg,stim/latef.jpg,EF,2,4,0,47,47,56,,,,,,,,,,,,,,,,,,4,1,1.36620076014,,,,,,PLC_L_D1S1,P1,60.0205573055,1,B,2016_Jan_06_1756,NHGY,
stim/posf.jpg,stim/negf.jpg,stim/4.jpg,stim/5.jpg,stim/latef.jpg,AB,2,4,0,48,48,14,,,,,,,,,,,,,,,,,,4,1,1.36618606557,,,,,,PLC_L_D1S1,P1,60.0205573055,1,B,2016_Jan_06_1756,NHGY,
stim/posf.jpg,stim/negf.jpg,stim/5.jpg,stim/4.jpg,stim/latef.jpg,AB,1,2,0,49,49,4,,,,,,,,,,,,,,,,,,2,1,0.833064409048,,,,,,PLC_L_D1S1,P1,60.0205573055,1,B,2016_Jan_06_1756,NHGY,
stim/posf.jpg,stim/negf.jpg,stim/2.jpg,stim/1.jpg,stim/latef.jpg,CD,2,4,0,50,50,34,,,,,,,,,,,,,,,,,,4,1,1.18293218046,,,,,,PLC_L_D1S1,P1,60.0205573055,1,B,2016_Jan_06_1756,NHGY,
stim/posf.jpg,stim/negf.jpg,stim/3.jpg,stim/6.jpg,stim/latef.jpg,EF,1,2,0,51,51,45,,,,,,,,,,,,,,,,,,4,0,1.24956329064,,,,,,PLC_L_D1S1,P1,60.0205573055,1,B,2016_Jan_06_1756,NHGY,
stim/posf.jpg,stim/negf.jpg,stim/5.jpg,stim/4.jpg,stim/latef.jpg,AB,1,2,0,52,52,0,,,,,,,,,,,,,,,,,,2,1,0.883034741714,,,,,,PLC_L_D1S1,P1,60.0205573055,1,B,2016_Jan_06_1756,NHGY,
stim/negf.jpg,stim/posf.jpg,stim/5.jpg,stim/4.jpg,stim/latef.jpg,AB,1,2,0,53,53,9,,,,,,,,,,,,,,,,,,2,1,0.766414201344,,,,,,PLC_L_D1S1,P1,60.0205573055,1,B,2016_Jan_06_1756,NHGY,
stim/posf.jpg,stim/negf.jpg,stim/6.jpg,stim/3.jpg,stim/latef.jpg,EF,2,4,0,54,54,53,,,,,,,,,,,,,,,,,,4,1,1.46619439029,,,,,,PLC_L_D1S1,P1,60.0205573055,1,B,2016_Jan_06_1756,NHGY,
stim/posf.jpg,stim/negf.jpg,stim/4.jpg,stim/5.jpg,stim/latef.jpg,AB,2,4,0,55,55,15,,,,,,,,,,,,,,,,,,4,1,1.19958880464,,,,,,PLC_L_D1S1,P1,60.0205573055,1,B,2016_Jan_06_1756,NHGY,
stim/negf.jpg,stim/posf.jpg,stim/3.jpg,stim/6.jpg,stim/latef.jpg,EF,1,2,0,56,56,47,,,,,,,,,,,,,,,,,,4,0,1.5328281651,,,,,,PLC_L_D1S1,P1,60.0205573055,1,B,2016_Jan_06_1756,NHGY,
stim/posf.jpg,stim/negf.jpg,stim/4.jpg,stim/5.jpg,stim/latef.jpg,AB,2,4,0,57,57,16,,,,,,,,,,,,,,,,,,4,1,0.899646133314,,,,,,PLC_L_D1S1,P1,60.0205573055,1,B,2016_Jan_06_1756,NHGY,
stim/negf.jpg,stim/posf.jpg,stim/2.jpg,stim/1.jpg,stim/latef.jpg,CD,2,4,0,58,58,38,,,,,,,,,,,,,,,,,,2,0,1.1495830829,,,,,,PLC_L_D1S1,P1,60.0205573055,1,B,2016_Jan_06_1756,NHGY,
stim/negf.jpg,stim/posf.jpg,stim/2.jpg,stim/1.jpg,stim/latef.jpg,CD,2,4,0,59,59,39,,,,,,,,,,,,,,,,,,4,1,1.16629138769,,,,,,PLC_L_D1S1,P1,60.0205573055,1,B,2016_Jan_06_1756,NHGY,
,,,,,,,,,,,,,,,,,,,,,,,,,,,,,,,,0.9984375,0.998046875,1,0,0,PLC_L_D1S1,P1,60.0205573055,1,B,2016_Jan_06_1756,NHGY,
stim/posf.jpg,stim/negf.jpg,stim/5.jpg,stim/4.jpg,stim/latef.jpg,AB,1,2,,,,,0,0,0,4,,,,,,,,,,,,,,2,1,0.899689738838,,,,,,PLC_L_D1S1,P1,60.0205573055,1,B,2016_Jan_06_1756,NHGY,
stim/posf.jpg,stim/negf.jpg,stim/5.jpg,stim/4.jpg,stim/latef.jpg,AB,1,2,,,,,0,1,1,3,,,,,,,,,,,,,,2,1,1.19959682259,,,,,,PLC_L_D1S1,P1,60.0205573055,1,B,2016_Jan_06_1756,NHGY,
stim/posf.jpg,stim/negf.jpg,stim/2.jpg,stim/1.jpg,stim/latef.jpg,CD,2,4,,,,,0,2,2,34,,,,,,,,,,,,,,4,1,1.13294752315,,,,,,PLC_L_D1S1,P1,60.0205573055,1,B,2016_Jan_06_1756,NHGY,
stim/posf.jpg,stim/negf.jpg,stim/5.jpg,stim/4.jpg,stim/latef.jpg,AB,1,2,,,,,0,3,3,5,,,,,,,,,,,,,,2,1,0.949687280218,,,,,,PLC_L_D1S1,P1,60.0205573055,1,B,2016_Jan_06_1756,NHGY,
stim/negf.jpg,stim/posf.jpg,stim/1.jpg,stim/2.jpg,stim/latef.jpg,CD,1,2,,,,,0,4,4,27,,,,,,,,,,,,,,2,1,1.09965252422,,,,,,PLC_L_D1S1,P1,60.0205573055,1,B,2016_Jan_06_1756,NHGY,
stim/posf.jpg,stim/negf.jpg,stim/3.jpg,stim/6.jpg,stim/latef.jpg,EF,1,2,,,,,0,5,5,41,,,,,,,,,,,,,,None,0,,,,,,,PLC_L_D1S1,P1,60.0205573055,1,B,2016_Jan_06_1756,NHGY,
stim/posf.jpg,stim/negf.jpg,stim/6.jpg,stim/3.jpg,stim/latef.jpg,EF,2,4,,,,,0,6,6,52,,,,,,,,,,,,,,4,1,1.14960453829,,,,,,PLC_L_D1S1,P1,60.0205573055,1,B,2016_Jan_06_1756,NHGY,
stim/posf.jpg,stim/negf.jpg,stim/1.jpg,stim/2.jpg,stim/latef.jpg,CD,1,2,,,,,0,7,7,25,,,,,,,,,,,,,,2,1,0.899660686533,,,,,,PLC_L_D1S1,P1,60.0205573055,1,B,2016_Jan_06_1756,NHGY,
stim/posf.jpg,stim/negf.jpg,stim/3.jpg,stim/6.jpg,stim/latef.jpg,EF,1,2,,,,,0,8,8,42,,,,,,,,,,,,,,2,1,1.49950720857,,,,,,PLC_L_D1S1,P1,60.0205573055,1,B,2016_Jan_06_1756,NHGY,
stim/posf.jpg,stim/negf.jpg,stim/6.jpg,stim/3.jpg,stim/latef.jpg,EF,2,4,,,,,0,9,9,53,,,,,,,,,,,,,,4,1,1.61614163449,,,,,,PLC_L_D1S1,P1,60.0205573055,1,B,2016_Jan_06_1756,NHGY,
stim/posf.jpg,stim/negf.jpg,stim/6.jpg,stim/3.jpg,stim/latef.jpg,EF,2,4,,,,,0,10,10,51,,,,,,,,,,,,,,4,1,1.04965082048,,,,,,PLC_L_D1S1,P1,60.0205573055,1,B,2016_Jan_06_1756,NHGY,
stim/posf.jpg,stim/negf.jpg,stim/6.jpg,stim/3.jpg,stim/latef.jpg,EF,2,4,,,,,0,11,11,54,,,,,,,,,,,,,,4,1,0.733070742811,,,,,,PLC_L_D1S1,P1,60.0205573055,1,B,2016_Jan_06_1756,NHGY,
stim/posf.jpg,stim/negf.jpg,stim/6.jpg,stim/3.jpg,stim/latef.jpg,EF,2,4,,,,,0,12,12,50,,,,,,,,,,,,,,4,1,0.84959555193,,,,,,PLC_L_D1S1,P1,60.0205573055,1,B,2016_Jan_06_1756,NHGY,
stim/posf.jpg,stim/negf.jpg,stim/3.jpg,stim/6.jpg,stim/latef.jpg,EF,1,2,,,,,0,13,13,40,,,,,,,,,,,,,,2,1,0.983070389431,,,,,,PLC_L_D1S1,P1,60.0205573055,1,B,2016_Jan_06_1756,NHGY,
stim/posf.jpg,stim/negf.jpg,stim/1.jpg,stim/2.jpg,stim/latef.jpg,CD,1,2,,,,,0,14,14,21,,,,,,,,,,,,,,None,0,,,,,,,PLC_L_D1S1,P1,60.0205573055,1,B,2016_Jan_06_1756,NHGY,
stim/negf.jpg,stim/posf.jpg,stim/2.jpg,stim/1.jpg,stim/latef.jpg,CD,2,4,,,,,0,15,15,38,,,,,,,,,,,,,,4,1,0.983024347845,,,,,,PLC_L_D1S1,P1,60.0205573055,1,B,2016_Jan_06_1756,NHGY,
stim/posf.jpg,stim/negf.jpg,stim/1.jpg,stim/2.jpg,stim/latef.jpg,CD,1,2,,,,,0,16,16,24,,,,,,,,,,,,,,2,1,1.46617869122,,,,,,PLC_L_D1S1,P1,60.0205573055,1,B,2016_Jan_06_1756,NHGY,
stim/posf.jpg,stim/negf.jpg,stim/5.jpg,stim/4.jpg,stim/latef.jpg,AB,1,2,,,,,0,17,17,1,,,,,,,,,,,,,,2,1,0.849702594332,,,,,,PLC_L_D1S1,P1,60.0205573055,1,B,2016_Jan_06_1756,NHGY,
stim/posf.jpg,stim/negf.jpg,stim/6.jpg,stim/3.jpg,stim/latef.jpg,EF,2,4,,,,,0,18,18,55,,,,,,,,,,,,,,4,1,1.19961821182,,,,,,PLC_L_D1S1,P1,60.0205573055,1,B,2016_Jan_06_1756,NHGY,
stim/posf.jpg,stim/negf.jpg,stim/4.jpg,stim/5.jpg,stim/latef.jpg,AB,2,4,,,,,0,19,19,11,,,,,,,,,,,,,,4,1,0.816388750502,,,,,,PLC_L_D1S1,P1,60.0205573055,1,B,2016_Jan_06_1756,NHGY,
stim/posf.jpg,stim/negf.jpg,stim/4.jpg,stim/5.jpg,stim/latef.jpg,AB,2,4,,,,,0,20,20,10,,,,,,,,,,,,,,4,1,0.716373334136,,,,,,PLC_L_D1S1,P1,60.0205573055,1,B,2016_Jan_06_1756,NHGY,
stim/negf.jpg,stim/posf.jpg,stim/6.jpg,stim/3.jpg,stim/latef.jpg,EF,2,4,,,,,0,21,21,56,,,,,,,,,,,,,,4,1,1.34953286993,,,,,,PLC_L_D1S1,P1,60.0205573055,1,B,2016_Jan_06_1756,NHGY,
stim/posf.jpg,stim/negf.jpg,stim/1.jpg,stim/2.jpg,stim/latef.jpg,CD,1,2,,,,,0,22,22,26,,,,,,,,,,,,,,2,1,1.38289010876,,,,,,PLC_L_D1S1,P1,60.0205573055,1,B,2016_Jan_06_1756,NHGY,
stim/posf.jpg,stim/negf.jpg,stim/5.jpg,stim/4.jpg,stim/latef.jpg,AB,1,2,,,,,0,23,23,7,,,,,,,,,,,,,,2,1,0.766407257061,,,,,,PLC_L_D1S1,P1,60.0205573055,1,B,2016_Jan_06_1756,NHGY,
stim/posf.jpg,stim/negf.jpg,stim/3.jpg,stim/6.jpg,stim/latef.jpg,EF,1,2,,,,,0,24,24,45,,,,,,,,,,,,,,2,1,1.11629869438,,,,,,PLC_L_D1S1,P1,60.0205573055,1,B,2016_Jan_06_1756,NHGY,
stim/posf.jpg,stim/negf.jpg,stim/1.jpg,stim/2.jpg,stim/latef.jpg,CD,1,2,,,,,0,25,25,23,,,,,,,,,,,,,,2,1,1.33289547862,,,,,,PLC_L_D1S1,P1,60.0205573055,1,B,2016_Jan_06_1756,NHGY,
stim/posf.jpg,stim/negf.jpg,stim/2.jpg,stim/1.jpg,stim/latef.jpg,CD,2,4,,,,,0,26,26,36,,,,,,,,,,,,,,4,1,1.33290423642,,,,,,PLC_L_D1S1,P1,60.0205573055,1,B,2016_Jan_06_1756,NHGY,
stim/negf.jpg,stim/posf.jpg,stim/3.jpg,stim/6.jpg,stim/latef.jpg,EF,1,2,,,,,0,27,27,48,,,,,,,,,,,,,,2,1,0.832999684966,,,,,,PLC_L_D1S1,P1,60.0205573055,1,B,2016_Jan_06_1756,NHGY,
stim/negf.jpg,stim/posf.jpg,stim/6.jpg,stim/3.jpg,stim/latef.jpg,EF,2,4,,,,,0,28,28,58,,,,,,,,,,,,,,4,1,1.43284814983,,,,,,PLC_L_D1S1,P1,60.0205573055,1,B,2016_Jan_06_1756,NHGY,
stim/negf.jpg,stim/posf.jpg,stim/5.jpg,stim/4.jpg,stim/latef.jpg,AB,1,2,,,,,0,29,29,9,,,,,,,,,,,,,,2,1,0.766401115777,,,,,,PLC_L_D1S1,P1,60.0205573055,1,B,2016_Jan_06_1756,NHGY,
stim/negf.jpg,stim/posf.jpg,stim/3.jpg,stim/6.jpg,stim/latef.jpg,EF,1,2,,,,,0,30,30,46,,,,,,,,,,,,,,2,1,1.21628318177,,,,,,PLC_L_D1S1,P1,60.0205573055,1,B,2016_Jan_06_1756,NHGY,
stim/negf.jpg,stim/posf.jpg,stim/3.jpg,stim/6.jpg,stim/latef.jpg,EF,1,2,,,,,0,31,31,47,,,,,,,,,,,,,,2,1,0.883050335523,,,,,,PLC_L_D1S1,P1,60.0205573055,1,B,2016_Jan_06_1756,NHGY,
stim/posf.jpg,stim/negf.jpg,stim/3.jpg,stim/6.jpg,stim/latef.jpg,EF,1,2,,,,,0,32,32,44,,,,,,,,,,,,,,2,1,0.89971664079,,,,,,PLC_L_D1S1,P1,60.0205573055,1,B,2016_Jan_06_1756,NHGY,
stim/negf.jpg,stim/posf.jpg,stim/1.jpg,stim/2.jpg,stim/latef.jpg,CD,1,2,,,,,0,33,33,28,,,,,,,,,,,,,,2,1,1.36620735856,,,,,,PLC_L_D1S1,P1,60.0205573055,1,B,2016_Jan_06_1756,NHGY,
stim/posf.jpg,stim/negf.jpg,stim/4.jpg,stim/5.jpg,stim/latef.jpg,AB,2,4,,,,,0,34,34,14,,,,,,,,,,,,,,4,1,1.14960442401,,,,,,PLC_L_D1S1,P1,60.0205573055,1,B,2016_Jan_06_1756,NHGY,
stim/posf.jpg,stim/negf.jpg,stim/2.jpg,stim/1.jpg,stim/latef.jpg,CD,2,4,,,,,0,35,35,35,,,,,,,,,,,,,,4,1,1.24957904084,,,,,,PLC_L_D1S1,P1,60.0205573055,1,B,2016_Jan_06_1756,NHGY,
stim/negf.jpg,stim/posf.jpg,stim/6.jpg,stim/3.jpg,stim/latef.jpg,EF,2,4,,,,,0,36,36,59,,,,,,,,,,,,,,4,1,0.899721212167,,,,,,PLC_L_D1S1,P1,60.0205573055,1,B,2016_Jan_06_1756,NHGY,
stim/posf.jpg,stim/negf.jpg,stim/2.jpg,stim/1.jpg,stim/latef.jpg,CD,2,4,,,,,0,37,37,30,,,,,,,,,,,,,,None,0,,,,,,,PLC_L_D1S1,P1,60.0205573055,1,B,2016_Jan_06_1756,NHGY,
stim/negf.jpg,stim/posf.jpg,stim/5.jpg,stim/4.jpg,stim/latef.jpg,AB,1,2,,,,,0,38,38,8,,,,,,,,,,,,,,2,1,0.699765431217,,,,,,PLC_L_D1S1,P1,60.0205573055,1,B,2016_Jan_06_1756,NHGY,
stim/posf.jpg,stim/negf.jpg,stim/5.jpg,stim/4.jpg,stim/latef.jpg,AB,1,2,,,,,0,39,39,0,,,,,,,,,,,,,,2,1,0.633105355954,,,,,,PLC_L_D1S1,P1,60.0205573055,1,B,2016_Jan_06_1756,NHGY,
stim/negf.jpg,stim/posf.jpg,stim/2.jpg,stim/1.jpg,stim/latef.jpg,CD,2,4,,,,,0,40,40,37,,,,,,,,,,,,,,4,1,1.08299092867,,,,,,PLC_L_D1S1,P1,60.0205573055,1,B,2016_Jan_06_1756,NHGY,
stim/negf.jpg,stim/posf.jpg,stim/1.jpg,stim/2.jpg,stim/latef.jpg,CD,1,2,,,,,0,41,41,29,,,,,,,,,,,,,,None,0,,,,,,,PLC_L_D1S1,P1,60.0205573055,1,B,2016_Jan_06_1756,NHGY,
stim/posf.jpg,stim/negf.jpg,stim/5.jpg,stim/4.jpg,stim/latef.jpg,AB,1,2,,,,,0,42,42,6,,,,,,,,,,,,,,2,1,0.716412801359,,,,,,PLC_L_D1S1,P1,60.0205573055,1,B,2016_Jan_06_1756,NHGY,
stim/posf.jpg,stim/negf.jpg,stim/4.jpg,stim/5.jpg,stim/latef.jpg,AB,2,4,,,,,0,43,43,17,,,,,,,,,,,,,,4,1,0.883030558302,,,,,,PLC_L_D1S1,P1,60.0205573055,1,B,2016_Jan_06_1756,NHGY,
stim/posf.jpg,stim/negf.jpg,stim/2.jpg,stim/1.jpg,stim/latef.jpg,CD,2,4,,,,,0,44,44,32,,,,,,,,,,,,,,4,1,1.23293148724,,,,,,PLC_L_D1S1,P1,60.0205573055,1,B,2016_Jan_06_1756,NHGY,
stim/posf.jpg,stim/negf.jpg,stim/2.jpg,stim/1.jpg,stim/latef.jpg,CD,2,4,,,,,0,45,45,33,,,,,,,,,,,,,,4,1,1.04962110051,,,,,,PLC_L_D1S1,P1,60.0205573055,1,B,2016_Jan_06_1756,NHGY,
stim/posf.jpg,stim/negf.jpg,stim/5.jpg,stim/4.jpg,stim/latef.jpg,AB,1,2,,,,,0,46,46,2,,,,,,,,,,,,,,2,1,0.83303920031,,,,,,PLC_L_D1S1,P1,60.0205573055,1,B,2016_Jan_06_1756,NHGY,
stim/posf.jpg,stim/negf.jpg,stim/4.jpg,stim/5.jpg,stim/latef.jpg,AB,2,4,,,,,0,47,47,13,,,,,,,,,,,,,,4,1,0.733086327597,,,,,,PLC_L_D1S1,P1,60.0205573055,1,B,2016_Jan_06_1756,NHGY,
stim/posf.jpg,stim/negf.jpg,stim/2.jpg,stim/1.jpg,stim/latef.jpg,CD,2,4,,,,,0,48,48,31,,,,,,,,,,,,,,4,1,1.19964420251,,,,,,PLC_L_D1S1,P1,60.0205573055,1,B,2016_Jan_06_1756,NHGY,
stim/posf.jpg,stim/negf.jpg,stim/4.jpg,stim/5.jpg,stim/latef.jpg,AB,2,4,,,,,0,49,49,15,,,,,,,,,,,,,,4,1,0.73316145457,,,,,,PLC_L_D1S1,P1,60.0205573055,1,B,2016_Jan_06_1756,NHGY,
stim/negf.jpg,stim/posf.jpg,stim/4.jpg,stim/5.jpg,stim/latef.jpg,AB,2,4,,,,,0,50,50,18,,,,,,,,,,,,,,4,1,0.616476087864,,,,,,PLC_L_D1S1,P1,60.0205573055,1,B,2016_Jan_06_1756,NHGY,
stim/negf.jpg,stim/posf.jpg,stim/2.jpg,stim/1.jpg,stim/latef.jpg,CD,2,4,,,,,0,51,51,39,,,,,,,,,,,,,,4,1,1.33288473889,,,,,,PLC_L_D1S1,P1,60.0205573055,1,B,2016_Jan_06_1756,NHGY,
stim/negf.jpg,stim/posf.jpg,stim/6.jpg,stim/3.jpg,stim/latef.jpg,EF,2,4,,,,,0,52,52,57,,,,,,,,,,,,,,2,0,1.28290698676,,,,,,PLC_L_D1S1,P1,60.0205573055,1,B,2016_Jan_06_1756,NHGY,
stim/negf.jpg,stim/posf.jpg,stim/3.jpg,stim/6.jpg,stim/latef.jpg,EF,1,2,,,,,0,53,53,49,,,,,,,,,,,,,,2,1,1.04964335891,,,,,,PLC_L_D1S1,P1,60.0205573055,1,B,2016_Jan_06_1756,NHGY,
stim/negf.jpg,stim/posf.jpg,stim/4.jpg,stim/5.jpg,stim/latef.jpg,AB,2,4,,,,,0,54,54,19,,,,,,,,,,,,,,4,1,0.749759944061,,,,,,PLC_L_D1S1,P1,60.0205573055,1,B,2016_Jan_06_1756,NHGY,
stim/posf.jpg,stim/negf.jpg,stim/3.jpg,stim/6.jpg,stim/latef.jpg,EF,1,2,,,,,0,55,55,43,,,,,,,,,,,,,,2,1,0.98298305207,,,,,,PLC_L_D1S1,P1,60.0205573055,1,B,2016_Jan_06_1756,NHGY,
stim/posf.jpg,stim/negf.jpg,stim/1.jpg,stim/2.jpg,stim/latef.jpg,CD,1,2,,,,,0,56,56,20,,,,,,,,,,,,,,2,1,1.18292747676,,,,,,PLC_L_D1S1,P1,60.0205573055,1,B,2016_Jan_06_1756,NHGY,
stim/posf.jpg,stim/negf.jpg,stim/1.jpg,stim/2.jpg,stim/latef.jpg,CD,1,2,,,,,0,57,57,22,,,,,,,,,,,,,,2,1,1.31623483344,,,,,,PLC_L_D1S1,P1,60.0205573055,1,B,2016_Jan_06_1756,NHGY,
stim/posf.jpg,stim/negf.jpg,stim/4.jpg,stim/5.jpg,stim/latef.jpg,AB,2,4,,,,,0,58,58,12,,,,,,,,,,,,,,4,1,0.799722751998,,,,,,PLC_L_D1S1,P1,60.0205573055,1,B,2016_Jan_06_1756,NHGY,
stim/posf.jpg,stim/negf.jpg,stim/4.jpg,stim/5.jpg,stim/latef.jpg,AB,2,4,,,,,0,59,59,16,,,,,,,,,,,,,,4,1,0.71642266591,,,,,,PLC_L_D1S1,P1,60.0205573055,1,B,2016_Jan_06_1756,NHGY,
,,,,,,,,,,,,,,,,,,,,,,,,,,,,,,,,0.9984375,0.998046875,1,0,0,PLC_L_D1S1,P1,60.0205573055,1,B,2016_Jan_06_1756,NHGY,
stim/posf.jpg,stim/negf.jpg,stim/4.jpg,stim/5.jpg,stim/latef.jpg,AB,2,4,,,,,,,,,0,0,0,12,,,,,,,,,,4,1,0.733093831273,,,,,,PLC_L_D1S1,P1,60.0205573055,1,B,2016_Jan_06_1756,NHGY,
stim/posf.jpg,stim/negf.jpg,stim/3.jpg,stim/6.jpg,stim/latef.jpg,EF,1,2,,,,,,,,,0,1,1,42,,,,,,,,,,2,1,0.98302209524,,,,,,PLC_L_D1S1,P1,60.0205573055,1,B,2016_Jan_06_1756,NHGY,
stim/posf.jpg,stim/negf.jpg,stim/5.jpg,stim/4.jpg,stim/latef.jpg,AB,1,2,,,,,,,,,0,2,2,5,,,,,,,,,,2,1,0.683108172464,,,,,,PLC_L_D1S1,P1,60.0205573055,1,B,2016_Jan_06_1756,NHGY,
stim/posf.jpg,stim/negf.jpg,stim/6.jpg,stim/3.jpg,stim/latef.jpg,EF,2,4,,,,,,,,,0,3,3,51,,,,,,,,,,4,1,1.08310379357,,,,,,PLC_L_D1S1,P1,60.0205573055,1,B,2016_Jan_06_1756,NHGY,
stim/posf.jpg,stim/negf.jpg,stim/4.jpg,stim/5.jpg,stim/latef.jpg,AB,2,4,,,,,,,,,0,4,4,11,,,,,,,,,,4,1,0.61642150502,,,,,,PLC_L_D1S1,P1,60.0205573055,1,B,2016_Jan_06_1756,NHGY,
stim/negf.jpg,stim/posf.jpg,stim/6.jpg,stim/3.jpg,stim/latef.jpg,EF,2,4,,,,,,,,,0,5,5,59,,,,,,,,,,4,1,0.949669957105,,,,,,PLC_L_D1S1,P1,60.0205573055,1,B,2016_Jan_06_1756,NHGY,
stim/posf.jpg,stim/negf.jpg,stim/4.jpg,stim/5.jpg,stim/latef.jpg,AB,2,4,,,,,,,,,0,6,6,10,,,,,,,,,,4,1,0.549799621809,,,,,,PLC_L_D1S1,P1,60.0205573055,1,B,2016_Jan_06_1756,NHGY,
stim/negf.jpg,stim/posf.jpg,stim/4.jpg,stim/5.jpg,stim/latef.jpg,AB,2,4,,,,,,,,,0,7,7,18,,,,,,,,,,4,1,0.599793469999,,,,,,PLC_L_D1S1,P1,60.0205573055,1,B,2016_Jan_06_1756,NHGY,
stim/posf.jpg,stim/negf.jpg,stim/4.jpg,stim/5.jpg,stim/latef.jpg,AB,2,4,,,,,,,,,0,8,8,17,,,,,,,,,,4,1,0.699749359218,,,,,,PLC_L_D1S1,P1,60.0205573055,1,B,2016_Jan_06_1756,NHGY,
stim/negf.jpg,stim/posf.jpg,stim/3.jpg,stim/6.jpg,stim/latef.jpg,EF,1,2,,,,,,,,,0,9,9,49,,,,,,,,,,2,1,0.816390452739,,,,,,PLC_L_D1S1,P1,60.0205573055,1,B,2016_Jan_06_1756,NHGY,
stim/posf.jpg,stim/negf.jpg,stim/6.jpg,stim/3.jpg,stim/latef.jpg,EF,2,4,,,,,,,,,0,10,10,52,,,,,,,,,,4,1,0.88303536727,,,,,,PLC_L_D1S1,P1,60.0205573055,1,B,2016_Jan_06_1756,NHGY,
stim/posf.jpg,stim/negf.jpg,stim/5.jpg,stim/4.jpg,stim/latef.jpg,AB,1,2,,,,,,,,,0,11,11,2,,,,,,,,,,2,1,1.04958204532,,,,,,PLC_L_D1S1,P1,60.0205573055,1,B,2016_Jan_06_1756,NHGY,
stim/posf.jpg,stim/negf.jpg,stim/1.jpg,stim/2.jpg,stim/latef.jpg,CD,1,2,,,,,,,,,0,12,12,21,,,,,,,,,,2,1,1.132982019,,,,,,PLC_L_D1S1,P1,60.0205573055,1,B,2016_Jan_06_1756,NHGY,
stim/posf.jpg,stim/negf.jpg,stim/5.jpg,stim/4.jpg,stim/latef.jpg,AB,1,2,,,,,,,,,0,13,13,6,,,,,,,,,,2,1,0.783057998594,,,,,,PLC_L_D1S1,P1,60.0205573055,1,B,2016_Jan_06_1756,NHGY,
stim/posf.jpg,stim/negf.jpg,stim/4.jpg,stim/5.jpg,stim/latef.jpg,AB,2,4,,,,,,,,,0,14,14,15,,,,,,,,,,4,1,0.566533366918,,,,,,PLC_L_D1S1,P1,60.0205573055,1,B,2016_Jan_06_1756,NHGY,
stim/posf.jpg,stim/negf.jpg,stim/5.jpg,stim/4.jpg,stim/latef.jpg,AB,1,2,,,,,,,,,0,15,15,1,,,,,,,,,,2,1,0.716413962248,,,,,,PLC_L_D1S1,P1,60.0205573055,1,B,2016_Jan_06_1756,NHGY,
stim/posf.jpg,stim/negf.jpg,stim/5.jpg,stim/4.jpg,stim/latef.jpg,AB,1,2,,,,,,,,,0,16,16,3,,,,,,,,,,2,1,0.666442862675,,,,,,PLC_L_D1S1,P1,60.0205573055,1,B,2016_Jan_06_1756,NHGY,
stim/posf.jpg,stim/negf.jpg,stim/2.jpg,stim/1.jpg,stim/latef.jpg,CD,2,4,,,,,,,,,0,17,17,30,,,,,,,,,,4,1,1.26625007387,,,,,,PLC_L_D1S1,P1,60.0205573055,1,B,2016_Jan_06_1756,NHGY,
stim/negf.jpg,stim/posf.jpg,stim/1.jpg,stim/2.jpg,stim/latef.jpg,CD,1,2,,,,,,,,,0,18,18,28,,,,,,,,,,2,1,1.24959436397,,,,,,PLC_L_D1S1,P1,60.0205573055,1,B,2016_Jan_06_1756,NHGY,
stim/posf.jpg,stim/negf.jpg,stim/2.jpg,stim/1.jpg,stim/latef.jpg,CD,2,4,,,,,,,,,0,19,19,33,,,,,,,,,,4,1,0.916372107082,,,,,,PLC_L_D1S1,P1,60.0205573055,1,B,2016_Jan_06_1756,NHGY,
stim/posf.jpg,stim/negf.jpg,stim/4.jpg,stim/5.jpg,stim/latef.jpg,AB,2,4,,,,,,,,,0,20,20,14,,,,,,,,,,4,1,0.699676084856,,,,,,PLC_L_D1S1,P1,60.0205573055,1,B,2016_Jan_06_1756,NHGY,
stim/negf.jpg,stim/posf.jpg,stim/2.jpg,stim/1.jpg,stim/latef.jpg,CD,2,4,,,,,,,,,0,21,21,37,,,,,,,,,,4,1,1.31624771149,,,,,,PLC_L_D1S1,P1,60.0205573055,1,B,2016_Jan_06_1756,NHGY,
stim/posf.jpg,stim/negf.jpg,stim/1.jpg,stim/2.jpg,stim/latef.jpg,CD,1,2,,,,,,,,,0,22,22,26,,,,,,,,,,4,0,0.849695325241,,,,,,PLC_L_D1S1,P1,60.0205573055,1,B,2016_Jan_06_1756,NHGY,
stim/posf.jpg,stim/negf.jpg,stim/1.jpg,stim/2.jpg,stim/latef.jpg,CD,1,2,,,,,,,,,0,23,23,25,,,,,,,,,,2,1,1.09963007936,,,,,,PLC_L_D1S1,P1,60.0205573055,1,B,2016_Jan_06_1756,NHGY,
stim/posf.jpg,stim/negf.jpg,stim/6.jpg,stim/3.jpg,stim/latef.jpg,EF,2,4,,,,,,,,,0,24,24,50,,,,,,,,,,4,1,1.14962575009,,,,,,PLC_L_D1S1,P1,60.0205573055,1,B,2016_Jan_06_1756,NHGY,
stim/posf.jpg,stim/negf.jpg,stim/3.jpg,stim/6.jpg,stim/latef.jpg,EF,1,2,,,,,,,,,0,25,25,41,,,,,,,,,,2,1,0.766424495964,,,,,,PLC_L_D1S1,P1,60.0205573055,1,B,2016_Jan_06_1756,NHGY,
stim/posf.jpg,stim/negf.jpg,stim/1.jpg,stim/2.jpg,stim/latef.jpg,CD,1,2,,,,,,,,,0,26,26,20,,,,,,,,,,2,1,1.66612175953,,,,,,PLC_L_D1S1,P1,60.0205573055,1,B,2016_Jan_06_1756,NHGY,
stim/posf.jpg,stim/negf.jpg,stim/2.jpg,stim/1.jpg,stim/latef.jpg,CD,2,4,,,,,,,,,0,27,27,35,,,,,,,,,,4,1,0.833106017601,,,,,,PLC_L_D1S1,P1,60.0205573055,1,B,2016_Jan_06_1756,NHGY,
stim/negf.jpg,stim/posf.jpg,stim/3.jpg,stim/6.jpg,stim/latef.jpg,EF,1,2,,,,,,,,,0,28,28,48,,,,,,,,,,2,1,0.899707236385,,,,,,PLC_L_D1S1,P1,60.0205573055,1,B,2016_Jan_06_1756,NHGY,
stim/posf.jpg,stim/negf.jpg,stim/2.jpg,stim/1.jpg,stim/latef.jpg,CD,2,4,,,,,,,,,0,29,29,34,,,,,,,,,,4,1,1.43285526253,,,,,,PLC_L_D1S1,P1,60.0205573055,1,B,2016_Jan_06_1756,NHGY,
stim/posf.jpg,stim/negf.jpg,stim/2.jpg,stim/1.jpg,stim/latef.jpg,CD,2,4,,,,,,,,,0,30,30,31,,,,,,,,,,4,1,1.53282965982,,,,,,PLC_L_D1S1,P1,60.0205573055,1,B,2016_Jan_06_1756,NHGY,
stim/negf.jpg,stim/posf.jpg,stim/3.jpg,stim/6.jpg,stim/latef.jpg,EF,1,2,,,,,,,,,0,31,31,46,,,,,,,,,,2,1,1.01630237554,,,,,,PLC_L_D1S1,P1,60.0205573055,1,B,2016_Jan_06_1756,NHGY,
stim/negf.jpg,stim/posf.jpg,stim/5.jpg,stim/4.jpg,stim/latef.jpg,AB,1,2,,,,,,,,,0,32,32,9,,,,,,,,,,2,1,0.949668471408,,,,,,PLC_L_D1S1,P1,60.0205573055,1,B,2016_Jan_06_1756,NHGY,
stim/posf.jpg,stim/negf.jpg,stim/3.jpg,stim/6.jpg,stim/latef.jpg,EF,1,2,,,,,,,,,0,33,33,43,,,,,,,,,,2,1,0.833038526634,,,,,,PLC_L_D1S1,P1,60.0205573055,1,B,2016_Jan_06_1756,NHGY,
stim/negf.jpg,stim/posf.jpg,stim/6.jpg,stim/3.jpg,stim/latef.jpg,EF,2,4,,,,,,,,,0,34,34,56,,,,,,,,,,4,1,0.982973292782,,,,,,PLC_L_D1S1,P1,60.0205573055,1,B,2016_Jan_06_1756,NHGY,
stim/negf.jpg,stim/posf.jpg,stim/1.jpg,stim/2.jpg,stim/latef.jpg,CD,1,2,,,,,,,,,0,35,35,27,,,,,,,,,,None,0,,,,,,,PLC_L_D1S1,P1,60.0205573055,1,B,2016_Jan_06_1756,NHGY,
stim/posf.jpg,stim/negf.jpg,stim/3.jpg,stim/6.jpg,stim/latef.jpg,EF,1,2,,,,,,,,,0,36,36,44,,,,,,,,,,2,1,0.683041460435,,,,,,PLC_L_D1S1,P1,60.0205573055,1,B,2016_Jan_06_1756,NHGY,
stim/negf.jpg,stim/posf.jpg,stim/4.jpg,stim/5.jpg,stim/latef.jpg,AB,2,4,,,,,,,,,0,37,37,19,,,,,,,,,,4,1,0.616433835708,,,,,,PLC_L_D1S1,P1,60.0205573055,1,B,2016_Jan_06_1756,NHGY,
stim/posf.jpg,stim/negf.jpg,stim/6.jpg,stim/3.jpg,stim/latef.jpg,EF,2,4,,,,,,,,,0,38,38,55,,,,,,,,,,4,1,1.09962309598,,,,,,PLC_L_D1S1,P1,60.0205573055,1,B,2016_Jan_06_1756,NHGY,
stim/negf.jpg,stim/posf.jpg,stim/5.jpg,stim/4.jpg,stim/latef.jpg,AB,1,2,,,,,,,,,0,39,39,8,,,,,,,,,,2,1,0.949707983745,,,,,,PLC_L_D1S1,P1,60.0205573055,1,B,2016_Jan_06_1756,NHGY,
stim/negf.jpg,stim/posf.jpg,stim/3.jpg,stim/6.jpg,stim/latef.jpg,EF,1,2,,,,,,,,,0,40,40,47,,,,,,,,,,2,1,0.816382903952,,,,,,PLC_L_D1S1,P1,60.0205573055,1,B,2016_Jan_06_1756,NHGY,
stim/posf.jpg,stim/negf.jpg,stim/5.jpg,stim/4.jpg,stim/latef.jpg,AB,1,2,,,,,,,,,0,41,41,0,,,,,,,,,,2,1,0.833047371647,,,,,,PLC_L_D1S1,P1,60.0205573055,1,B,2016_Jan_06_1756,NHGY,
stim/negf.jpg,stim/posf.jpg,stim/6.jpg,stim/3.jpg,stim/latef.jpg,EF,2,4,,,,,,,,,0,42,42,58,,,,,,,,,,4,1,1.06632714368,,,,,,PLC_L_D1S1,P1,60.0205573055,1,B,2016_Jan_06_1756,NHGY,
stim/negf.jpg,stim/posf.jpg,stim/2.jpg,stim/1.jpg,stim/latef.jpg,CD,2,4,,,,,,,,,0,43,43,39,,,,,,,,,,None,0,,,,,,,PLC_L_D1S1,P1,60.0205573055,1,B,2016_Jan_06_1756,NHGY,
stim/posf.jpg,stim/negf.jpg,stim/5.jpg,stim/4.jpg,stim/latef.jpg,AB,1,2,,,,,,,,,0,44,44,7,,,,,,,,,,2,1,0.749744693106,,,,,,PLC_L_D1S1,P1,60.0205573055,1,B,2016_Jan_06_1756,NHGY,
stim/posf.jpg,stim/negf.jpg,stim/1.jpg,stim/2.jpg,stim/latef.jpg,CD,1,2,,,,,,,,,0,45,45,23,,,,,,,,,,4,0,0.916373270979,,,,,,PLC_L_D1S1,P1,60.0205573055,1,B,2016_Jan_06_1756,NHGY,
stim/posf.jpg,stim/negf.jpg,stim/4.jpg,stim/5.jpg,stim/latef.jpg,AB,2,4,,,,,,,,,0,46,46,13,,,,,,,,,,4,1,0.749743772814,,,,,,PLC_L_D1S1,P1,60.0205573055,1,B,2016_Jan_06_1756,NHGY,
stim/negf.jpg,stim/posf.jpg,stim/2.jpg,stim/1.jpg,stim/latef.jpg,CD,2,4,,,,,,,,,0,47,47,38,,,,,,,,,,4,1,1.13296141773,,,,,,PLC_L_D1S1,P1,60.0205573055,1,B,2016_Jan_06_1756,NHGY,
stim/posf.jpg,stim/negf.jpg,stim/2.jpg,stim/1.jpg,stim/latef.jpg,CD,2,4,,,,,,,,,0,48,48,32,,,,,,,,,,4,1,0.79973097747,,,,,,PLC_L_D1S1,P1,60.0205573055,1,B,2016_Jan_06_1756,NHGY,
stim/negf.jpg,stim/posf.jpg,stim/1.jpg,stim/2.jpg,stim/latef.jpg,CD,1,2,,,,,,,,,0,49,49,29,,,,,,,,,,2,1,0.916354498258,,,,,,PLC_L_D1S1,P1,60.0205573055,1,B,2016_Jan_06_1756,NHGY,
stim/posf.jpg,stim/negf.jpg,stim/2.jpg,stim/1.jpg,stim/latef.jpg,CD,2,4,,,,,,,,,0,50,50,36,,,,,,,,,,4,1,0.832989664026,,,,,,PLC_L_D1S1,P1,60.0205573055,1,B,2016_Jan_06_1756,NHGY,
stim/posf.jpg,stim/negf.jpg,stim/6.jpg,stim/3.jpg,stim/latef.jpg,EF,2,4,,,,,,,,,0,51,51,53,,,,,,,,,,4,1,1.09961220889,,,,,,PLC_L_D1S1,P1,60.0205573055,1,B,2016_Jan_06_1756,NHGY,
stim/posf.jpg,stim/negf.jpg,stim/3.jpg,stim/6.jpg,stim/latef.jpg,EF,1,2,,,,,,,,,0,52,52,40,,,,,,,,,,2,1,1.34956181396,,,,,,PLC_L_D1S1,P1,60.0205573055,1,B,2016_Jan_06_1756,NHGY,
stim/posf.jpg,stim/negf.jpg,stim/5.jpg,stim/4.jpg,stim/latef.jpg,AB,1,2,,,,,,,,,0,53,53,4,,,,,,,,,,2,1,0.79973603606,,,,,,PLC_L_D1S1,P1,60.0205573055,1,B,2016_Jan_06_1756,NHGY,
stim/negf.jpg,stim/posf.jpg,stim/6.jpg,stim/3.jpg,stim/latef.jpg,EF,2,4,,,,,,,,,0,54,54,57,,,,,,,,,,4,1,0.916379334068,,,,,,PLC_L_D1S1,P1,60.0205573055,1,B,2016_Jan_06_1756,NHGY,
stim/posf.jpg,stim/negf.jpg,stim/4.jpg,stim/5.jpg,stim/latef.jpg,AB,2,4,,,,,,,,,0,55,55,16,,,,,,,,,,4,1,0.683102362003,,,,,,PLC_L_D1S1,P1,60.0205573055,1,B,2016_Jan_06_1756,NHGY,
stim/posf.jpg,stim/negf.jpg,stim/3.jpg,stim/6.jpg,stim/latef.jpg,EF,1,2,,,,,,,,,0,56,56,45,,,,,,,,,,2,1,0.966327615854,,,,,,PLC_L_D1S1,P1,60.0205573055,1,B,2016_Jan_06_1756,NHGY,
stim/posf.jpg,stim/negf.jpg,stim/1.jpg,stim/2.jpg,stim/latef.jpg,CD,1,2,,,,,,,,,0,57,57,24,,,,,,,,,,2,1,0.899653985858,,,,,,PLC_L_D1S1,P1,60.0205573055,1,B,2016_Jan_06_1756,NHGY,
stim/posf.jpg,stim/negf.jpg,stim/6.jpg,stim/3.jpg,stim/latef.jpg,EF,2,4,,,,,,,,,0,58,58,54,,,,,,,,,,4,1,0.932977336346,,,,,,PLC_L_D1S1,P1,60.0205573055,1,B,2016_Jan_06_1756,NHGY,
stim/posf.jpg,stim/negf.jpg,stim/1.jpg,stim/2.jpg,stim/latef.jpg,CD,1,2,,,,,,,,,0,59,59,22,,,,,,,,,,2,1,0.849818319342,,,,,,PLC_L_D1S1,P1,60.0205573055,1,B,2016_Jan_06_1756,NHGY,
,,,,,,,,,,,,,,,,,,,,,,,,,,,,,,,,0.9984375,0.998046875,1,0,0,PLC_L_D1S1,P1,60.0205573055,1,B,2016_Jan_06_1756,NHGY,
stim/posf.jpg,stim/negf.jpg,stim/6.jpg,stim/3.jpg,stim/latef.jpg,EF,2,4,,,,,,,,,,,,,0,0,0,54,,,,,,4,1,1.04964306418,,,,,,PLC_L_D1S1,P1,60.0205573055,1,B,2016_Jan_06_1756,NHGY,
stim/negf.jpg,stim/posf.jpg,stim/3.jpg,stim/6.jpg,stim/latef.jpg,EF,1,2,,,,,,,,,,,,,0,1,1,48,,,,,,2,1,0.932935721778,,,,,,PLC_L_D1S1,P1,60.0205573055,1,B,2016_Jan_06_1756,NHGY,
stim/posf.jpg,stim/negf.jpg,stim/4.jpg,stim/5.jpg,stim/latef.jpg,AB,2,4,,,,,,,,,,,,,0,2,2,11,,,,,,4,1,0.766379152115,,,,,,PLC_L_D1S1,P1,60.0205573055,1,B,2016_Jan_06_1756,NHGY,
stim/posf.jpg,stim/negf.jpg,stim/5.jpg,stim/4.jpg,stim/latef.jpg,AB,1,2,,,,,,,,,,,,,0,3,3,1,,,,,,2,1,0.699750676496,,,,,,PLC_L_D1S1,P1,60.0205573055,1,B,2016_Jan_06_1756,NHGY,
stim/negf.jpg,stim/posf.jpg,stim/4.jpg,stim/5.jpg,stim/latef.jpg,AB,2,4,,,,,,,,,,,,,0,4,4,18,,,,,,4,1,0.566479244218,,,,,,PLC_L_D1S1,P1,60.0205573055,1,B,2016_Jan_06_1756,NHGY,
stim/negf.jpg,stim/posf.jpg,stim/4.jpg,stim/5.jpg,stim/latef.jpg,AB,2,4,,,,,,,,,,,,,0,5,5,19,,,,,,4,1,0.616456283576,,,,,,PLC_L_D1S1,P1,60.0205573055,1,B,2016_Jan_06_1756,NHGY,
stim/posf.jpg,stim/negf.jpg,stim/1.jpg,stim/2.jpg,stim/latef.jpg,CD,1,2,,,,,,,,,,,,,0,6,6,25,,,,,,2,1,1.39951221904,,,,,,PLC_L_D1S1,P1,60.0205573055,1,B,2016_Jan_06_1756,NHGY,
stim/negf.jpg,stim/posf.jpg,stim/1.jpg,stim/2.jpg,stim/latef.jpg,CD,1,2,,,,,,,,,,,,,0,7,7,28,,,,,,2,1,0.749731535358,,,,,,PLC_L_D1S1,P1,60.0205573055,1,B,2016_Jan_06_1756,NHGY,
stim/posf.jpg,stim/negf.jpg,stim/2.jpg,stim/1.jpg,stim/latef.jpg,CD,2,4,,,,,,,,,,,,,0,8,8,32,,,,,,4,1,0.79975281181,,,,,,PLC_L_D1S1,P1,60.0205573055,1,B,2016_Jan_06_1756,NHGY,
stim/posf.jpg,stim/negf.jpg,stim/5.jpg,stim/4.jpg,stim/latef.jpg,AB,1,2,,,,,,,,,,,,,0,9,9,0,,,,,,2,1,0.783066299253,,,,,,PLC_L_D1S1,P1,60.0205573055,1,B,2016_Jan_06_1756,NHGY,
stim/posf.jpg,stim/negf.jpg,stim/2.jpg,stim/1.jpg,stim/latef.jpg,CD,2,4,,,,,,,,,,,,,0,10,10,36,,,,,,4,1,1.18294275779,,,,,,PLC_L_D1S1,P1,60.0205573055,1,B,2016_Jan_06_1756,NHGY,
stim/negf.jpg,stim/posf.jpg,stim/1.jpg,stim/2.jpg,stim/latef.jpg,CD,1,2,,,,,,,,,,,,,0,11,11,29,,,,,,2,1,0.666438763473,,,,,,PLC_L_D1S1,P1,60.0205573055,1,B,2016_Jan_06_1756,NHGY,
stim/posf.jpg,stim/negf.jpg,stim/4.jpg,stim/5.jpg,stim/latef.jpg,AB,2,4,,,,,,,,,,,,,0,12,12,16,,,,,,4,1,0.749756079443,,,,,,PLC_L_D1S1,P1,60.0205573055,1,B,2016_Jan_06_1756,NHGY,
stim/posf.jpg,stim/negf.jpg,stim/3.jpg,stim/6.jpg,stim/latef.jpg,EF,1,2,,,,,,,,,,,,,0,13,13,40,,,,,,2,1,0.899756300492,,,,,,PLC_L_D1S1,P1,60.0205573055,1,B,2016_Jan_06_1756,NHGY,
stim/posf.jpg,stim/negf.jpg,stim/4.jpg,stim/5.jpg,stim/latef.jpg,AB,2,4,,,,,,,,,,,,,0,14,14,10,,,,,,4,1,0.616455940723,,,,,,PLC_L_D1S1,P1,60.0205573055,1,B,2016_Jan_06_1756,NHGY,
stim/negf.jpg,stim/posf.jpg,stim/6.jpg,stim/3.jpg,stim/latef.jpg,EF,2,4,,,,,,,,,,,,,0,15,15,56,,,,,,4,1,1.14953181731,,,,,,PLC_L_D1S1,P1,60.0205573055,1,B,2016_Jan_06_1756,NHGY,
stim/posf.jpg,stim/negf.jpg,stim/5.jpg,stim/4.jpg,stim/latef.jpg,AB,1,2,,,,,,,,,,,,,0,16,16,6,,,,,,2,1,0.733094938028,,,,,,PLC_L_D1S1,P1,60.0205573055,1,B,2016_Jan_06_1756,NHGY,
stim/negf.jpg,stim/posf.jpg,stim/2.jpg,stim/1.jpg,stim/latef.jpg,CD,2,4,,,,,,,,,,,,,0,17,17,39,,,,,,4,1,1.06631365511,,,,,,PLC_L_D1S1,P1,60.0205573055,1,B,2016_Jan_06_1756,NHGY,
stim/posf.jpg,stim/negf.jpg,stim/2.jpg,stim/1.jpg,stim/latef.jpg,CD,2,4,,,,,,,,,,,,,0,18,18,34,,,,,,4,1,0.816464280479,,,,,,PLC_L_D1S1,P1,60.0205573055,1,B,2016_Jan_06_1756,NHGY,
stim/posf.jpg,stim/negf.jpg,stim/6.jpg,stim/3.jpg,stim/latef.jpg,EF,2,4,,,,,,,,,,,,,0,19,19,53,,,,,,4,1,0.56646806239,,,,,,PLC_L_D1S1,P1,60.0205573055,1,B,2016_Jan_06_1756,NHGY,
stim/posf.jpg,stim/negf.jpg,stim/2.jpg,stim/1.jpg,stim/latef.jpg,CD,2,4,,,,,,,,,,,,,0,20,20,30,,,,,,4,1,0.633114188938,,,,,,PLC_L_D1S1,P1,60.0205573055,1,B,2016_Jan_06_1756,NHGY,
stim/posf.jpg,stim/negf.jpg,stim/1.jpg,stim/2.jpg,stim/latef.jpg,CD,1,2,,,,,,,,,,,,,0,21,21,23,,,,,,2,1,0.749749462976,,,,,,PLC_L_D1S1,P1,60.0205573055,1,B,2016_Jan_06_1756,NHGY,
stim/negf.jpg,stim/posf.jpg,stim/5.jpg,stim/4.jpg,stim/latef.jpg,AB,1,2,,,,,,,,,,,,,0,22,22,9,,,,,,2,1,0.68307781792,,,,,,PLC_L_D1S1,P1,60.0205573055,1,B,2016_Jan_06_1756,NHGY,
stim/negf.jpg,stim/posf.jpg,stim/1.jpg,stim/2.jpg,stim/latef.jpg,CD,1,2,,,,,,,,,,,,,0,23,23,27,,,,,,2,1,0.833042288997,,,,,,PLC_L_D1S1,P1,60.0205573055,1,B,2016_Jan_06_1756,NHGY,
stim/posf.jpg,stim/negf.jpg,stim/5.jpg,stim/4.jpg,stim/latef.jpg,AB,1,2,,,,,,,,,,,,,0,24,24,7,,,,,,2,1,0.966285405804,,,,,,PLC_L_D1S1,P1,60.0205573055,1,B,2016_Jan_06_1756,NHGY,
stim/posf.jpg,stim/negf.jpg,stim/2.jpg,stim/1.jpg,stim/latef.jpg,CD,2,4,,,,,,,,,,,,,0,25,25,35,,,,,,2,0,0.999690051616,,,,,,PLC_L_D1S1,P1,60.0205573055,1,B,2016_Jan_06_1756,NHGY,
stim/posf.jpg,stim/negf.jpg,stim/5.jpg,stim/4.jpg,stim/latef.jpg,AB,1,2,,,,,,,,,,,,,0,26,26,5,,,,,,2,1,0.866365074078,,,,,,PLC_L_D1S1,P1,60.0205573055,1,B,2016_Jan_06_1756,NHGY,
stim/posf.jpg,stim/negf.jpg,stim/1.jpg,stim/2.jpg,stim/latef.jpg,CD,1,2,,,,,,,,,,,,,0,27,27,22,,,,,,2,1,1.06630932433,,,,,,PLC_L_D1S1,P1,60.0205573055,1,B,2016_Jan_06_1756,NHGY,
stim/posf.jpg,stim/negf.jpg,stim/2.jpg,stim/1.jpg,stim/latef.jpg,CD,2,4,,,,,,,,,,,,,0,28,28,31,,,,,,4,1,0.649761450811,,,,,,PLC_L_D1S1,P1,60.0205573055,1,B,2016_Jan_06_1756,NHGY,
stim/posf.jpg,stim/negf.jpg,stim/6.jpg,stim/3.jpg,stim/latef.jpg,EF,2,4,,,,,,,,,,,,,0,29,29,50,,,,,,4,1,0.966349901317,,,,,,PLC_L_D1S1,P1,60.0205573055,1,B,2016_Jan_06_1756,NHGY,
stim/negf.jpg,stim/posf.jpg,stim/3.jpg,stim/6.jpg,stim/latef.jpg,EF,1,2,,,,,,,,,,,,,0,30,30,46,,,,,,2,1,0.733094282396,,,,,,PLC_L_D1S1,P1,60.0205573055,1,B,2016_Jan_06_1756,NHGY,
stim/posf.jpg,stim/negf.jpg,stim/1.jpg,stim/2.jpg,stim/latef.jpg,CD,1,2,,,,,,,,,,,,,0,31,31,20,,,,,,2,1,0.816340065337,,,,,,PLC_L_D1S1,P1,60.0205573055,1,B,2016_Jan_06_1756,NHGY,
stim/posf.jpg,stim/negf.jpg,stim/5.jpg,stim/4.jpg,stim/latef.jpg,AB,1,2,,,,,,,,,,,,,0,32,32,3,,,,,,2,1,0.699770688301,,,,,,PLC_L_D1S1,P1,60.0205573055,1,B,2016_Jan_06_1756,NHGY,
stim/posf.jpg,stim/negf.jpg,stim/4.jpg,stim/5.jpg,stim/latef.jpg,AB,2,4,,,,,,,,,,,,,0,33,33,14,,,,,,4,1,1.23295206746,,,,,,PLC_L_D1S1,P1,60.0205573055,1,B,2016_Jan_06_1756,NHGY,
stim/negf.jpg,stim/posf.jpg,stim/6.jpg,stim/3.jpg,stim/latef.jpg,EF,2,4,,,,,,,,,,,,,0,34,34,57,,,,,,4,1,1.41619775717,,,,,,PLC_L_D1S1,P1,60.0205573055,1,B,2016_Jan_06_1756,NHGY,
stim/posf.jpg,stim/negf.jpg,stim/3.jpg,stim/6.jpg,stim/latef.jpg,EF,1,2,,,,,,,,,,,,,0,35,35,44,,,,,,2,1,0.53315113589,,,,,,PLC_L_D1S1,P1,60.0205573055,1,B,2016_Jan_06_1756,NHGY,
stim/negf.jpg,stim/posf.jpg,stim/2.jpg,stim/1.jpg,stim/latef.jpg,CD,2,4,,,,,,,,,,,,,0,36,36,38,,,,,,4,1,0.883027980887,,,,,,PLC_L_D1S1,P1,60.0205573055,1,B,2016_Jan_06_1756,NHGY,
stim/negf.jpg,stim/posf.jpg,stim/6.jpg,stim/3.jpg,stim/latef.jpg,EF,2,4,,,,,,,,,,,,,0,37,37,59,,,,,,4,1,1.0830054037,,,,,,PLC_L_D1S1,P1,60.0205573055,1,B,2016_Jan_06_1756,NHGY,
stim/posf.jpg,stim/negf.jpg,stim/3.jpg,stim/6.jpg,stim/latef.jpg,EF,1,2,,,,,,,,,,,,,0,38,38,43,,,,,,2,1,0.599793448946,,,,,,PLC_L_D1S1,P1,60.0205573055,1,B,2016_Jan_06_1756,NHGY,
stim/posf.jpg,stim/negf.jpg,stim/1.jpg,stim/2.jpg,stim/latef.jpg,CD,1,2,,,,,,,,,,,,,0,39,39,26,,,,,,2,1,0.68309863573,,,,,,PLC_L_D1S1,P1,60.0205573055,1,B,2016_Jan_06_1756,NHGY,
stim/posf.jpg,stim/negf.jpg,stim/3.jpg,stim/6.jpg,stim/latef.jpg,EF,1,2,,,,,,,,,,,,,0,40,40,42,,,,,,2,1,0.899700532701,,,,,,PLC_L_D1S1,P1,60.0205573055,1,B,2016_Jan_06_1756,NHGY,
stim/posf.jpg,stim/negf.jpg,stim/4.jpg,stim/5.jpg,stim/latef.jpg,AB,2,4,,,,,,,,,,,,,0,41,41,12,,,,,,4,1,0.49982339748,,,,,,PLC_L_D1S1,P1,60.0205573055,1,B,2016_Jan_06_1756,NHGY,
stim/posf.jpg,stim/negf.jpg,stim/6.jpg,stim/3.jpg,stim/latef.jpg,EF,2,4,,,,,,,,,,,,,0,42,42,52,,,,,,4,1,1.04965034229,,,,,,PLC_L_D1S1,P1,60.0205573055,1,B,2016_Jan_06_1756,NHGY,
stim/posf.jpg,stim/negf.jpg,stim/4.jpg,stim/5.jpg,stim/latef.jpg,AB,2,4,,,,,,,,,,,,,0,43,43,15,,,,,,4,1,0.566386171585,,,,,,PLC_L_D1S1,P1,60.0205573055,1,B,2016_Jan_06_1756,NHGY,
stim/posf.jpg,stim/negf.jpg,stim/6.jpg,stim/3.jpg,stim/latef.jpg,EF,2,4,,,,,,,,,,,,,0,44,44,51,,,,,,4,1,0.849719445269,,,,,,PLC_L_D1S1,P1,60.0205573055,1,B,2016_Jan_06_1756,NHGY,
stim/posf.jpg,stim/negf.jpg,stim/5.jpg,stim/4.jpg,stim/latef.jpg,AB,1,2,,,,,,,,,,,,,0,45,45,4,,,,,,2,1,0.766435455239,,,,,,PLC_L_D1S1,P1,60.0205573055,1,B,2016_Jan_06_1756,NHGY,
stim/posf.jpg,stim/negf.jpg,stim/3.jpg,stim/6.jpg,stim/latef.jpg,EF,1,2,,,,,,,,,,,,,0,46,46,45,,,,,,2,1,0.683107134882,,,,,,PLC_L_D1S1,P1,60.0205573055,1,B,2016_Jan_06_1756,NHGY,
stim/posf.jpg,stim/negf.jpg,stim/1.jpg,stim/2.jpg,stim/latef.jpg,CD,1,2,,,,,,,,,,,,,0,47,47,21,,,,,,2,1,0.866402784932,,,,,,PLC_L_D1S1,P1,60.0205573055,1,B,2016_Jan_06_1756,NHGY,
stim/negf.jpg,stim/posf.jpg,stim/2.jpg,stim/1.jpg,stim/latef.jpg,CD,2,4,,,,,,,,,,,,,0,48,48,37,,,,,,4,1,0.783086455416,,,,,,PLC_L_D1S1,P1,60.0205573055,1,B,2016_Jan_06_1756,NHGY,
stim/posf.jpg,stim/negf.jpg,stim/3.jpg,stim/6.jpg,stim/latef.jpg,EF,1,2,,,,,,,,,,,,,0,49,49,41,,,,,,2,1,0.683106849171,,,,,,PLC_L_D1S1,P1,60.0205573055,1,B,2016_Jan_06_1756,NHGY,
stim/negf.jpg,stim/posf.jpg,stim/5.jpg,stim/4.jpg,stim/latef.jpg,AB,1,2,,,,,,,,,,,,,0,50,50,8,,,,,,2,1,0.699695534261,,,,,,PLC_L_D1S1,P1,60.0205573055,1,B,2016_Jan_06_1756,NHGY,
stim/negf.jpg,stim/posf.jpg,stim/3.jpg,stim/6.jpg,stim/latef.jpg,EF,1,2,,,,,,,,,,,,,0,51,51,47,,,,,,2,1,0.716405574373,,,,,,PLC_L_D1S1,P1,60.0205573055,1,B,2016_Jan_06_1756,NHGY,
stim/posf.jpg,stim/negf.jpg,stim/5.jpg,stim/4.jpg,stim/latef.jpg,AB,1,2,,,,,,,,,,,,,0,52,52,2,,,,,,2,1,0.533163995895,,,,,,PLC_L_D1S1,P1,60.0205573055,1,B,2016_Jan_06_1756,NHGY,
stim/posf.jpg,stim/negf.jpg,stim/1.jpg,stim/2.jpg,stim/latef.jpg,CD,1,2,,,,,,,,,,,,,0,53,53,24,,,,,,2,1,1.13295059078,,,,,,PLC_L_D1S1,P1,60.0205573055,1,B,2016_Jan_06_1756,NHGY,
stim/posf.jpg,stim/negf.jpg,stim/4.jpg,stim/5.jpg,stim/latef.jpg,AB,2,4,,,,,,,,,,,,,0,54,54,17,,,,,,4,1,0.899705116108,,,,,,PLC_L_D1S1,P1,60.0205573055,1,B,2016_Jan_06_1756,NHGY,
stim/negf.jpg,stim/posf.jpg,stim/3.jpg,stim/6.jpg,stim/latef.jpg,EF,1,2,,,,,,,,,,,,,0,55,55,49,,,,,,2,1,0.616466166171,,,,,,PLC_L_D1S1,P1,60.0205573055,1,B,2016_Jan_06_1756,NHGY,
stim/posf.jpg,stim/negf.jpg,stim/6.jpg,stim/3.jpg,stim/latef.jpg,EF,2,4,,,,,,,,,,,,,0,56,56,55,,,,,,4,1,0.933024830548,,,,,,PLC_L_D1S1,P1,60.0205573055,1,B,2016_Jan_06_1756,NHGY,
stim/posf.jpg,stim/negf.jpg,stim/2.jpg,stim/1.jpg,stim/latef.jpg,CD,2,4,,,,,,,,,,,,,0,57,57,33,,,,,,4,1,1.16627282249,,,,,,PLC_L_D1S1,P1,60.0205573055,1,B,2016_Jan_06_1756,NHGY,
stim/negf.jpg,stim/posf.jpg,stim/6.jpg,stim/3.jpg,stim/latef.jpg,EF,2,4,,,,,,,,,,,,,0,58,58,58,,,,,,4,1,0.866400451123,,,,,,PLC_L_D1S1,P1,60.0205573055,1,B,2016_Jan_06_1756,NHGY,
stim/posf.jpg,stim/negf.jpg,stim/4.jpg,stim/5.jpg,stim/latef.jpg,AB,2,4,,,,,,,,,,,,,0,59,59,13,,,,,,4,1,0.683101243219,,,,,,PLC_L_D1S1,P1,60.0205573055,1,B,2016_Jan_06_1756,NHGY,
