fb_corr,fb_incorr,symbol2,symbol1,fb_late,pair,position,correct,block_01.thisRepN,block_01.thisTrialN,block_01.thisN,block_01.thisIndex,block_02.thisRepN,block_02.thisTrialN,block_02.thisN,block_02.thisIndex,block_03.thisRepN,block_03.thisTrialN,block_03.thisN,block_03.thisIndex,block_04.thisRepN,block_04.thisTrialN,block_04.thisN,block_04.thisIndex,mouse.x,mouse.y,mouse.leftButton,mouse.midButton,mouse.rightButton,buttonBox_2.keys,buttonBox_2.corr,buttonBox_2.rt,mouse_2.x,mouse_2.y,mouse_2.leftButton,mouse_2.midButton,mouse_2.rightButton,date,Participant,expName,Group,frameRate,
,,,,,,,,,,,,,,,,,,,,,,,,0.9984375,1.0,1,0,0,,,,,,,,,2016_Jan_11_1505,P3,PLC_L_D1S1,NHGY,60.0171484142,
stim/posf.jpg,stim/negf.jpg,stim/2.jpg,stim/3.jpg,stim/latef.jpg,EF,2,4,0,0,0,54,,,,,,,,,,,,,,,,,,2,0,1.14962276082,,,,,,2016_Jan_11_1505,P3,PLC_L_D1S1,NHGY,60.0171484142,
stim/posf.jpg,stim/negf.jpg,stim/2.jpg,stim/3.jpg,stim/latef.jpg,EF,2,4,0,1,1,53,,,,,,,,,,,,,,,,,,4,1,0.883032493863,,,,,,2016_Jan_11_1505,P3,PLC_L_D1S1,NHGY,60.0171484142,
stim/negf.jpg,stim/posf.jpg,stim/4.jpg,stim/6.jpg,stim/latef.jpg,AB,2,4,0,2,2,18,,,,,,,,,,,,,,,,,,2,0,1.23294687163,,,,,,2016_Jan_11_1505,P3,PLC_L_D1S1,NHGY,60.0171484142,
stim/negf.jpg,stim/posf.jpg,stim/4.jpg,stim/6.jpg,stim/latef.jpg,AB,2,4,0,3,3,19,,,,,,,,,,,,,,,,,,2,0,0.766405245093,,,,,,2016_Jan_11_1505,P3,PLC_L_D1S1,NHGY,60.0171484142,
stim/posf.jpg,stim/negf.jpg,stim/4.jpg,stim/6.jpg,stim/latef.jpg,AB,2,4,0,4,4,15,,,,,,,,,,,,,,,,,,2,0,0.983021402175,,,,,,2016_Jan_11_1505,P3,PLC_L_D1S1,NHGY,60.0171484142,
stim/negf.jpg,stim/posf.jpg,stim/2.jpg,stim/3.jpg,stim/latef.jpg,EF,2,4,0,5,5,59,,,,,,,,,,,,,,,,,,4,1,1.13289246883,,,,,,2016_Jan_11_1505,P3,PLC_L_D1S1,NHGY,60.0171484142,
stim/posf.jpg,stim/negf.jpg,stim/1.jpg,stim/5.jpg,stim/latef.jpg,CD,1,2,0,6,6,21,,,,,,,,,,,,,,,,,,2,1,1.01629351469,,,,,,2016_Jan_11_1505,P3,PLC_L_D1S1,NHGY,60.0171484142,
stim/posf.jpg,stim/negf.jpg,stim/5.jpg,stim/1.jpg,stim/latef.jpg,CD,2,4,0,7,7,30,,,,,,,,,,,,,,,,,,4,1,1.13295852873,,,,,,2016_Jan_11_1505,P3,PLC_L_D1S1,NHGY,60.0171484142,
stim/posf.jpg,stim/negf.jpg,stim/5.jpg,stim/1.jpg,stim/latef.jpg,CD,2,4,0,8,8,31,,,,,,,,,,,,,,,,,,4,1,1.09965847346,,,,,,2016_Jan_11_1505,P3,PLC_L_D1S1,NHGY,60.0171484142,
stim/posf.jpg,stim/negf.jpg,stim/3.jpg,stim/2.jpg,stim/latef.jpg,EF,1,2,0,9,9,44,,,,,,,,,,,,,,,,,,4,0,1.31518504968,,,,,,2016_Jan_11_1505,P3,PLC_L_D1S1,NHGY,60.0171484142,
stim/negf.jpg,stim/posf.jpg,stim/5.jpg,stim/1.jpg,stim/latef.jpg,CD,2,4,0,10,10,39,,,,,,,,,,,,,,,,,,4,1,0.916371562513,,,,,,2016_Jan_11_1505,P3,PLC_L_D1S1,NHGY,60.0171484142,
stim/posf.jpg,stim/negf.jpg,stim/4.jpg,stim/6.jpg,stim/latef.jpg,AB,2,4,0,11,11,14,,,,,,,,,,,,,,,,,,2,0,0.783075284679,,,,,,2016_Jan_11_1505,P3,PLC_L_D1S1,NHGY,60.0171484142,
stim/negf.jpg,stim/posf.jpg,stim/3.jpg,stim/2.jpg,stim/latef.jpg,EF,1,2,0,12,12,47,,,,,,,,,,,,,,,,,,4,0,0.849742661118,,,,,,2016_Jan_11_1505,P3,PLC_L_D1S1,NHGY,60.0171484142,
stim/posf.jpg,stim/negf.jpg,stim/4.jpg,stim/6.jpg,stim/latef.jpg,AB,2,4,0,13,13,12,,,,,,,,,,,,,,,,,,2,0,0.916336155127,,,,,,2016_Jan_11_1505,P3,PLC_L_D1S1,NHGY,60.0171484142,
stim/posf.jpg,stim/negf.jpg,stim/4.jpg,stim/6.jpg,stim/latef.jpg,AB,2,4,0,14,14,17,,,,,,,,,,,,,,,,,,4,1,1.28293240702,,,,,,2016_Jan_11_1505,P3,PLC_L_D1S1,NHGY,60.0171484142,
stim/posf.jpg,stim/negf.jpg,stim/5.jpg,stim/1.jpg,stim/latef.jpg,CD,2,4,0,15,15,32,,,,,,,,,,,,,,,,,,4,1,1.01632704839,,,,,,2016_Jan_11_1505,P3,PLC_L_D1S1,NHGY,60.0171484142,
stim/posf.jpg,stim/negf.jpg,stim/6.jpg,stim/4.jpg,stim/latef.jpg,AB,1,2,0,16,16,6,,,,,,,,,,,,,,,,,,4,0,1.01631517776,,,,,,2016_Jan_11_1505,P3,PLC_L_D1S1,NHGY,60.0171484142,
stim/posf.jpg,stim/negf.jpg,stim/3.jpg,stim/2.jpg,stim/latef.jpg,EF,1,2,0,17,17,40,,,,,,,,,,,,,,,,,,4,0,1.29957664219,,,,,,2016_Jan_11_1505,P3,PLC_L_D1S1,NHGY,60.0171484142,
stim/posf.jpg,stim/negf.jpg,stim/4.jpg,stim/6.jpg,stim/latef.jpg,AB,2,4,0,18,18,11,,,,,,,,,,,,,,,,,,2,0,0.61645074417,,,,,,2016_Jan_11_1505,P3,PLC_L_D1S1,NHGY,60.0171484142,
stim/posf.jpg,stim/negf.jpg,stim/4.jpg,stim/6.jpg,stim/latef.jpg,AB,2,4,0,19,19,13,,,,,,,,,,,,,,,,,,2,0,0.816409078162,,,,,,2016_Jan_11_1505,P3,PLC_L_D1S1,NHGY,60.0171484142,
stim/posf.jpg,stim/negf.jpg,stim/3.jpg,stim/2.jpg,stim/latef.jpg,EF,1,2,0,20,20,43,,,,,,,,,,,,,,,,,,4,0,0.766465879452,,,,,,2016_Jan_11_1505,P3,PLC_L_D1S1,NHGY,60.0171484142,
stim/negf.jpg,stim/posf.jpg,stim/1.jpg,stim/5.jpg,stim/latef.jpg,CD,1,2,0,21,21,28,,,,,,,,,,,,,,,,,,2,1,0.73308296435,,,,,,2016_Jan_11_1505,P3,PLC_L_D1S1,NHGY,60.0171484142,
stim/negf.jpg,stim/posf.jpg,stim/6.jpg,stim/4.jpg,stim/latef.jpg,AB,1,2,0,22,22,8,,,,,,,,,,,,,,,,,,4,0,0.849762321194,,,,,,2016_Jan_11_1505,P3,PLC_L_D1S1,NHGY,60.0171484142,
stim/posf.jpg,stim/negf.jpg,stim/4.jpg,stim/6.jpg,stim/latef.jpg,AB,2,4,0,23,23,10,,,,,,,,,,,,,,,,,,2,0,0.933080756839,,,,,,2016_Jan_11_1505,P3,PLC_L_D1S1,NHGY,60.0171484142,
stim/posf.jpg,stim/negf.jpg,stim/2.jpg,stim/3.jpg,stim/latef.jpg,EF,2,4,0,24,24,50,,,,,,,,,,,,,,,,,,4,1,0.866425479604,,,,,,2016_Jan_11_1505,P3,PLC_L_D1S1,NHGY,60.0171484142,
stim/posf.jpg,stim/negf.jpg,stim/6.jpg,stim/4.jpg,stim/latef.jpg,AB,1,2,0,25,25,7,,,,,,,,,,,,,,,,,,4,0,0.816403327807,,,,,,2016_Jan_11_1505,P3,PLC_L_D1S1,NHGY,60.0171484142,
stim/posf.jpg,stim/negf.jpg,stim/2.jpg,stim/3.jpg,stim/latef.jpg,EF,2,4,0,26,26,52,,,,,,,,,,,,,,,,,,4,1,0.999713384536,,,,,,2016_Jan_11_1505,P3,PLC_L_D1S1,NHGY,60.0171484142,
stim/negf.jpg,stim/posf.jpg,stim/3.jpg,stim/2.jpg,stim/latef.jpg,EF,1,2,0,27,27,46,,,,,,,,,,,,,,,,,,4,0,1.13297585498,,,,,,2016_Jan_11_1505,P3,PLC_L_D1S1,NHGY,60.0171484142,
stim/negf.jpg,stim/posf.jpg,stim/2.jpg,stim/3.jpg,stim/latef.jpg,EF,2,4,0,28,28,56,,,,,,,,,,,,,,,,,,4,1,0.666429386356,,,,,,2016_Jan_11_1505,P3,PLC_L_D1S1,NHGY,60.0171484142,
stim/posf.jpg,stim/negf.jpg,stim/2.jpg,stim/3.jpg,stim/latef.jpg,EF,2,4,0,29,29,55,,,,,,,,,,,,,,,,,,2,0,0.733074335811,,,,,,2016_Jan_11_1505,P3,PLC_L_D1S1,NHGY,60.0171484142,
stim/posf.jpg,stim/negf.jpg,stim/5.jpg,stim/1.jpg,stim/latef.jpg,CD,2,4,0,30,30,33,,,,,,,,,,,,,,,,,,4,1,0.683126156669,,,,,,2016_Jan_11_1505,P3,PLC_L_D1S1,NHGY,60.0171484142,
stim/posf.jpg,stim/negf.jpg,stim/6.jpg,stim/4.jpg,stim/latef.jpg,AB,1,2,0,31,31,0,,,,,,,,,,,,,,,,,,4,0,0.816493273334,,,,,,2016_Jan_11_1505,P3,PLC_L_D1S1,NHGY,60.0171484142,
stim/negf.jpg,stim/posf.jpg,stim/3.jpg,stim/2.jpg,stim/latef.jpg,EF,1,2,0,32,32,49,,,,,,,,,,,,,,,,,,4,0,0.799819146544,,,,,,2016_Jan_11_1505,P3,PLC_L_D1S1,NHGY,60.0171484142,
stim/posf.jpg,stim/negf.jpg,stim/1.jpg,stim/5.jpg,stim/latef.jpg,CD,1,2,0,33,33,26,,,,,,,,,,,,,,,,,,2,1,0.999737312266,,,,,,2016_Jan_11_1505,P3,PLC_L_D1S1,NHGY,60.0171484142,
stim/posf.jpg,stim/negf.jpg,stim/6.jpg,stim/4.jpg,stim/latef.jpg,AB,1,2,0,34,34,4,,,,,,,,,,,,,,,,,,4,0,1.11629766805,,,,,,2016_Jan_11_1505,P3,PLC_L_D1S1,NHGY,60.0171484142,
stim/negf.jpg,stim/posf.jpg,stim/6.jpg,stim/4.jpg,stim/latef.jpg,AB,1,2,0,35,35,9,,,,,,,,,,,,,,,,,,2,1,1.24960561201,,,,,,2016_Jan_11_1505,P3,PLC_L_D1S1,NHGY,60.0171484142,
stim/posf.jpg,stim/negf.jpg,stim/4.jpg,stim/6.jpg,stim/latef.jpg,AB,2,4,0,36,36,16,,,,,,,,,,,,,,,,,,2,0,1.53473699121,,,,,,2016_Jan_11_1505,P3,PLC_L_D1S1,NHGY,60.0171484142,
stim/posf.jpg,stim/negf.jpg,stim/6.jpg,stim/4.jpg,stim/latef.jpg,AB,1,2,0,37,37,1,,,,,,,,,,,,,,,,,,4,0,0.683093831978,,,,,,2016_Jan_11_1505,P3,PLC_L_D1S1,NHGY,60.0171484142,
stim/posf.jpg,stim/negf.jpg,stim/5.jpg,stim/1.jpg,stim/latef.jpg,CD,2,4,0,38,38,34,,,,,,,,,,,,,,,,,,4,1,0.766361302401,,,,,,2016_Jan_11_1505,P3,PLC_L_D1S1,NHGY,60.0171484142,
stim/posf.jpg,stim/negf.jpg,stim/5.jpg,stim/1.jpg,stim/latef.jpg,CD,2,4,0,39,39,35,,,,,,,,,,,,,,,,,,4,1,1.21628003203,,,,,,2016_Jan_11_1505,P3,PLC_L_D1S1,NHGY,60.0171484142,
stim/posf.jpg,stim/negf.jpg,stim/1.jpg,stim/5.jpg,stim/latef.jpg,CD,1,2,0,40,40,22,,,,,,,,,,,,,,,,,,2,1,1.21628521697,,,,,,2016_Jan_11_1505,P3,PLC_L_D1S1,NHGY,60.0171484142,
stim/negf.jpg,stim/posf.jpg,stim/3.jpg,stim/2.jpg,stim/latef.jpg,EF,1,2,0,41,41,48,,,,,,,,,,,,,,,,,,4,0,1.51622700366,,,,,,2016_Jan_11_1505,P3,PLC_L_D1S1,NHGY,60.0171484142,
stim/negf.jpg,stim/posf.jpg,stim/5.jpg,stim/1.jpg,stim/latef.jpg,CD,2,4,0,42,42,38,,,,,,,,,,,,,,,,,,4,1,0.849725277725,,,,,,2016_Jan_11_1505,P3,PLC_L_D1S1,NHGY,60.0171484142,
stim/posf.jpg,stim/negf.jpg,stim/6.jpg,stim/4.jpg,stim/latef.jpg,AB,1,2,0,43,43,3,,,,,,,,,,,,,,,,,,4,0,1.19960185413,,,,,,2016_Jan_11_1505,P3,PLC_L_D1S1,NHGY,60.0171484142,
stim/posf.jpg,stim/negf.jpg,stim/3.jpg,stim/2.jpg,stim/latef.jpg,EF,1,2,0,44,44,45,,,,,,,,,,,,,,,,,,4,0,0.833067478694,,,,,,2016_Jan_11_1505,P3,PLC_L_D1S1,NHGY,60.0171484142,
stim/posf.jpg,stim/negf.jpg,stim/1.jpg,stim/5.jpg,stim/latef.jpg,CD,1,2,0,45,45,24,,,,,,,,,,,,,,,,,,2,1,0.599852845666,,,,,,2016_Jan_11_1505,P3,PLC_L_D1S1,NHGY,60.0171484142,
stim/posf.jpg,stim/negf.jpg,stim/5.jpg,stim/1.jpg,stim/latef.jpg,CD,2,4,0,46,46,36,,,,,,,,,,,,,,,,,,4,1,0.766438267526,,,,,,2016_Jan_11_1505,P3,PLC_L_D1S1,NHGY,60.0171484142,
stim/posf.jpg,stim/negf.jpg,stim/1.jpg,stim/5.jpg,stim/latef.jpg,CD,1,2,0,47,47,23,,,,,,,,,,,,,,,,,,2,1,1.18294413029,,,,,,2016_Jan_11_1505,P3,PLC_L_D1S1,NHGY,60.0171484142,
stim/posf.jpg,stim/negf.jpg,stim/1.jpg,stim/5.jpg,stim/latef.jpg,CD,1,2,0,48,48,25,,,,,,,,,,,,,,,,,,2,1,0.716417637528,,,,,,2016_Jan_11_1505,P3,PLC_L_D1S1,NHGY,60.0171484142,
stim/negf.jpg,stim/posf.jpg,stim/1.jpg,stim/5.jpg,stim/latef.jpg,CD,1,2,0,49,49,27,,,,,,,,,,,,,,,,,,4,0,0.966386285766,,,,,,2016_Jan_11_1505,P3,PLC_L_D1S1,NHGY,60.0171484142,
stim/posf.jpg,stim/negf.jpg,stim/3.jpg,stim/2.jpg,stim/latef.jpg,EF,1,2,0,50,50,42,,,,,,,,,,,,,,,,,,None,0,,,,,,,2016_Jan_11_1505,P3,PLC_L_D1S1,NHGY,60.0171484142,
stim/posf.jpg,stim/negf.jpg,stim/1.jpg,stim/5.jpg,stim/latef.jpg,CD,1,2,0,51,51,20,,,,,,,,,,,,,,,,,,2,1,0.583142400217,,,,,,2016_Jan_11_1505,P3,PLC_L_D1S1,NHGY,60.0171484142,
stim/negf.jpg,stim/posf.jpg,stim/2.jpg,stim/3.jpg,stim/latef.jpg,EF,2,4,0,52,52,58,,,,,,,,,,,,,,,,,,2,0,0.899688013203,,,,,,2016_Jan_11_1505,P3,PLC_L_D1S1,NHGY,60.0171484142,
stim/posf.jpg,stim/negf.jpg,stim/6.jpg,stim/4.jpg,stim/latef.jpg,AB,1,2,0,53,53,2,,,,,,,,,,,,,,,,,,4,0,1.03299811655,,,,,,2016_Jan_11_1505,P3,PLC_L_D1S1,NHGY,60.0171484142,
stim/negf.jpg,stim/posf.jpg,stim/1.jpg,stim/5.jpg,stim/latef.jpg,CD,1,2,0,54,54,29,,,,,,,,,,,,,,,,,,2,1,0.74975041748,,,,,,2016_Jan_11_1505,P3,PLC_L_D1S1,NHGY,60.0171484142,
stim/negf.jpg,stim/posf.jpg,stim/2.jpg,stim/3.jpg,stim/latef.jpg,EF,2,4,0,55,55,57,,,,,,,,,,,,,,,,,,4,1,0.999776572268,,,,,,2016_Jan_11_1505,P3,PLC_L_D1S1,NHGY,60.0171484142,
stim/negf.jpg,stim/posf.jpg,stim/5.jpg,stim/1.jpg,stim/latef.jpg,CD,2,4,0,56,56,37,,,,,,,,,,,,,,,,,,4,1,0.716431048003,,,,,,2016_Jan_11_1505,P3,PLC_L_D1S1,NHGY,60.0171484142,
stim/posf.jpg,stim/negf.jpg,stim/3.jpg,stim/2.jpg,stim/latef.jpg,EF,1,2,0,57,57,41,,,,,,,,,,,,,,,,,,2,1,0.583127582227,,,,,,2016_Jan_11_1505,P3,PLC_L_D1S1,NHGY,60.0171484142,
stim/posf.jpg,stim/negf.jpg,stim/2.jpg,stim/3.jpg,stim/latef.jpg,EF,2,4,0,58,58,51,,,,,,,,,,,,,,,,,,4,1,0.783088505682,,,,,,2016_Jan_11_1505,P3,PLC_L_D1S1,NHGY,60.0171484142,
stim/posf.jpg,stim/negf.jpg,stim/6.jpg,stim/4.jpg,stim/latef.jpg,AB,1,2,0,59,59,5,,,,,,,,,,,,,,,,,,2,1,1.06632250856,,,,,,2016_Jan_11_1505,P3,PLC_L_D1S1,NHGY,60.0171484142,
,,,,,,,,,,,,,,,,,,,,,,,,,,,,,,,,0.9984375,1.0,1,0,0,2016_Jan_11_1505,P3,PLC_L_D1S1,NHGY,60.0171484142,
stim/posf.jpg,stim/negf.jpg,stim/4.jpg,stim/6.jpg,stim/latef.jpg,AB,2,4,,,,,0,0,0,16,,,,,,,,,,,,,,4,1,0.933037929932,,,,,,2016_Jan_11_1505,P3,PLC_L_D1S1,NHGY,60.0171484142,
stim/posf.jpg,stim/negf.jpg,stim/1.jpg,stim/5.jpg,stim/latef.jpg,CD,1,2,,,,,0,1,1,21,,,,,,,,,,,,,,2,1,1.0163387476,,,,,,2016_Jan_11_1505,P3,PLC_L_D1S1,NHGY,60.0171484142,
stim/posf.jpg,stim/negf.jpg,stim/1.jpg,stim/5.jpg,stim/latef.jpg,CD,1,2,,,,,0,2,2,23,,,,,,,,,,,,,,2,1,0.816401679693,,,,,,2016_Jan_11_1505,P3,PLC_L_D1S1,NHGY,60.0171484142,
stim/posf.jpg,stim/negf.jpg,stim/2.jpg,stim/3.jpg,stim/latef.jpg,EF,2,4,,,,,0,3,3,51,,,,,,,,,,,,,,4,1,1.03296698885,,,,,,2016_Jan_11_1505,P3,PLC_L_D1S1,NHGY,60.0171484142,
stim/posf.jpg,stim/negf.jpg,stim/5.jpg,stim/1.jpg,stim/latef.jpg,CD,2,4,,,,,0,4,4,35,,,,,,,,,,,,,,4,1,0.884459369702,,,,,,2016_Jan_11_1505,P3,PLC_L_D1S1,NHGY,60.0171484142,
stim/negf.jpg,stim/posf.jpg,stim/3.jpg,stim/2.jpg,stim/latef.jpg,EF,1,2,,,,,0,5,5,46,,,,,,,,,,,,,,2,1,0.866406712757,,,,,,2016_Jan_11_1505,P3,PLC_L_D1S1,NHGY,60.0171484142,
stim/posf.jpg,stim/negf.jpg,stim/3.jpg,stim/2.jpg,stim/latef.jpg,EF,1,2,,,,,0,6,6,43,,,,,,,,,,,,,,4,0,1.34954722426,,,,,,2016_Jan_11_1505,P3,PLC_L_D1S1,NHGY,60.0171484142,
stim/negf.jpg,stim/posf.jpg,stim/4.jpg,stim/6.jpg,stim/latef.jpg,AB,2,4,,,,,0,7,7,18,,,,,,,,,,,,,,4,1,1.08296676178,,,,,,2016_Jan_11_1505,P3,PLC_L_D1S1,NHGY,60.0171484142,
stim/posf.jpg,stim/negf.jpg,stim/4.jpg,stim/6.jpg,stim/latef.jpg,AB,2,4,,,,,0,8,8,17,,,,,,,,,,,,,,4,1,0.966339940075,,,,,,2016_Jan_11_1505,P3,PLC_L_D1S1,NHGY,60.0171484142,
stim/posf.jpg,stim/negf.jpg,stim/1.jpg,stim/5.jpg,stim/latef.jpg,CD,1,2,,,,,0,9,9,22,,,,,,,,,,,,,,2,1,0.866404081188,,,,,,2016_Jan_11_1505,P3,PLC_L_D1S1,NHGY,60.0171484142,
stim/negf.jpg,stim/posf.jpg,stim/6.jpg,stim/4.jpg,stim/latef.jpg,AB,1,2,,,,,0,10,10,9,,,,,,,,,,,,,,2,1,0.916355965579,,,,,,2016_Jan_11_1505,P3,PLC_L_D1S1,NHGY,60.0171484142,
stim/posf.jpg,stim/negf.jpg,stim/6.jpg,stim/4.jpg,stim/latef.jpg,AB,1,2,,,,,0,11,11,2,,,,,,,,,,,,,,4,0,0.783093901151,,,,,,2016_Jan_11_1505,P3,PLC_L_D1S1,NHGY,60.0171484142,
stim/posf.jpg,stim/negf.jpg,stim/1.jpg,stim/5.jpg,stim/latef.jpg,CD,1,2,,,,,0,12,12,24,,,,,,,,,,,,,,2,1,1.21632954162,,,,,,2016_Jan_11_1505,P3,PLC_L_D1S1,NHGY,60.0171484142,
stim/posf.jpg,stim/negf.jpg,stim/2.jpg,stim/3.jpg,stim/latef.jpg,EF,2,4,,,,,0,13,13,54,,,,,,,,,,,,,,4,1,1.13298776772,,,,,,2016_Jan_11_1505,P3,PLC_L_D1S1,NHGY,60.0171484142,
stim/negf.jpg,stim/posf.jpg,stim/2.jpg,stim/3.jpg,stim/latef.jpg,EF,2,4,,,,,0,14,14,58,,,,,,,,,,,,,,4,1,1.13295193326,,,,,,2016_Jan_11_1505,P3,PLC_L_D1S1,NHGY,60.0171484142,
stim/negf.jpg,stim/posf.jpg,stim/3.jpg,stim/2.jpg,stim/latef.jpg,EF,1,2,,,,,0,15,15,48,,,,,,,,,,,,,,None,0,,,,,,,2016_Jan_11_1505,P3,PLC_L_D1S1,NHGY,60.0171484142,
stim/posf.jpg,stim/negf.jpg,stim/6.jpg,stim/4.jpg,stim/latef.jpg,AB,1,2,,,,,0,16,16,1,,,,,,,,,,,,,,4,0,0.866326875463,,,,,,2016_Jan_11_1505,P3,PLC_L_D1S1,NHGY,60.0171484142,
stim/negf.jpg,stim/posf.jpg,stim/4.jpg,stim/6.jpg,stim/latef.jpg,AB,2,4,,,,,0,17,17,19,,,,,,,,,,,,,,2,0,0.982992199277,,,,,,2016_Jan_11_1505,P3,PLC_L_D1S1,NHGY,60.0171484142,
stim/posf.jpg,stim/negf.jpg,stim/4.jpg,stim/6.jpg,stim/latef.jpg,AB,2,4,,,,,0,18,18,15,,,,,,,,,,,,,,4,1,1.34956642719,,,,,,2016_Jan_11_1505,P3,PLC_L_D1S1,NHGY,60.0171484142,
stim/posf.jpg,stim/negf.jpg,stim/2.jpg,stim/3.jpg,stim/latef.jpg,EF,2,4,,,,,0,19,19,53,,,,,,,,,,,,,,4,1,1.4162134819,,,,,,2016_Jan_11_1505,P3,PLC_L_D1S1,NHGY,60.0171484142,
stim/posf.jpg,stim/negf.jpg,stim/4.jpg,stim/6.jpg,stim/latef.jpg,AB,2,4,,,,,0,20,20,14,,,,,,,,,,,,,,4,1,0.833058041135,,,,,,2016_Jan_11_1505,P3,PLC_L_D1S1,NHGY,60.0171484142,
stim/negf.jpg,stim/posf.jpg,stim/5.jpg,stim/1.jpg,stim/latef.jpg,CD,2,4,,,,,0,21,21,39,,,,,,,,,,,,,,4,1,0.983026929974,,,,,,2016_Jan_11_1505,P3,PLC_L_D1S1,NHGY,60.0171484142,
stim/posf.jpg,stim/negf.jpg,stim/2.jpg,stim/3.jpg,stim/latef.jpg,EF,2,4,,,,,0,22,22,50,,,,,,,,,,,,,,4,1,1.13294434532,,,,,,2016_Jan_11_1505,P3,PLC_L_D1S1,NHGY,60.0171484142,
stim/posf.jpg,stim/negf.jpg,stim/1.jpg,stim/5.jpg,stim/latef.jpg,CD,1,2,,,,,0,23,23,26,,,,,,,,,,,,,,2,1,0.916348756584,,,,,,2016_Jan_11_1505,P3,PLC_L_D1S1,NHGY,60.0171484142,
stim/negf.jpg,stim/posf.jpg,stim/6.jpg,stim/4.jpg,stim/latef.jpg,AB,1,2,,,,,0,24,24,8,,,,,,,,,,,,,,2,1,1.16628204255,,,,,,2016_Jan_11_1505,P3,PLC_L_D1S1,NHGY,60.0171484142,
stim/posf.jpg,stim/negf.jpg,stim/5.jpg,stim/1.jpg,stim/latef.jpg,CD,2,4,,,,,0,25,25,30,,,,,,,,,,,,,,4,1,0.83306181255,,,,,,2016_Jan_11_1505,P3,PLC_L_D1S1,NHGY,60.0171484142,
stim/posf.jpg,stim/negf.jpg,stim/6.jpg,stim/4.jpg,stim/latef.jpg,AB,1,2,,,,,0,26,26,7,,,,,,,,,,,,,,2,1,1.23292679351,,,,,,2016_Jan_11_1505,P3,PLC_L_D1S1,NHGY,60.0171484142,
stim/negf.jpg,stim/posf.jpg,stim/1.jpg,stim/5.jpg,stim/latef.jpg,CD,1,2,,,,,0,27,27,27,,,,,,,,,,,,,,2,1,1.13295418889,,,,,,2016_Jan_11_1505,P3,PLC_L_D1S1,NHGY,60.0171484142,
stim/negf.jpg,stim/posf.jpg,stim/2.jpg,stim/3.jpg,stim/latef.jpg,EF,2,4,,,,,0,28,28,57,,,,,,,,,,,,,,2,0,0.983012620254,,,,,,2016_Jan_11_1505,P3,PLC_L_D1S1,NHGY,60.0171484142,
stim/posf.jpg,stim/negf.jpg,stim/3.jpg,stim/2.jpg,stim/latef.jpg,EF,1,2,,,,,0,29,29,42,,,,,,,,,,,,,,2,1,0.882992572208,,,,,,2016_Jan_11_1505,P3,PLC_L_D1S1,NHGY,60.0171484142,
stim/posf.jpg,stim/negf.jpg,stim/5.jpg,stim/1.jpg,stim/latef.jpg,CD,2,4,,,,,0,30,30,36,,,,,,,,,,,,,,4,1,0.783093994383,,,,,,2016_Jan_11_1505,P3,PLC_L_D1S1,NHGY,60.0171484142,
stim/posf.jpg,stim/negf.jpg,stim/5.jpg,stim/1.jpg,stim/latef.jpg,CD,2,4,,,,,0,31,31,33,,,,,,,,,,,,,,4,1,0.633125490505,,,,,,2016_Jan_11_1505,P3,PLC_L_D1S1,NHGY,60.0171484142,
stim/posf.jpg,stim/negf.jpg,stim/4.jpg,stim/6.jpg,stim/latef.jpg,AB,2,4,,,,,0,32,32,11,,,,,,,,,,,,,,4,1,0.849719686768,,,,,,2016_Jan_11_1505,P3,PLC_L_D1S1,NHGY,60.0171484142,
stim/posf.jpg,stim/negf.jpg,stim/6.jpg,stim/4.jpg,stim/latef.jpg,AB,1,2,,,,,0,33,33,3,,,,,,,,,,,,,,4,0,0.983019808196,,,,,,2016_Jan_11_1505,P3,PLC_L_D1S1,NHGY,60.0171484142,
stim/negf.jpg,stim/posf.jpg,stim/3.jpg,stim/2.jpg,stim/latef.jpg,EF,1,2,,,,,0,34,34,47,,,,,,,,,,,,,,2,1,0.666428977335,,,,,,2016_Jan_11_1505,P3,PLC_L_D1S1,NHGY,60.0171484142,
stim/posf.jpg,stim/negf.jpg,stim/1.jpg,stim/5.jpg,stim/latef.jpg,CD,1,2,,,,,0,35,35,20,,,,,,,,,,,,,,2,1,0.783043853219,,,,,,2016_Jan_11_1505,P3,PLC_L_D1S1,NHGY,60.0171484142,
stim/negf.jpg,stim/posf.jpg,stim/1.jpg,stim/5.jpg,stim/latef.jpg,CD,1,2,,,,,0,36,36,29,,,,,,,,,,,,,,2,1,0.783123952166,,,,,,2016_Jan_11_1505,P3,PLC_L_D1S1,NHGY,60.0171484142,
stim/negf.jpg,stim/posf.jpg,stim/2.jpg,stim/3.jpg,stim/latef.jpg,EF,2,4,,,,,0,37,37,56,,,,,,,,,,,,,,4,1,1.01628327112,,,,,,2016_Jan_11_1505,P3,PLC_L_D1S1,NHGY,60.0171484142,
stim/posf.jpg,stim/negf.jpg,stim/3.jpg,stim/2.jpg,stim/latef.jpg,EF,1,2,,,,,0,38,38,41,,,,,,,,,,,,,,2,1,0.566473106492,,,,,,2016_Jan_11_1505,P3,PLC_L_D1S1,NHGY,60.0171484142,
stim/posf.jpg,stim/negf.jpg,stim/6.jpg,stim/4.jpg,stim/latef.jpg,AB,1,2,,,,,0,39,39,4,,,,,,,,,,,,,,2,1,1.26626376893,,,,,,2016_Jan_11_1505,P3,PLC_L_D1S1,NHGY,60.0171484142,
stim/posf.jpg,stim/negf.jpg,stim/3.jpg,stim/2.jpg,stim/latef.jpg,EF,1,2,,,,,0,40,40,44,,,,,,,,,,,,,,2,1,0.549817969105,,,,,,2016_Jan_11_1505,P3,PLC_L_D1S1,NHGY,60.0171484142,
stim/posf.jpg,stim/negf.jpg,stim/6.jpg,stim/4.jpg,stim/latef.jpg,AB,1,2,,,,,0,41,41,0,,,,,,,,,,,,,,2,1,0.966360815185,,,,,,2016_Jan_11_1505,P3,PLC_L_D1S1,NHGY,60.0171484142,
stim/posf.jpg,stim/negf.jpg,stim/6.jpg,stim/4.jpg,stim/latef.jpg,AB,1,2,,,,,0,42,42,5,,,,,,,,,,,,,,2,1,0.699770433946,,,,,,2016_Jan_11_1505,P3,PLC_L_D1S1,NHGY,60.0171484142,
stim/negf.jpg,stim/posf.jpg,stim/5.jpg,stim/1.jpg,stim/latef.jpg,CD,2,4,,,,,0,43,43,37,,,,,,,,,,,,,,4,1,0.96635590994,,,,,,2016_Jan_11_1505,P3,PLC_L_D1S1,NHGY,60.0171484142,
stim/negf.jpg,stim/posf.jpg,stim/2.jpg,stim/3.jpg,stim/latef.jpg,EF,2,4,,,,,0,44,44,59,,,,,,,,,,,,,,4,1,1.28290831689,,,,,,2016_Jan_11_1505,P3,PLC_L_D1S1,NHGY,60.0171484142,
stim/posf.jpg,stim/negf.jpg,stim/1.jpg,stim/5.jpg,stim/latef.jpg,CD,1,2,,,,,0,45,45,25,,,,,,,,,,,,,,2,1,0.899724704795,,,,,,2016_Jan_11_1505,P3,PLC_L_D1S1,NHGY,60.0171484142,
stim/posf.jpg,stim/negf.jpg,stim/4.jpg,stim/6.jpg,stim/latef.jpg,AB,2,4,,,,,0,46,46,12,,,,,,,,,,,,,,2,0,0.583140009248,,,,,,2016_Jan_11_1505,P3,PLC_L_D1S1,NHGY,60.0171484142,
stim/posf.jpg,stim/negf.jpg,stim/5.jpg,stim/1.jpg,stim/latef.jpg,CD,2,4,,,,,0,47,47,34,,,,,,,,,,,,,,4,1,0.716432064541,,,,,,2016_Jan_11_1505,P3,PLC_L_D1S1,NHGY,60.0171484142,
stim/negf.jpg,stim/posf.jpg,stim/5.jpg,stim/1.jpg,stim/latef.jpg,CD,2,4,,,,,0,48,48,38,,,,,,,,,,,,,,4,1,0.633141048342,,,,,,2016_Jan_11_1505,P3,PLC_L_D1S1,NHGY,60.0171484142,
stim/negf.jpg,stim/posf.jpg,stim/1.jpg,stim/5.jpg,stim/latef.jpg,CD,1,2,,,,,0,49,49,28,,,,,,,,,,,,,,2,1,0.749764318179,,,,,,2016_Jan_11_1505,P3,PLC_L_D1S1,NHGY,60.0171484142,
stim/posf.jpg,stim/negf.jpg,stim/4.jpg,stim/6.jpg,stim/latef.jpg,AB,2,4,,,,,0,50,50,10,,,,,,,,,,,,,,4,1,0.799748632524,,,,,,2016_Jan_11_1505,P3,PLC_L_D1S1,NHGY,60.0171484142,
stim/posf.jpg,stim/negf.jpg,stim/2.jpg,stim/3.jpg,stim/latef.jpg,EF,2,4,,,,,0,51,51,55,,,,,,,,,,,,,,2,0,1.09963204048,,,,,,2016_Jan_11_1505,P3,PLC_L_D1S1,NHGY,60.0171484142,
stim/negf.jpg,stim/posf.jpg,stim/3.jpg,stim/2.jpg,stim/latef.jpg,EF,1,2,,,,,0,52,52,49,,,,,,,,,,,,,,4,0,0.683111425897,,,,,,2016_Jan_11_1505,P3,PLC_L_D1S1,NHGY,60.0171484142,
stim/posf.jpg,stim/negf.jpg,stim/4.jpg,stim/6.jpg,stim/latef.jpg,AB,2,4,,,,,0,53,53,13,,,,,,,,,,,,,,4,1,0.916385929376,,,,,,2016_Jan_11_1505,P3,PLC_L_D1S1,NHGY,60.0171484142,
stim/posf.jpg,stim/negf.jpg,stim/3.jpg,stim/2.jpg,stim/latef.jpg,EF,1,2,,,,,0,54,54,40,,,,,,,,,,,,,,2,1,1.23291558754,,,,,,2016_Jan_11_1505,P3,PLC_L_D1S1,NHGY,60.0171484142,
stim/posf.jpg,stim/negf.jpg,stim/5.jpg,stim/1.jpg,stim/latef.jpg,CD,2,4,,,,,0,55,55,31,,,,,,,,,,,,,,4,1,0.583116899561,,,,,,2016_Jan_11_1505,P3,PLC_L_D1S1,NHGY,60.0171484142,
stim/posf.jpg,stim/negf.jpg,stim/3.jpg,stim/2.jpg,stim/latef.jpg,EF,1,2,,,,,0,56,56,45,,,,,,,,,,,,,,2,1,0.899735730317,,,,,,2016_Jan_11_1505,P3,PLC_L_D1S1,NHGY,60.0171484142,
stim/posf.jpg,stim/negf.jpg,stim/5.jpg,stim/1.jpg,stim/latef.jpg,CD,2,4,,,,,0,57,57,32,,,,,,,,,,,,,,4,1,0.633149454325,,,,,,2016_Jan_11_1505,P3,PLC_L_D1S1,NHGY,60.0171484142,
stim/posf.jpg,stim/negf.jpg,stim/2.jpg,stim/3.jpg,stim/latef.jpg,EF,2,4,,,,,0,58,58,52,,,,,,,,,,,,,,4,1,0.783086628997,,,,,,2016_Jan_11_1505,P3,PLC_L_D1S1,NHGY,60.0171484142,
stim/posf.jpg,stim/negf.jpg,stim/6.jpg,stim/4.jpg,stim/latef.jpg,AB,1,2,,,,,0,59,59,6,,,,,,,,,,,,,,2,1,0.883029489363,,,,,,2016_Jan_11_1505,P3,PLC_L_D1S1,NHGY,60.0171484142,
,,,,,,,,,,,,,,,,,,,,,,,,,,,,,,,,0.9984375,1.0,1,0,0,2016_Jan_11_1505,P3,PLC_L_D1S1,NHGY,60.0171484142,
stim/posf.jpg,stim/negf.jpg,stim/1.jpg,stim/5.jpg,stim/latef.jpg,CD,1,2,,,,,,,,,0,0,0,20,,,,,,,,,,2,1,0.49982934801,,,,,,2016_Jan_11_1505,P3,PLC_L_D1S1,NHGY,60.0171484142,
stim/posf.jpg,stim/negf.jpg,stim/1.jpg,stim/5.jpg,stim/latef.jpg,CD,1,2,,,,,,,,,0,1,1,21,,,,,,,,,,2,1,0.4831860993,,,,,,2016_Jan_11_1505,P3,PLC_L_D1S1,NHGY,60.0171484142,
stim/negf.jpg,stim/posf.jpg,stim/4.jpg,stim/6.jpg,stim/latef.jpg,AB,2,4,,,,,,,,,0,2,2,19,,,,,,,,,,2,0,0.566496631216,,,,,,2016_Jan_11_1505,P3,PLC_L_D1S1,NHGY,60.0171484142,
stim/negf.jpg,stim/posf.jpg,stim/1.jpg,stim/5.jpg,stim/latef.jpg,CD,1,2,,,,,,,,,0,3,3,27,,,,,,,,,,2,1,0.499828241247,,,,,,2016_Jan_11_1505,P3,PLC_L_D1S1,NHGY,60.0171484142,
stim/posf.jpg,stim/negf.jpg,stim/4.jpg,stim/6.jpg,stim/latef.jpg,AB,2,4,,,,,,,,,0,4,4,15,,,,,,,,,,2,0,0.499822328487,,,,,,2016_Jan_11_1505,P3,PLC_L_D1S1,NHGY,60.0171484142,
stim/negf.jpg,stim/posf.jpg,stim/5.jpg,stim/1.jpg,stim/latef.jpg,CD,2,4,,,,,,,,,0,5,5,38,,,,,,,,,,4,1,0.683111245447,,,,,,2016_Jan_11_1505,P3,PLC_L_D1S1,NHGY,60.0171484142,
stim/posf.jpg,stim/negf.jpg,stim/5.jpg,stim/1.jpg,stim/latef.jpg,CD,2,4,,,,,,,,,0,6,6,31,,,,,,,,,,4,1,0.866289239514,,,,,,2016_Jan_11_1505,P3,PLC_L_D1S1,NHGY,60.0171484142,
stim/negf.jpg,stim/posf.jpg,stim/2.jpg,stim/3.jpg,stim/latef.jpg,EF,2,4,,,,,,,,,0,7,7,56,,,,,,,,,,4,1,1.04963570513,,,,,,2016_Jan_11_1505,P3,PLC_L_D1S1,NHGY,60.0171484142,
stim/negf.jpg,stim/posf.jpg,stim/6.jpg,stim/4.jpg,stim/latef.jpg,AB,1,2,,,,,,,,,0,8,8,8,,,,,,,,,,4,0,0.916356115954,,,,,,2016_Jan_11_1505,P3,PLC_L_D1S1,NHGY,60.0171484142,
stim/posf.jpg,stim/negf.jpg,stim/5.jpg,stim/1.jpg,stim/latef.jpg,CD,2,4,,,,,,,,,0,9,9,36,,,,,,,,,,4,1,0.933089472596,,,,,,2016_Jan_11_1505,P3,PLC_L_D1S1,NHGY,60.0171484142,
stim/posf.jpg,stim/negf.jpg,stim/2.jpg,stim/3.jpg,stim/latef.jpg,EF,2,4,,,,,,,,,0,10,10,50,,,,,,,,,,4,1,0.86640191879,,,,,,2016_Jan_11_1505,P3,PLC_L_D1S1,NHGY,60.0171484142,
stim/posf.jpg,stim/negf.jpg,stim/3.jpg,stim/2.jpg,stim/latef.jpg,EF,1,2,,,,,,,,,0,11,11,40,,,,,,,,,,4,0,0.816391797023,,,,,,2016_Jan_11_1505,P3,PLC_L_D1S1,NHGY,60.0171484142,
stim/posf.jpg,stim/negf.jpg,stim/6.jpg,stim/4.jpg,stim/latef.jpg,AB,1,2,,,,,,,,,0,12,12,1,,,,,,,,,,4,0,0.799732680704,,,,,,2016_Jan_11_1505,P3,PLC_L_D1S1,NHGY,60.0171484142,
stim/negf.jpg,stim/posf.jpg,stim/2.jpg,stim/3.jpg,stim/latef.jpg,EF,2,4,,,,,,,,,0,13,13,58,,,,,,,,,,2,0,0.599793805286,,,,,,2016_Jan_11_1505,P3,PLC_L_D1S1,NHGY,60.0171484142,
stim/posf.jpg,stim/negf.jpg,stim/6.jpg,stim/4.jpg,stim/latef.jpg,AB,1,2,,,,,,,,,0,14,14,6,,,,,,,,,,2,1,1.13300588795,,,,,,2016_Jan_11_1505,P3,PLC_L_D1S1,NHGY,60.0171484142,
stim/posf.jpg,stim/negf.jpg,stim/6.jpg,stim/4.jpg,stim/latef.jpg,AB,1,2,,,,,,,,,0,15,15,5,,,,,,,,,,2,1,0.866404132315,,,,,,2016_Jan_11_1505,P3,PLC_L_D1S1,NHGY,60.0171484142,
stim/negf.jpg,stim/posf.jpg,stim/1.jpg,stim/5.jpg,stim/latef.jpg,CD,1,2,,,,,,,,,0,16,16,29,,,,,,,,,,2,1,0.633112783787,,,,,,2016_Jan_11_1505,P3,PLC_L_D1S1,NHGY,60.0171484142,
stim/negf.jpg,stim/posf.jpg,stim/2.jpg,stim/3.jpg,stim/latef.jpg,EF,2,4,,,,,,,,,0,17,17,59,,,,,,,,,,4,1,0.933031114921,,,,,,2016_Jan_11_1505,P3,PLC_L_D1S1,NHGY,60.0171484142,
stim/posf.jpg,stim/negf.jpg,stim/6.jpg,stim/4.jpg,stim/latef.jpg,AB,1,2,,,,,,,,,0,18,18,0,,,,,,,,,,2,1,0.86634911598,,,,,,2016_Jan_11_1505,P3,PLC_L_D1S1,NHGY,60.0171484142,
stim/posf.jpg,stim/negf.jpg,stim/4.jpg,stim/6.jpg,stim/latef.jpg,AB,2,4,,,,,,,,,0,19,19,11,,,,,,,,,,4,1,0.916340503983,,,,,,2016_Jan_11_1505,P3,PLC_L_D1S1,NHGY,60.0171484142,
stim/posf.jpg,stim/negf.jpg,stim/6.jpg,stim/4.jpg,stim/latef.jpg,AB,1,2,,,,,,,,,0,20,20,7,,,,,,,,,,2,1,0.882996773697,,,,,,2016_Jan_11_1505,P3,PLC_L_D1S1,NHGY,60.0171484142,
stim/negf.jpg,stim/posf.jpg,stim/5.jpg,stim/1.jpg,stim/latef.jpg,CD,2,4,,,,,,,,,0,21,21,39,,,,,,,,,,4,1,0.916367490348,,,,,,2016_Jan_11_1505,P3,PLC_L_D1S1,NHGY,60.0171484142,
stim/posf.jpg,stim/negf.jpg,stim/3.jpg,stim/2.jpg,stim/latef.jpg,EF,1,2,,,,,,,,,0,22,22,43,,,,,,,,,,2,1,0.833024681862,,,,,,2016_Jan_11_1505,P3,PLC_L_D1S1,NHGY,60.0171484142,
stim/posf.jpg,stim/negf.jpg,stim/5.jpg,stim/1.jpg,stim/latef.jpg,CD,2,4,,,,,,,,,0,23,23,32,,,,,,,,,,4,1,0.733144897951,,,,,,2016_Jan_11_1505,P3,PLC_L_D1S1,NHGY,60.0171484142,
stim/negf.jpg,stim/posf.jpg,stim/5.jpg,stim/1.jpg,stim/latef.jpg,CD,2,4,,,,,,,,,0,24,24,37,,,,,,,,,,4,1,0.683102656005,,,,,,2016_Jan_11_1505,P3,PLC_L_D1S1,NHGY,60.0171484142,
stim/posf.jpg,stim/negf.jpg,stim/1.jpg,stim/5.jpg,stim/latef.jpg,CD,1,2,,,,,,,,,0,25,25,25,,,,,,,,,,2,1,1.13300297067,,,,,,2016_Jan_11_1505,P3,PLC_L_D1S1,NHGY,60.0171484142,
stim/posf.jpg,stim/negf.jpg,stim/6.jpg,stim/4.jpg,stim/latef.jpg,AB,1,2,,,,,,,,,0,26,26,2,,,,,,,,,,2,1,1.04972469728,,,,,,2016_Jan_11_1505,P3,PLC_L_D1S1,NHGY,60.0171484142,
stim/posf.jpg,stim/negf.jpg,stim/3.jpg,stim/2.jpg,stim/latef.jpg,EF,1,2,,,,,,,,,0,27,27,45,,,,,,,,,,2,1,0.683036072797,,,,,,2016_Jan_11_1505,P3,PLC_L_D1S1,NHGY,60.0171484142,
stim/negf.jpg,stim/posf.jpg,stim/4.jpg,stim/6.jpg,stim/latef.jpg,AB,2,4,,,,,,,,,0,28,28,18,,,,,,,,,,4,1,0.816382064729,,,,,,2016_Jan_11_1505,P3,PLC_L_D1S1,NHGY,60.0171484142,
stim/posf.jpg,stim/negf.jpg,stim/6.jpg,stim/4.jpg,stim/latef.jpg,AB,1,2,,,,,,,,,0,29,29,3,,,,,,,,,,2,1,0.966350643795,,,,,,2016_Jan_11_1505,P3,PLC_L_D1S1,NHGY,60.0171484142,
stim/posf.jpg,stim/negf.jpg,stim/5.jpg,stim/1.jpg,stim/latef.jpg,CD,2,4,,,,,,,,,0,30,30,34,,,,,,,,,,2,0,0.949693527468,,,,,,2016_Jan_11_1505,P3,PLC_L_D1S1,NHGY,60.0171484142,
stim/posf.jpg,stim/negf.jpg,stim/2.jpg,stim/3.jpg,stim/latef.jpg,EF,2,4,,,,,,,,,0,31,31,55,,,,,,,,,,4,1,0.866357927978,,,,,,2016_Jan_11_1505,P3,PLC_L_D1S1,NHGY,60.0171484142,
stim/posf.jpg,stim/negf.jpg,stim/2.jpg,stim/3.jpg,stim/latef.jpg,EF,2,4,,,,,,,,,0,32,32,51,,,,,,,,,,4,1,0.733086323736,,,,,,2016_Jan_11_1505,P3,PLC_L_D1S1,NHGY,60.0171484142,
stim/posf.jpg,stim/negf.jpg,stim/1.jpg,stim/5.jpg,stim/latef.jpg,CD,1,2,,,,,,,,,0,33,33,24,,,,,,,,,,2,1,0.749742724275,,,,,,2016_Jan_11_1505,P3,PLC_L_D1S1,NHGY,60.0171484142,
stim/posf.jpg,stim/negf.jpg,stim/5.jpg,stim/1.jpg,stim/latef.jpg,CD,2,4,,,,,,,,,0,34,34,30,,,,,,,,,,4,1,1.44953237319,,,,,,2016_Jan_11_1505,P3,PLC_L_D1S1,NHGY,60.0171484142,
stim/negf.jpg,stim/posf.jpg,stim/3.jpg,stim/2.jpg,stim/latef.jpg,EF,1,2,,,,,,,,,0,35,35,47,,,,,,,,,,2,1,1.18300839771,,,,,,2016_Jan_11_1505,P3,PLC_L_D1S1,NHGY,60.0171484142,
stim/posf.jpg,stim/negf.jpg,stim/4.jpg,stim/6.jpg,stim/latef.jpg,AB,2,4,,,,,,,,,0,36,36,10,,,,,,,,,,4,1,0.849735680693,,,,,,2016_Jan_11_1505,P3,PLC_L_D1S1,NHGY,60.0171484142,
stim/negf.jpg,stim/posf.jpg,stim/3.jpg,stim/2.jpg,stim/latef.jpg,EF,1,2,,,,,,,,,0,37,37,49,,,,,,,,,,4,0,0.683107344709,,,,,,2016_Jan_11_1505,P3,PLC_L_D1S1,NHGY,60.0171484142,
stim/posf.jpg,stim/negf.jpg,stim/3.jpg,stim/2.jpg,stim/latef.jpg,EF,1,2,,,,,,,,,0,38,38,42,,,,,,,,,,4,0,1.0663250078,,,,,,2016_Jan_11_1505,P3,PLC_L_D1S1,NHGY,60.0171484142,
stim/posf.jpg,stim/negf.jpg,stim/4.jpg,stim/6.jpg,stim/latef.jpg,AB,2,4,,,,,,,,,0,39,39,12,,,,,,,,,,4,1,0.799662753148,,,,,,2016_Jan_11_1505,P3,PLC_L_D1S1,NHGY,60.0171484142,
stim/posf.jpg,stim/negf.jpg,stim/2.jpg,stim/3.jpg,stim/latef.jpg,EF,2,4,,,,,,,,,0,40,40,52,,,,,,,,,,2,0,1.16633621077,,,,,,2016_Jan_11_1505,P3,PLC_L_D1S1,NHGY,60.0171484142,
stim/posf.jpg,stim/negf.jpg,stim/5.jpg,stim/1.jpg,stim/latef.jpg,CD,2,4,,,,,,,,,0,41,41,33,,,,,,,,,,4,1,0.949655828362,,,,,,2016_Jan_11_1505,P3,PLC_L_D1S1,NHGY,60.0171484142,
stim/negf.jpg,stim/posf.jpg,stim/1.jpg,stim/5.jpg,stim/latef.jpg,CD,1,2,,,,,,,,,0,42,42,28,,,,,,,,,,2,1,0.749791581235,,,,,,2016_Jan_11_1505,P3,PLC_L_D1S1,NHGY,60.0171484142,
stim/posf.jpg,stim/negf.jpg,stim/1.jpg,stim/5.jpg,stim/latef.jpg,CD,1,2,,,,,,,,,0,43,43,22,,,,,,,,,,2,1,0.816405893211,,,,,,2016_Jan_11_1505,P3,PLC_L_D1S1,NHGY,60.0171484142,
stim/posf.jpg,stim/negf.jpg,stim/5.jpg,stim/1.jpg,stim/latef.jpg,CD,2,4,,,,,,,,,0,44,44,35,,,,,,,,,,4,1,0.76641619242,,,,,,2016_Jan_11_1505,P3,PLC_L_D1S1,NHGY,60.0171484142,
stim/posf.jpg,stim/negf.jpg,stim/4.jpg,stim/6.jpg,stim/latef.jpg,AB,2,4,,,,,,,,,0,45,45,14,,,,,,,,,,4,1,0.916359604663,,,,,,2016_Jan_11_1505,P3,PLC_L_D1S1,NHGY,60.0171484142,
stim/posf.jpg,stim/negf.jpg,stim/1.jpg,stim/5.jpg,stim/latef.jpg,CD,1,2,,,,,,,,,0,46,46,26,,,,,,,,,,4,0,0.849726865689,,,,,,2016_Jan_11_1505,P3,PLC_L_D1S1,NHGY,60.0171484142,
stim/posf.jpg,stim/negf.jpg,stim/4.jpg,stim/6.jpg,stim/latef.jpg,AB,2,4,,,,,,,,,0,47,47,16,,,,,,,,,,4,1,1.13295232424,,,,,,2016_Jan_11_1505,P3,PLC_L_D1S1,NHGY,60.0171484142,
stim/posf.jpg,stim/negf.jpg,stim/4.jpg,stim/6.jpg,stim/latef.jpg,AB,2,4,,,,,,,,,0,48,48,13,,,,,,,,,,4,1,1.01633961978,,,,,,2016_Jan_11_1505,P3,PLC_L_D1S1,NHGY,60.0171484142,
stim/posf.jpg,stim/negf.jpg,stim/4.jpg,stim/6.jpg,stim/latef.jpg,AB,2,4,,,,,,,,,0,49,49,17,,,,,,,,,,4,1,0.683102598862,,,,,,2016_Jan_11_1505,P3,PLC_L_D1S1,NHGY,60.0171484142,
stim/posf.jpg,stim/negf.jpg,stim/2.jpg,stim/3.jpg,stim/latef.jpg,EF,2,4,,,,,,,,,0,50,50,53,,,,,,,,,,4,1,0.76643724798,,,,,,2016_Jan_11_1505,P3,PLC_L_D1S1,NHGY,60.0171484142,
stim/negf.jpg,stim/posf.jpg,stim/6.jpg,stim/4.jpg,stim/latef.jpg,AB,1,2,,,,,,,,,0,51,51,9,,,,,,,,,,2,1,0.983003567655,,,,,,2016_Jan_11_1505,P3,PLC_L_D1S1,NHGY,60.0171484142,
stim/posf.jpg,stim/negf.jpg,stim/1.jpg,stim/5.jpg,stim/latef.jpg,CD,1,2,,,,,,,,,0,52,52,23,,,,,,,,,,2,1,0.716430022444,,,,,,2016_Jan_11_1505,P3,PLC_L_D1S1,NHGY,60.0171484142,
stim/negf.jpg,stim/posf.jpg,stim/2.jpg,stim/3.jpg,stim/latef.jpg,EF,2,4,,,,,,,,,0,53,53,57,,,,,,,,,,4,1,0.799798575194,,,,,,2016_Jan_11_1505,P3,PLC_L_D1S1,NHGY,60.0171484142,
stim/posf.jpg,stim/negf.jpg,stim/3.jpg,stim/2.jpg,stim/latef.jpg,EF,1,2,,,,,,,,,0,54,54,44,,,,,,,,,,2,1,1.1163425521,,,,,,2016_Jan_11_1505,P3,PLC_L_D1S1,NHGY,60.0171484142,
stim/negf.jpg,stim/posf.jpg,stim/3.jpg,stim/2.jpg,stim/latef.jpg,EF,1,2,,,,,,,,,0,55,55,46,,,,,,,,,,2,1,0.666444790809,,,,,,2016_Jan_11_1505,P3,PLC_L_D1S1,NHGY,60.0171484142,
stim/posf.jpg,stim/negf.jpg,stim/2.jpg,stim/3.jpg,stim/latef.jpg,EF,2,4,,,,,,,,,0,56,56,54,,,,,,,,,,4,1,0.949689984624,,,,,,2016_Jan_11_1505,P3,PLC_L_D1S1,NHGY,60.0171484142,
stim/posf.jpg,stim/negf.jpg,stim/3.jpg,stim/2.jpg,stim/latef.jpg,EF,1,2,,,,,,,,,0,57,57,41,,,,,,,,,,2,1,0.733077292191,,,,,,2016_Jan_11_1505,P3,PLC_L_D1S1,NHGY,60.0171484142,
stim/negf.jpg,stim/posf.jpg,stim/3.jpg,stim/2.jpg,stim/latef.jpg,EF,1,2,,,,,,,,,0,58,58,48,,,,,,,,,,2,1,0.616464365171,,,,,,2016_Jan_11_1505,P3,PLC_L_D1S1,NHGY,60.0171484142,
stim/posf.jpg,stim/negf.jpg,stim/6.jpg,stim/4.jpg,stim/latef.jpg,AB,1,2,,,,,,,,,0,59,59,4,,,,,,,,,,2,1,0.81636920162,,,,,,2016_Jan_11_1505,P3,PLC_L_D1S1,NHGY,60.0171484142,
,,,,,,,,,,,,,,,,,,,,,,,,,,,,,,,,0.9984375,1.0,1,0,0,2016_Jan_11_1505,P3,PLC_L_D1S1,NHGY,60.0171484142,
stim/posf.jpg,stim/negf.jpg,stim/1.jpg,stim/5.jpg,stim/latef.jpg,CD,1,2,,,,,,,,,,,,,0,0,0,25,,,,,,2,1,0.683129501017,,,,,,2016_Jan_11_1505,P3,PLC_L_D1S1,NHGY,60.0171484142,
stim/negf.jpg,stim/posf.jpg,stim/3.jpg,stim/2.jpg,stim/latef.jpg,EF,1,2,,,,,,,,,,,,,0,1,1,47,,,,,,2,1,0.716425989376,,,,,,2016_Jan_11_1505,P3,PLC_L_D1S1,NHGY,60.0171484142,
stim/negf.jpg,stim/posf.jpg,stim/3.jpg,stim/2.jpg,stim/latef.jpg,EF,1,2,,,,,,,,,,,,,0,2,2,49,,,,,,2,1,0.783088361322,,,,,,2016_Jan_11_1505,P3,PLC_L_D1S1,NHGY,60.0171484142,
stim/posf.jpg,stim/negf.jpg,stim/3.jpg,stim/2.jpg,stim/latef.jpg,EF,1,2,,,,,,,,,,,,,0,3,3,40,,,,,,2,1,0.783081477137,,,,,,2016_Jan_11_1505,P3,PLC_L_D1S1,NHGY,60.0171484142,
stim/negf.jpg,stim/posf.jpg,stim/5.jpg,stim/1.jpg,stim/latef.jpg,CD,2,4,,,,,,,,,,,,,0,4,4,37,,,,,,4,1,0.799723192018,,,,,,2016_Jan_11_1505,P3,PLC_L_D1S1,NHGY,60.0171484142,
stim/negf.jpg,stim/posf.jpg,stim/2.jpg,stim/3.jpg,stim/latef.jpg,EF,2,4,,,,,,,,,,,,,0,5,5,57,,,,,,4,1,0.982989811317,,,,,,2016_Jan_11_1505,P3,PLC_L_D1S1,NHGY,60.0171484142,
stim/negf.jpg,stim/posf.jpg,stim/6.jpg,stim/4.jpg,stim/latef.jpg,AB,1,2,,,,,,,,,,,,,0,6,6,9,,,,,,2,1,0.799773369273,,,,,,2016_Jan_11_1505,P3,PLC_L_D1S1,NHGY,60.0171484142,
stim/posf.jpg,stim/negf.jpg,stim/1.jpg,stim/5.jpg,stim/latef.jpg,CD,1,2,,,,,,,,,,,,,0,7,7,20,,,,,,2,1,0.616443117131,,,,,,2016_Jan_11_1505,P3,PLC_L_D1S1,NHGY,60.0171484142,
stim/posf.jpg,stim/negf.jpg,stim/4.jpg,stim/6.jpg,stim/latef.jpg,AB,2,4,,,,,,,,,,,,,0,8,8,12,,,,,,4,1,0.766363852767,,,,,,2016_Jan_11_1505,P3,PLC_L_D1S1,NHGY,60.0171484142,
stim/posf.jpg,stim/negf.jpg,stim/1.jpg,stim/5.jpg,stim/latef.jpg,CD,1,2,,,,,,,,,,,,,0,9,9,26,,,,,,2,1,0.566490402668,,,,,,2016_Jan_11_1505,P3,PLC_L_D1S1,NHGY,60.0171484142,
stim/negf.jpg,stim/posf.jpg,stim/2.jpg,stim/3.jpg,stim/latef.jpg,EF,2,4,,,,,,,,,,,,,0,10,10,58,,,,,,4,1,0.733014781148,,,,,,2016_Jan_11_1505,P3,PLC_L_D1S1,NHGY,60.0171484142,
stim/posf.jpg,stim/negf.jpg,stim/3.jpg,stim/2.jpg,stim/latef.jpg,EF,1,2,,,,,,,,,,,,,0,11,11,45,,,,,,2,1,0.649775451972,,,,,,2016_Jan_11_1505,P3,PLC_L_D1S1,NHGY,60.0171484142,
stim/posf.jpg,stim/negf.jpg,stim/2.jpg,stim/3.jpg,stim/latef.jpg,EF,2,4,,,,,,,,,,,,,0,12,12,52,,,,,,4,1,0.799727727339,,,,,,2016_Jan_11_1505,P3,PLC_L_D1S1,NHGY,60.0171484142,
stim/posf.jpg,stim/negf.jpg,stim/4.jpg,stim/6.jpg,stim/latef.jpg,AB,2,4,,,,,,,,,,,,,0,13,13,10,,,,,,4,1,0.683109822895,,,,,,2016_Jan_11_1505,P3,PLC_L_D1S1,NHGY,60.0171484142,
stim/posf.jpg,stim/negf.jpg,stim/1.jpg,stim/5.jpg,stim/latef.jpg,CD,1,2,,,,,,,,,,,,,0,14,14,23,,,,,,2,1,0.649781665482,,,,,,2016_Jan_11_1505,P3,PLC_L_D1S1,NHGY,60.0171484142,
stim/posf.jpg,stim/negf.jpg,stim/4.jpg,stim/6.jpg,stim/latef.jpg,AB,2,4,,,,,,,,,,,,,0,15,15,17,,,,,,4,1,0.866391449656,,,,,,2016_Jan_11_1505,P3,PLC_L_D1S1,NHGY,60.0171484142,
stim/negf.jpg,stim/posf.jpg,stim/1.jpg,stim/5.jpg,stim/latef.jpg,CD,1,2,,,,,,,,,,,,,0,16,16,28,,,,,,4,0,0.833056417081,,,,,,2016_Jan_11_1505,P3,PLC_L_D1S1,NHGY,60.0171484142,
stim/posf.jpg,stim/negf.jpg,stim/2.jpg,stim/3.jpg,stim/latef.jpg,EF,2,4,,,,,,,,,,,,,0,17,17,54,,,,,,4,1,0.666395711295,,,,,,2016_Jan_11_1505,P3,PLC_L_D1S1,NHGY,60.0171484142,
stim/negf.jpg,stim/posf.jpg,stim/5.jpg,stim/1.jpg,stim/latef.jpg,CD,2,4,,,,,,,,,,,,,0,18,18,39,,,,,,4,1,0.799741781422,,,,,,2016_Jan_11_1505,P3,PLC_L_D1S1,NHGY,60.0171484142,
stim/negf.jpg,stim/posf.jpg,stim/2.jpg,stim/3.jpg,stim/latef.jpg,EF,2,4,,,,,,,,,,,,,0,19,19,59,,,,,,4,1,0.866389154928,,,,,,2016_Jan_11_1505,P3,PLC_L_D1S1,NHGY,60.0171484142,
stim/negf.jpg,stim/posf.jpg,stim/2.jpg,stim/3.jpg,stim/latef.jpg,EF,2,4,,,,,,,,,,,,,0,20,20,56,,,,,,4,1,0.799743276153,,,,,,2016_Jan_11_1505,P3,PLC_L_D1S1,NHGY,60.0171484142,
stim/posf.jpg,stim/negf.jpg,stim/2.jpg,stim/3.jpg,stim/latef.jpg,EF,2,4,,,,,,,,,,,,,0,21,21,50,,,,,,4,1,0.76638005421,,,,,,2016_Jan_11_1505,P3,PLC_L_D1S1,NHGY,60.0171484142,
stim/posf.jpg,stim/negf.jpg,stim/6.jpg,stim/4.jpg,stim/latef.jpg,AB,1,2,,,,,,,,,,,,,0,22,22,7,,,,,,2,1,0.783085771858,,,,,,2016_Jan_11_1505,P3,PLC_L_D1S1,NHGY,60.0171484142,
stim/posf.jpg,stim/negf.jpg,stim/3.jpg,stim/2.jpg,stim/latef.jpg,EF,1,2,,,,,,,,,,,,,0,23,23,43,,,,,,2,1,0.716414160849,,,,,,2016_Jan_11_1505,P3,PLC_L_D1S1,NHGY,60.0171484142,
stim/posf.jpg,stim/negf.jpg,stim/6.jpg,stim/4.jpg,stim/latef.jpg,AB,1,2,,,,,,,,,,,,,0,24,24,3,,,,,,2,1,1.24958795193,,,,,,2016_Jan_11_1505,P3,PLC_L_D1S1,NHGY,60.0171484142,
stim/posf.jpg,stim/negf.jpg,stim/1.jpg,stim/5.jpg,stim/latef.jpg,CD,1,2,,,,,,,,,,,,,0,25,25,21,,,,,,2,1,1.01633492506,,,,,,2016_Jan_11_1505,P3,PLC_L_D1S1,NHGY,60.0171484142,
stim/negf.jpg,stim/posf.jpg,stim/1.jpg,stim/5.jpg,stim/latef.jpg,CD,1,2,,,,,,,,,,,,,0,26,26,27,,,,,,2,1,0.666451681009,,,,,,2016_Jan_11_1505,P3,PLC_L_D1S1,NHGY,60.0171484142,
stim/posf.jpg,stim/negf.jpg,stim/4.jpg,stim/6.jpg,stim/latef.jpg,AB,2,4,,,,,,,,,,,,,0,27,27,15,,,,,,4,1,0.866375488814,,,,,,2016_Jan_11_1505,P3,PLC_L_D1S1,NHGY,60.0171484142,
stim/posf.jpg,stim/negf.jpg,stim/5.jpg,stim/1.jpg,stim/latef.jpg,CD,2,4,,,,,,,,,,,,,0,28,28,36,,,,,,4,1,0.71642641945,,,,,,2016_Jan_11_1505,P3,PLC_L_D1S1,NHGY,60.0171484142,
stim/posf.jpg,stim/negf.jpg,stim/3.jpg,stim/2.jpg,stim/latef.jpg,EF,1,2,,,,,,,,,,,,,0,29,29,42,,,,,,2,1,1.09963627806,,,,,,2016_Jan_11_1505,P3,PLC_L_D1S1,NHGY,60.0171484142,
stim/posf.jpg,stim/negf.jpg,stim/6.jpg,stim/4.jpg,stim/latef.jpg,AB,1,2,,,,,,,,,,,,,0,30,30,2,,,,,,2,1,0.699782226382,,,,,,2016_Jan_11_1505,P3,PLC_L_D1S1,NHGY,60.0171484142,
stim/posf.jpg,stim/negf.jpg,stim/5.jpg,stim/1.jpg,stim/latef.jpg,CD,2,4,,,,,,,,,,,,,0,31,31,35,,,,,,4,1,0.733086723734,,,,,,2016_Jan_11_1505,P3,PLC_L_D1S1,NHGY,60.0171484142,
stim/negf.jpg,stim/posf.jpg,stim/3.jpg,stim/2.jpg,stim/latef.jpg,EF,1,2,,,,,,,,,,,,,0,32,32,46,,,,,,2,1,0.549806639825,,,,,,2016_Jan_11_1505,P3,PLC_L_D1S1,NHGY,60.0171484142,
stim/negf.jpg,stim/posf.jpg,stim/6.jpg,stim/4.jpg,stim/latef.jpg,AB,1,2,,,,,,,,,,,,,0,33,33,8,,,,,,4,0,0.733099225943,,,,,,2016_Jan_11_1505,P3,PLC_L_D1S1,NHGY,60.0171484142,
stim/posf.jpg,stim/negf.jpg,stim/2.jpg,stim/3.jpg,stim/latef.jpg,EF,2,4,,,,,,,,,,,,,0,34,34,51,,,,,,4,1,0.966321215334,,,,,,2016_Jan_11_1505,P3,PLC_L_D1S1,NHGY,60.0171484142,
stim/posf.jpg,stim/negf.jpg,stim/6.jpg,stim/4.jpg,stim/latef.jpg,AB,1,2,,,,,,,,,,,,,0,35,35,6,,,,,,4,0,0.66649230642,,,,,,2016_Jan_11_1505,P3,PLC_L_D1S1,NHGY,60.0171484142,
stim/negf.jpg,stim/posf.jpg,stim/4.jpg,stim/6.jpg,stim/latef.jpg,AB,2,4,,,,,,,,,,,,,0,36,36,19,,,,,,4,1,0.916370145977,,,,,,2016_Jan_11_1505,P3,PLC_L_D1S1,NHGY,60.0171484142,
stim/posf.jpg,stim/negf.jpg,stim/6.jpg,stim/4.jpg,stim/latef.jpg,AB,1,2,,,,,,,,,,,,,0,37,37,1,,,,,,2,1,1.04964993665,,,,,,2016_Jan_11_1505,P3,PLC_L_D1S1,NHGY,60.0171484142,
stim/posf.jpg,stim/negf.jpg,stim/6.jpg,stim/4.jpg,stim/latef.jpg,AB,1,2,,,,,,,,,,,,,0,38,38,0,,,,,,2,1,0.483102460517,,,,,,2016_Jan_11_1505,P3,PLC_L_D1S1,NHGY,60.0171484142,
stim/posf.jpg,stim/negf.jpg,stim/5.jpg,stim/1.jpg,stim/latef.jpg,CD,2,4,,,,,,,,,,,,,0,39,39,34,,,,,,4,1,0.999657929106,,,,,,2016_Jan_11_1505,P3,PLC_L_D1S1,NHGY,60.0171484142,
stim/posf.jpg,stim/negf.jpg,stim/2.jpg,stim/3.jpg,stim/latef.jpg,EF,2,4,,,,,,,,,,,,,0,40,40,53,,,,,,2,0,0.916368723426,,,,,,2016_Jan_11_1505,P3,PLC_L_D1S1,NHGY,60.0171484142,
stim/posf.jpg,stim/negf.jpg,stim/3.jpg,stim/2.jpg,stim/latef.jpg,EF,1,2,,,,,,,,,,,,,0,41,41,41,,,,,,4,0,0.61642851869,,,,,,2016_Jan_11_1505,P3,PLC_L_D1S1,NHGY,60.0171484142,
stim/posf.jpg,stim/negf.jpg,stim/5.jpg,stim/1.jpg,stim/latef.jpg,CD,2,4,,,,,,,,,,,,,0,42,42,30,,,,,,4,1,0.716435135206,,,,,,2016_Jan_11_1505,P3,PLC_L_D1S1,NHGY,60.0171484142,
stim/posf.jpg,stim/negf.jpg,stim/4.jpg,stim/6.jpg,stim/latef.jpg,AB,2,4,,,,,,,,,,,,,0,43,43,13,,,,,,4,1,0.982987694031,,,,,,2016_Jan_11_1505,P3,PLC_L_D1S1,NHGY,60.0171484142,
stim/posf.jpg,stim/negf.jpg,stim/4.jpg,stim/6.jpg,stim/latef.jpg,AB,2,4,,,,,,,,,,,,,0,44,44,14,,,,,,4,1,0.949732754388,,,,,,2016_Jan_11_1505,P3,PLC_L_D1S1,NHGY,60.0171484142,
stim/posf.jpg,stim/negf.jpg,stim/5.jpg,stim/1.jpg,stim/latef.jpg,CD,2,4,,,,,,,,,,,,,0,45,45,32,,,,,,4,1,0.683075648587,,,,,,2016_Jan_11_1505,P3,PLC_L_D1S1,NHGY,60.0171484142,
stim/posf.jpg,stim/negf.jpg,stim/4.jpg,stim/6.jpg,stim/latef.jpg,AB,2,4,,,,,,,,,,,,,0,46,46,11,,,,,,4,1,0.599817802189,,,,,,2016_Jan_11_1505,P3,PLC_L_D1S1,NHGY,60.0171484142,
stim/posf.jpg,stim/negf.jpg,stim/1.jpg,stim/5.jpg,stim/latef.jpg,CD,1,2,,,,,,,,,,,,,0,47,47,22,,,,,,2,1,0.81636540013,,,,,,2016_Jan_11_1505,P3,PLC_L_D1S1,NHGY,60.0171484142,
stim/negf.jpg,stim/posf.jpg,stim/5.jpg,stim/1.jpg,stim/latef.jpg,CD,2,4,,,,,,,,,,,,,0,48,48,38,,,,,,4,1,0.899720091278,,,,,,2016_Jan_11_1505,P3,PLC_L_D1S1,NHGY,60.0171484142,
stim/posf.jpg,stim/negf.jpg,stim/5.jpg,stim/1.jpg,stim/latef.jpg,CD,2,4,,,,,,,,,,,,,0,49,49,33,,,,,,4,1,0.733061743377,,,,,,2016_Jan_11_1505,P3,PLC_L_D1S1,NHGY,60.0171484142,
stim/posf.jpg,stim/negf.jpg,stim/4.jpg,stim/6.jpg,stim/latef.jpg,AB,2,4,,,,,,,,,,,,,0,50,50,16,,,,,,4,1,0.833053493784,,,,,,2016_Jan_11_1505,P3,PLC_L_D1S1,NHGY,60.0171484142,
stim/posf.jpg,stim/negf.jpg,stim/6.jpg,stim/4.jpg,stim/latef.jpg,AB,1,2,,,,,,,,,,,,,0,51,51,4,,,,,,2,1,0.766468607261,,,,,,2016_Jan_11_1505,P3,PLC_L_D1S1,NHGY,60.0171484142,
stim/posf.jpg,stim/negf.jpg,stim/1.jpg,stim/5.jpg,stim/latef.jpg,CD,1,2,,,,,,,,,,,,,0,52,52,24,,,,,,2,1,0.583142520517,,,,,,2016_Jan_11_1505,P3,PLC_L_D1S1,NHGY,60.0171484142,
stim/posf.jpg,stim/negf.jpg,stim/2.jpg,stim/3.jpg,stim/latef.jpg,EF,2,4,,,,,,,,,,,,,0,53,53,55,,,,,,4,1,0.93302500968,,,,,,2016_Jan_11_1505,P3,PLC_L_D1S1,NHGY,60.0171484142,
stim/posf.jpg,stim/negf.jpg,stim/6.jpg,stim/4.jpg,stim/latef.jpg,AB,1,2,,,,,,,,,,,,,0,54,54,5,,,,,,2,1,1.13295291672,,,,,,2016_Jan_11_1505,P3,PLC_L_D1S1,NHGY,60.0171484142,
stim/negf.jpg,stim/posf.jpg,stim/3.jpg,stim/2.jpg,stim/latef.jpg,EF,1,2,,,,,,,,,,,,,0,55,55,48,,,,,,2,1,0.616533733332,,,,,,2016_Jan_11_1505,P3,PLC_L_D1S1,NHGY,60.0171484142,
stim/negf.jpg,stim/posf.jpg,stim/4.jpg,stim/6.jpg,stim/latef.jpg,AB,2,4,,,,,,,,,,,,,0,56,56,18,,,,,,4,1,0.833066835087,,,,,,2016_Jan_11_1505,P3,PLC_L_D1S1,NHGY,60.0171484142,
stim/negf.jpg,stim/posf.jpg,stim/1.jpg,stim/5.jpg,stim/latef.jpg,CD,1,2,,,,,,,,,,,,,0,57,57,29,,,,,,2,1,0.583182168488,,,,,,2016_Jan_11_1505,P3,PLC_L_D1S1,NHGY,60.0171484142,
stim/posf.jpg,stim/negf.jpg,stim/5.jpg,stim/1.jpg,stim/latef.jpg,CD,2,4,,,,,,,,,,,,,0,58,58,31,,,,,,4,1,0.899702545479,,,,,,2016_Jan_11_1505,P3,PLC_L_D1S1,NHGY,60.0171484142,
stim/posf.jpg,stim/negf.jpg,stim/3.jpg,stim/2.jpg,stim/latef.jpg,EF,1,2,,,,,,,,,,,,,0,59,59,44,,,,,,2,1,0.83304582464,,,,,,2016_Jan_11_1505,P3,PLC_L_D1S1,NHGY,60.0171484142,
