fb_corr,fb_incorr,symbol2,symbol1,fb_late,pair,position,correct,block_01.thisRepN,block_01.thisTrialN,block_01.thisN,block_01.thisIndex,block_02.thisRepN,block_02.thisTrialN,block_02.thisN,block_02.thisIndex,block_03.thisRepN,block_03.thisTrialN,block_03.thisN,block_03.thisIndex,block_04.thisRepN,block_04.thisTrialN,block_04.thisN,block_04.thisIndex,mouse.x,mouse.y,mouse.leftButton,mouse.midButton,mouse.rightButton,buttonBox_2.keys,buttonBox_2.corr,buttonBox_2.rt,mouse_2.x,mouse_2.y,mouse_2.leftButton,mouse_2.midButton,mouse_2.rightButton,date,Participant,expName,Group,frameRate,
,,,,,,,,,,,,,,,,,,,,,,,,0.9984375,0.47265625,1,0,0,,,,,,,,,2016_Jan_12_1444,P5,PLC_L_D1S1,NHGY,60.0231154082,
stim/posf.jpg,stim/negf.jpg,stim/3.jpg,stim/1.jpg,stim/latef.jpg,AB,1,2,0,0,0,2,,,,,,,,,,,,,,,,,,4,0,0.749767850739,,,,,,2016_Jan_12_1444,P5,PLC_L_D1S1,NHGY,60.0231154082,
stim/negf.jpg,stim/posf.jpg,stim/1.jpg,stim/3.jpg,stim/latef.jpg,AB,2,4,0,1,1,19,,,,,,,,,,,,,,,,,,2,0,0.799734135329,,,,,,2016_Jan_12_1444,P5,PLC_L_D1S1,NHGY,60.0231154082,
stim/posf.jpg,stim/negf.jpg,stim/2.jpg,stim/6.jpg,stim/latef.jpg,EF,2,4,0,2,2,54,,,,,,,,,,,,,,,,,,4,1,0.816380937057,,,,,,2016_Jan_12_1444,P5,PLC_L_D1S1,NHGY,60.0231154082,
stim/posf.jpg,stim/negf.jpg,stim/3.jpg,stim/1.jpg,stim/latef.jpg,AB,1,2,0,3,3,4,,,,,,,,,,,,,,,,,,4,0,0.966351657688,,,,,,2016_Jan_12_1444,P5,PLC_L_D1S1,NHGY,60.0231154082,
stim/posf.jpg,stim/negf.jpg,stim/4.jpg,stim/5.jpg,stim/latef.jpg,CD,2,4,0,4,4,35,,,,,,,,,,,,,,,,,,4,1,0.916317109205,,,,,,2016_Jan_12_1444,P5,PLC_L_D1S1,NHGY,60.0231154082,
stim/posf.jpg,stim/negf.jpg,stim/3.jpg,stim/1.jpg,stim/latef.jpg,AB,1,2,0,5,5,3,,,,,,,,,,,,,,,,,,4,0,0.849704759721,,,,,,2016_Jan_12_1444,P5,PLC_L_D1S1,NHGY,60.0231154082,
stim/posf.jpg,stim/negf.jpg,stim/6.jpg,stim/2.jpg,stim/latef.jpg,EF,1,2,0,6,6,44,,,,,,,,,,,,,,,,,,2,1,0.549785826476,,,,,,2016_Jan_12_1444,P5,PLC_L_D1S1,NHGY,60.0231154082,
stim/posf.jpg,stim/negf.jpg,stim/2.jpg,stim/6.jpg,stim/latef.jpg,EF,2,4,0,7,7,52,,,,,,,,,,,,,,,,,,2,0,0.91635496141,,,,,,2016_Jan_12_1444,P5,PLC_L_D1S1,NHGY,60.0231154082,
stim/posf.jpg,stim/negf.jpg,stim/6.jpg,stim/2.jpg,stim/latef.jpg,EF,1,2,0,8,8,42,,,,,,,,,,,,,,,,,,2,1,0.616487486232,,,,,,2016_Jan_12_1444,P5,PLC_L_D1S1,NHGY,60.0231154082,
stim/posf.jpg,stim/negf.jpg,stim/1.jpg,stim/3.jpg,stim/latef.jpg,AB,2,4,0,9,9,10,,,,,,,,,,,,,,,,,,2,0,0.749753414811,,,,,,2016_Jan_12_1444,P5,PLC_L_D1S1,NHGY,60.0231154082,
stim/negf.jpg,stim/posf.jpg,stim/5.jpg,stim/4.jpg,stim/latef.jpg,CD,1,2,0,10,10,27,,,,,,,,,,,,,,,,,,4,0,1.03299024447,,,,,,2016_Jan_12_1444,P5,PLC_L_D1S1,NHGY,60.0231154082,
stim/posf.jpg,stim/negf.jpg,stim/1.jpg,stim/3.jpg,stim/latef.jpg,AB,2,4,0,11,11,11,,,,,,,,,,,,,,,,,,2,0,0.733073193911,,,,,,2016_Jan_12_1444,P5,PLC_L_D1S1,NHGY,60.0231154082,
stim/posf.jpg,stim/negf.jpg,stim/2.jpg,stim/6.jpg,stim/latef.jpg,EF,2,4,0,12,12,53,,,,,,,,,,,,,,,,,,4,1,0.583135089454,,,,,,2016_Jan_12_1444,P5,PLC_L_D1S1,NHGY,60.0231154082,
stim/posf.jpg,stim/negf.jpg,stim/5.jpg,stim/4.jpg,stim/latef.jpg,CD,1,2,0,13,13,23,,,,,,,,,,,,,,,,,,4,0,0.949714209238,,,,,,2016_Jan_12_1444,P5,PLC_L_D1S1,NHGY,60.0231154082,
stim/negf.jpg,stim/posf.jpg,stim/5.jpg,stim/4.jpg,stim/latef.jpg,CD,1,2,0,14,14,28,,,,,,,,,,,,,,,,,,2,1,0.783079348729,,,,,,2016_Jan_12_1444,P5,PLC_L_D1S1,NHGY,60.0231154082,
stim/posf.jpg,stim/negf.jpg,stim/3.jpg,stim/1.jpg,stim/latef.jpg,AB,1,2,0,15,15,1,,,,,,,,,,,,,,,,,,2,1,0.866374818329,,,,,,2016_Jan_12_1444,P5,PLC_L_D1S1,NHGY,60.0231154082,
stim/posf.jpg,stim/negf.jpg,stim/6.jpg,stim/2.jpg,stim/latef.jpg,EF,1,2,0,16,16,41,,,,,,,,,,,,,,,,,,2,1,0.499829132754,,,,,,2016_Jan_12_1444,P5,PLC_L_D1S1,NHGY,60.0231154082,
stim/posf.jpg,stim/negf.jpg,stim/2.jpg,stim/6.jpg,stim/latef.jpg,EF,2,4,0,17,17,50,,,,,,,,,,,,,,,,,,2,0,0.899683368984,,,,,,2016_Jan_12_1444,P5,PLC_L_D1S1,NHGY,60.0231154082,
stim/posf.jpg,stim/negf.jpg,stim/4.jpg,stim/5.jpg,stim/latef.jpg,CD,2,4,0,18,18,32,,,,,,,,,,,,,,,,,,2,0,0.899678175058,,,,,,2016_Jan_12_1444,P5,PLC_L_D1S1,NHGY,60.0231154082,
stim/posf.jpg,stim/negf.jpg,stim/5.jpg,stim/4.jpg,stim/latef.jpg,CD,1,2,0,19,19,26,,,,,,,,,,,,,,,,,,2,1,1.23290672662,,,,,,2016_Jan_12_1444,P5,PLC_L_D1S1,NHGY,60.0231154082,
stim/negf.jpg,stim/posf.jpg,stim/3.jpg,stim/1.jpg,stim/latef.jpg,AB,1,2,0,20,20,8,,,,,,,,,,,,,,,,,,4,0,1.0162719428,,,,,,2016_Jan_12_1444,P5,PLC_L_D1S1,NHGY,60.0231154082,
stim/posf.jpg,stim/negf.jpg,stim/2.jpg,stim/6.jpg,stim/latef.jpg,EF,2,4,0,21,21,55,,,,,,,,,,,,,,,,,,4,1,0.816333993226,,,,,,2016_Jan_12_1444,P5,PLC_L_D1S1,NHGY,60.0231154082,
stim/negf.jpg,stim/posf.jpg,stim/6.jpg,stim/2.jpg,stim/latef.jpg,EF,1,2,0,22,22,48,,,,,,,,,,,,,,,,,,2,1,0.74974070518,,,,,,2016_Jan_12_1444,P5,PLC_L_D1S1,NHGY,60.0231154082,
stim/posf.jpg,stim/negf.jpg,stim/4.jpg,stim/5.jpg,stim/latef.jpg,CD,2,4,0,23,23,30,,,,,,,,,,,,,,,,,,2,0,0.849702603354,,,,,,2016_Jan_12_1444,P5,PLC_L_D1S1,NHGY,60.0231154082,
stim/posf.jpg,stim/negf.jpg,stim/2.jpg,stim/6.jpg,stim/latef.jpg,EF,2,4,0,24,24,51,,,,,,,,,,,,,,,,,,4,1,0.916356474175,,,,,,2016_Jan_12_1444,P5,PLC_L_D1S1,NHGY,60.0231154082,
stim/posf.jpg,stim/negf.jpg,stim/5.jpg,stim/4.jpg,stim/latef.jpg,CD,1,2,0,25,25,20,,,,,,,,,,,,,,,,,,4,0,0.966305327383,,,,,,2016_Jan_12_1444,P5,PLC_L_D1S1,NHGY,60.0231154082,
stim/posf.jpg,stim/negf.jpg,stim/1.jpg,stim/3.jpg,stim/latef.jpg,AB,2,4,0,26,26,14,,,,,,,,,,,,,,,,,,2,0,0.833038352199,,,,,,2016_Jan_12_1444,P5,PLC_L_D1S1,NHGY,60.0231154082,
stim/negf.jpg,stim/posf.jpg,stim/2.jpg,stim/6.jpg,stim/latef.jpg,EF,2,4,0,27,27,57,,,,,,,,,,,,,,,,,,4,1,0.949737330782,,,,,,2016_Jan_12_1444,P5,PLC_L_D1S1,NHGY,60.0231154082,
stim/negf.jpg,stim/posf.jpg,stim/1.jpg,stim/3.jpg,stim/latef.jpg,AB,2,4,0,28,28,18,,,,,,,,,,,,,,,,,,2,0,0.899632001143,,,,,,2016_Jan_12_1444,P5,PLC_L_D1S1,NHGY,60.0231154082,
stim/negf.jpg,stim/posf.jpg,stim/3.jpg,stim/1.jpg,stim/latef.jpg,AB,1,2,0,29,29,9,,,,,,,,,,,,,,,,,,4,0,0.866418778735,,,,,,2016_Jan_12_1444,P5,PLC_L_D1S1,NHGY,60.0231154082,
stim/posf.jpg,stim/negf.jpg,stim/5.jpg,stim/4.jpg,stim/latef.jpg,CD,1,2,0,30,30,25,,,,,,,,,,,,,,,,,,4,0,0.883054768555,,,,,,2016_Jan_12_1444,P5,PLC_L_D1S1,NHGY,60.0231154082,
stim/negf.jpg,stim/posf.jpg,stim/6.jpg,stim/2.jpg,stim/latef.jpg,EF,1,2,0,31,31,49,,,,,,,,,,,,,,,,,,2,1,0.816402172908,,,,,,2016_Jan_12_1444,P5,PLC_L_D1S1,NHGY,60.0231154082,
stim/posf.jpg,stim/negf.jpg,stim/3.jpg,stim/1.jpg,stim/latef.jpg,AB,1,2,0,32,32,6,,,,,,,,,,,,,,,,,,4,0,0.899676944997,,,,,,2016_Jan_12_1444,P5,PLC_L_D1S1,NHGY,60.0231154082,
stim/posf.jpg,stim/negf.jpg,stim/6.jpg,stim/2.jpg,stim/latef.jpg,EF,1,2,0,33,33,40,,,,,,,,,,,,,,,,,,2,1,0.683119170836,,,,,,2016_Jan_12_1444,P5,PLC_L_D1S1,NHGY,60.0231154082,
stim/posf.jpg,stim/negf.jpg,stim/4.jpg,stim/5.jpg,stim/latef.jpg,CD,2,4,0,34,34,33,,,,,,,,,,,,,,,,,,4,1,0.666491923776,,,,,,2016_Jan_12_1444,P5,PLC_L_D1S1,NHGY,60.0231154082,
stim/posf.jpg,stim/negf.jpg,stim/5.jpg,stim/4.jpg,stim/latef.jpg,CD,1,2,0,35,35,21,,,,,,,,,,,,,,,,,,2,1,0.68309958008,,,,,,2016_Jan_12_1444,P5,PLC_L_D1S1,NHGY,60.0231154082,
stim/posf.jpg,stim/negf.jpg,stim/5.jpg,stim/4.jpg,stim/latef.jpg,CD,1,2,0,36,36,24,,,,,,,,,,,,,,,,,,2,1,0.833060177517,,,,,,2016_Jan_12_1444,P5,PLC_L_D1S1,NHGY,60.0231154082,
stim/negf.jpg,stim/posf.jpg,stim/6.jpg,stim/2.jpg,stim/latef.jpg,EF,1,2,0,37,37,47,,,,,,,,,,,,,,,,,,2,1,0.716429844776,,,,,,2016_Jan_12_1444,P5,PLC_L_D1S1,NHGY,60.0231154082,
stim/posf.jpg,stim/negf.jpg,stim/4.jpg,stim/5.jpg,stim/latef.jpg,CD,2,4,0,38,38,34,,,,,,,,,,,,,,,,,,4,1,1.11633902475,,,,,,2016_Jan_12_1444,P5,PLC_L_D1S1,NHGY,60.0231154082,
stim/negf.jpg,stim/posf.jpg,stim/4.jpg,stim/5.jpg,stim/latef.jpg,CD,2,4,0,39,39,37,,,,,,,,,,,,,,,,,,4,1,1.04956059894,,,,,,2016_Jan_12_1444,P5,PLC_L_D1S1,NHGY,60.0231154082,
stim/posf.jpg,stim/negf.jpg,stim/1.jpg,stim/3.jpg,stim/latef.jpg,AB,2,4,0,40,40,12,,,,,,,,,,,,,,,,,,2,0,0.982954523069,,,,,,2016_Jan_12_1444,P5,PLC_L_D1S1,NHGY,60.0231154082,
stim/negf.jpg,stim/posf.jpg,stim/2.jpg,stim/6.jpg,stim/latef.jpg,EF,2,4,0,41,41,56,,,,,,,,,,,,,,,,,,4,1,0.899706343162,,,,,,2016_Jan_12_1444,P5,PLC_L_D1S1,NHGY,60.0231154082,
stim/posf.jpg,stim/negf.jpg,stim/1.jpg,stim/3.jpg,stim/latef.jpg,AB,2,4,0,42,42,15,,,,,,,,,,,,,,,,,,2,0,0.982987506156,,,,,,2016_Jan_12_1444,P5,PLC_L_D1S1,NHGY,60.0231154082,
stim/posf.jpg,stim/negf.jpg,stim/4.jpg,stim/5.jpg,stim/latef.jpg,CD,2,4,0,43,43,36,,,,,,,,,,,,,,,,,,4,1,0.899704222885,,,,,,2016_Jan_12_1444,P5,PLC_L_D1S1,NHGY,60.0231154082,
stim/negf.jpg,stim/posf.jpg,stim/2.jpg,stim/6.jpg,stim/latef.jpg,EF,2,4,0,44,44,58,,,,,,,,,,,,,,,,,,4,1,0.883025289188,,,,,,2016_Jan_12_1444,P5,PLC_L_D1S1,NHGY,60.0231154082,
stim/posf.jpg,stim/negf.jpg,stim/1.jpg,stim/3.jpg,stim/latef.jpg,AB,2,4,0,45,45,13,,,,,,,,,,,,,,,,,,4,1,1.04964418597,,,,,,2016_Jan_12_1444,P5,PLC_L_D1S1,NHGY,60.0231154082,
stim/posf.jpg,stim/negf.jpg,stim/4.jpg,stim/5.jpg,stim/latef.jpg,CD,2,4,0,46,46,31,,,,,,,,,,,,,,,,,,4,1,0.949633190603,,,,,,2016_Jan_12_1444,P5,PLC_L_D1S1,NHGY,60.0231154082,
stim/posf.jpg,stim/negf.jpg,stim/3.jpg,stim/1.jpg,stim/latef.jpg,AB,1,2,0,47,47,0,,,,,,,,,,,,,,,,,,2,1,1.03296611843,,,,,,2016_Jan_12_1444,P5,PLC_L_D1S1,NHGY,60.0231154082,
stim/negf.jpg,stim/posf.jpg,stim/5.jpg,stim/4.jpg,stim/latef.jpg,CD,1,2,0,48,48,29,,,,,,,,,,,,,,,,,,2,1,1.14957091762,,,,,,2016_Jan_12_1444,P5,PLC_L_D1S1,NHGY,60.0231154082,
stim/posf.jpg,stim/negf.jpg,stim/3.jpg,stim/1.jpg,stim/latef.jpg,AB,1,2,0,49,49,7,,,,,,,,,,,,,,,,,,2,1,1.03299199182,,,,,,2016_Jan_12_1444,P5,PLC_L_D1S1,NHGY,60.0231154082,
stim/posf.jpg,stim/negf.jpg,stim/3.jpg,stim/1.jpg,stim/latef.jpg,AB,1,2,0,50,50,5,,,,,,,,,,,,,,,,,,2,1,0.799724736939,,,,,,2016_Jan_12_1444,P5,PLC_L_D1S1,NHGY,60.0231154082,
stim/negf.jpg,stim/posf.jpg,stim/4.jpg,stim/5.jpg,stim/latef.jpg,CD,2,4,0,51,51,39,,,,,,,,,,,,,,,,,,4,1,1.01635557794,,,,,,2016_Jan_12_1444,P5,PLC_L_D1S1,NHGY,60.0231154082,
stim/negf.jpg,stim/posf.jpg,stim/4.jpg,stim/5.jpg,stim/latef.jpg,CD,2,4,0,52,52,38,,,,,,,,,,,,,,,,,,4,1,0.766410174321,,,,,,2016_Jan_12_1444,P5,PLC_L_D1S1,NHGY,60.0231154082,
stim/posf.jpg,stim/negf.jpg,stim/1.jpg,stim/3.jpg,stim/latef.jpg,AB,2,4,0,53,53,17,,,,,,,,,,,,,,,,,,4,1,0.932943369812,,,,,,2016_Jan_12_1444,P5,PLC_L_D1S1,NHGY,60.0231154082,
stim/negf.jpg,stim/posf.jpg,stim/6.jpg,stim/2.jpg,stim/latef.jpg,EF,1,2,0,54,54,46,,,,,,,,,,,,,,,,,,4,0,0.583136824773,,,,,,2016_Jan_12_1444,P5,PLC_L_D1S1,NHGY,60.0231154082,
stim/posf.jpg,stim/negf.jpg,stim/6.jpg,stim/2.jpg,stim/latef.jpg,EF,1,2,0,55,55,45,,,,,,,,,,,,,,,,,,4,0,0.633167322173,,,,,,2016_Jan_12_1444,P5,PLC_L_D1S1,NHGY,60.0231154082,
stim/posf.jpg,stim/negf.jpg,stim/6.jpg,stim/2.jpg,stim/latef.jpg,EF,1,2,0,56,56,43,,,,,,,,,,,,,,,,,,2,1,0.949646453611,,,,,,2016_Jan_12_1444,P5,PLC_L_D1S1,NHGY,60.0231154082,
stim/posf.jpg,stim/negf.jpg,stim/1.jpg,stim/3.jpg,stim/latef.jpg,AB,2,4,0,57,57,16,,,,,,,,,,,,,,,,,,2,0,0.816372052947,,,,,,2016_Jan_12_1444,P5,PLC_L_D1S1,NHGY,60.0231154082,
stim/posf.jpg,stim/negf.jpg,stim/5.jpg,stim/4.jpg,stim/latef.jpg,CD,1,2,0,58,58,22,,,,,,,,,,,,,,,,,,4,0,0.916371264986,,,,,,2016_Jan_12_1444,P5,PLC_L_D1S1,NHGY,60.0231154082,
stim/negf.jpg,stim/posf.jpg,stim/2.jpg,stim/6.jpg,stim/latef.jpg,EF,2,4,0,59,59,59,,,,,,,,,,,,,,,,,,4,1,1.16625891287,,,,,,2016_Jan_12_1444,P5,PLC_L_D1S1,NHGY,60.0231154082,
,,,,,,,,,,,,,,,,,,,,,,,,,,,,,,,,0.9984375,0.47265625,1,0,0,2016_Jan_12_1444,P5,PLC_L_D1S1,NHGY,60.0231154082,
stim/posf.jpg,stim/negf.jpg,stim/5.jpg,stim/4.jpg,stim/latef.jpg,CD,1,2,,,,,0,0,0,21,,,,,,,,,,,,,,4,0,0.883014381041,,,,,,2016_Jan_12_1444,P5,PLC_L_D1S1,NHGY,60.0231154082,
stim/posf.jpg,stim/negf.jpg,stim/5.jpg,stim/4.jpg,stim/latef.jpg,CD,1,2,,,,,0,1,1,24,,,,,,,,,,,,,,2,1,0.899732787976,,,,,,2016_Jan_12_1444,P5,PLC_L_D1S1,NHGY,60.0231154082,
stim/negf.jpg,stim/posf.jpg,stim/4.jpg,stim/5.jpg,stim/latef.jpg,CD,2,4,,,,,0,2,2,37,,,,,,,,,,,,,,4,1,0.71645437683,,,,,,2016_Jan_12_1444,P5,PLC_L_D1S1,NHGY,60.0231154082,
stim/negf.jpg,stim/posf.jpg,stim/6.jpg,stim/2.jpg,stim/latef.jpg,EF,1,2,,,,,0,3,3,48,,,,,,,,,,,,,,2,1,0.699778309267,,,,,,2016_Jan_12_1444,P5,PLC_L_D1S1,NHGY,60.0231154082,
stim/posf.jpg,stim/negf.jpg,stim/3.jpg,stim/1.jpg,stim/latef.jpg,AB,1,2,,,,,0,4,4,0,,,,,,,,,,,,,,2,1,0.833055389601,,,,,,2016_Jan_12_1444,P5,PLC_L_D1S1,NHGY,60.0231154082,
stim/posf.jpg,stim/negf.jpg,stim/1.jpg,stim/3.jpg,stim/latef.jpg,AB,2,4,,,,,0,5,5,14,,,,,,,,,,,,,,4,1,0.566486065195,,,,,,2016_Jan_12_1444,P5,PLC_L_D1S1,NHGY,60.0231154082,
stim/negf.jpg,stim/posf.jpg,stim/1.jpg,stim/3.jpg,stim/latef.jpg,AB,2,4,,,,,0,6,6,18,,,,,,,,,,,,,,4,1,0.949685433623,,,,,,2016_Jan_12_1444,P5,PLC_L_D1S1,NHGY,60.0231154082,
stim/posf.jpg,stim/negf.jpg,stim/1.jpg,stim/3.jpg,stim/latef.jpg,AB,2,4,,,,,0,7,7,10,,,,,,,,,,,,,,4,1,0.716403493193,,,,,,2016_Jan_12_1444,P5,PLC_L_D1S1,NHGY,60.0231154082,
stim/posf.jpg,stim/negf.jpg,stim/1.jpg,stim/3.jpg,stim/latef.jpg,AB,2,4,,,,,0,8,8,15,,,,,,,,,,,,,,4,1,0.833040024361,,,,,,2016_Jan_12_1444,P5,PLC_L_D1S1,NHGY,60.0231154082,
stim/posf.jpg,stim/negf.jpg,stim/1.jpg,stim/3.jpg,stim/latef.jpg,AB,2,4,,,,,0,9,9,12,,,,,,,,,,,,,,4,1,0.583186863306,,,,,,2016_Jan_12_1444,P5,PLC_L_D1S1,NHGY,60.0231154082,
stim/negf.jpg,stim/posf.jpg,stim/2.jpg,stim/6.jpg,stim/latef.jpg,EF,2,4,,,,,0,10,10,56,,,,,,,,,,,,,,2,0,1.0162880148,,,,,,2016_Jan_12_1444,P5,PLC_L_D1S1,NHGY,60.0231154082,
stim/posf.jpg,stim/negf.jpg,stim/4.jpg,stim/5.jpg,stim/latef.jpg,CD,2,4,,,,,0,11,11,36,,,,,,,,,,,,,,4,1,0.883073511201,,,,,,2016_Jan_12_1444,P5,PLC_L_D1S1,NHGY,60.0231154082,
stim/negf.jpg,stim/posf.jpg,stim/6.jpg,stim/2.jpg,stim/latef.jpg,EF,1,2,,,,,0,12,12,46,,,,,,,,,,,,,,4,0,0.866360268117,,,,,,2016_Jan_12_1444,P5,PLC_L_D1S1,NHGY,60.0231154082,
stim/posf.jpg,stim/negf.jpg,stim/1.jpg,stim/3.jpg,stim/latef.jpg,AB,2,4,,,,,0,13,13,16,,,,,,,,,,,,,,4,1,1.11629567185,,,,,,2016_Jan_12_1444,P5,PLC_L_D1S1,NHGY,60.0231154082,
stim/posf.jpg,stim/negf.jpg,stim/6.jpg,stim/2.jpg,stim/latef.jpg,EF,1,2,,,,,0,14,14,45,,,,,,,,,,,,,,4,0,0.88301360511,,,,,,2016_Jan_12_1444,P5,PLC_L_D1S1,NHGY,60.0231154082,
stim/posf.jpg,stim/negf.jpg,stim/1.jpg,stim/3.jpg,stim/latef.jpg,AB,2,4,,,,,0,15,15,13,,,,,,,,,,,,,,4,1,0.916361165851,,,,,,2016_Jan_12_1444,P5,PLC_L_D1S1,NHGY,60.0231154082,
stim/posf.jpg,stim/negf.jpg,stim/5.jpg,stim/4.jpg,stim/latef.jpg,CD,1,2,,,,,0,16,16,25,,,,,,,,,,,,,,2,1,0.899675681853,,,,,,2016_Jan_12_1444,P5,PLC_L_D1S1,NHGY,60.0231154082,
stim/posf.jpg,stim/negf.jpg,stim/6.jpg,stim/2.jpg,stim/latef.jpg,EF,1,2,,,,,0,17,17,40,,,,,,,,,,,,,,4,0,0.899754977199,,,,,,2016_Jan_12_1444,P5,PLC_L_D1S1,NHGY,60.0231154082,
stim/posf.jpg,stim/negf.jpg,stim/6.jpg,stim/2.jpg,stim/latef.jpg,EF,1,2,,,,,0,18,18,44,,,,,,,,,,,,,,2,1,0.733095605689,,,,,,2016_Jan_12_1444,P5,PLC_L_D1S1,NHGY,60.0231154082,
stim/posf.jpg,stim/negf.jpg,stim/4.jpg,stim/5.jpg,stim/latef.jpg,CD,2,4,,,,,0,19,19,32,,,,,,,,,,,,,,4,1,0.583131101529,,,,,,2016_Jan_12_1444,P5,PLC_L_D1S1,NHGY,60.0231154082,
stim/posf.jpg,stim/negf.jpg,stim/1.jpg,stim/3.jpg,stim/latef.jpg,AB,2,4,,,,,0,20,20,11,,,,,,,,,,,,,,4,1,0.683113441578,,,,,,2016_Jan_12_1444,P5,PLC_L_D1S1,NHGY,60.0231154082,
stim/posf.jpg,stim/negf.jpg,stim/5.jpg,stim/4.jpg,stim/latef.jpg,CD,1,2,,,,,0,21,21,23,,,,,,,,,,,,,,2,1,0.883038934147,,,,,,2016_Jan_12_1444,P5,PLC_L_D1S1,NHGY,60.0231154082,
stim/posf.jpg,stim/negf.jpg,stim/2.jpg,stim/6.jpg,stim/latef.jpg,EF,2,4,,,,,0,22,22,53,,,,,,,,,,,,,,2,0,0.766430550032,,,,,,2016_Jan_12_1444,P5,PLC_L_D1S1,NHGY,60.0231154082,
stim/posf.jpg,stim/negf.jpg,stim/1.jpg,stim/3.jpg,stim/latef.jpg,AB,2,4,,,,,0,23,23,17,,,,,,,,,,,,,,4,1,0.783118021977,,,,,,2016_Jan_12_1444,P5,PLC_L_D1S1,NHGY,60.0231154082,
stim/posf.jpg,stim/negf.jpg,stim/3.jpg,stim/1.jpg,stim/latef.jpg,AB,1,2,,,,,0,24,24,3,,,,,,,,,,,,,,2,1,0.882965665801,,,,,,2016_Jan_12_1444,P5,PLC_L_D1S1,NHGY,60.0231154082,
stim/negf.jpg,stim/posf.jpg,stim/6.jpg,stim/2.jpg,stim/latef.jpg,EF,1,2,,,,,0,25,25,49,,,,,,,,,,,,,,2,1,0.69976488987,,,,,,2016_Jan_12_1444,P5,PLC_L_D1S1,NHGY,60.0231154082,
stim/posf.jpg,stim/negf.jpg,stim/2.jpg,stim/6.jpg,stim/latef.jpg,EF,2,4,,,,,0,26,26,54,,,,,,,,,,,,,,4,1,0.616464241381,,,,,,2016_Jan_12_1444,P5,PLC_L_D1S1,NHGY,60.0231154082,
stim/negf.jpg,stim/posf.jpg,stim/2.jpg,stim/6.jpg,stim/latef.jpg,EF,2,4,,,,,0,27,27,58,,,,,,,,,,,,,,4,1,0.649710699503,,,,,,2016_Jan_12_1444,P5,PLC_L_D1S1,NHGY,60.0231154082,
stim/posf.jpg,stim/negf.jpg,stim/2.jpg,stim/6.jpg,stim/latef.jpg,EF,2,4,,,,,0,28,28,51,,,,,,,,,,,,,,4,1,0.666451566336,,,,,,2016_Jan_12_1444,P5,PLC_L_D1S1,NHGY,60.0231154082,
stim/negf.jpg,stim/posf.jpg,stim/4.jpg,stim/5.jpg,stim/latef.jpg,CD,2,4,,,,,0,29,29,39,,,,,,,,,,,,,,4,1,0.816401733815,,,,,,2016_Jan_12_1444,P5,PLC_L_D1S1,NHGY,60.0231154082,
stim/negf.jpg,stim/posf.jpg,stim/4.jpg,stim/5.jpg,stim/latef.jpg,CD,2,4,,,,,0,30,30,38,,,,,,,,,,,,,,4,1,0.699830480108,,,,,,2016_Jan_12_1444,P5,PLC_L_D1S1,NHGY,60.0231154082,
stim/negf.jpg,stim/posf.jpg,stim/5.jpg,stim/4.jpg,stim/latef.jpg,CD,1,2,,,,,0,31,31,27,,,,,,,,,,,,,,2,1,0.949675190129,,,,,,2016_Jan_12_1444,P5,PLC_L_D1S1,NHGY,60.0231154082,
stim/negf.jpg,stim/posf.jpg,stim/6.jpg,stim/2.jpg,stim/latef.jpg,EF,1,2,,,,,0,32,32,47,,,,,,,,,,,,,,2,1,0.749770470258,,,,,,2016_Jan_12_1444,P5,PLC_L_D1S1,NHGY,60.0231154082,
stim/posf.jpg,stim/negf.jpg,stim/5.jpg,stim/4.jpg,stim/latef.jpg,CD,1,2,,,,,0,33,33,22,,,,,,,,,,,,,,2,1,0.88303991158,,,,,,2016_Jan_12_1444,P5,PLC_L_D1S1,NHGY,60.0231154082,
stim/posf.jpg,stim/negf.jpg,stim/3.jpg,stim/1.jpg,stim/latef.jpg,AB,1,2,,,,,0,34,34,1,,,,,,,,,,,,,,2,1,0.866417166723,,,,,,2016_Jan_12_1444,P5,PLC_L_D1S1,NHGY,60.0231154082,
stim/posf.jpg,stim/negf.jpg,stim/2.jpg,stim/6.jpg,stim/latef.jpg,EF,2,4,,,,,0,35,35,50,,,,,,,,,,,,,,4,1,0.499834065029,,,,,,2016_Jan_12_1444,P5,PLC_L_D1S1,NHGY,60.0231154082,
stim/posf.jpg,stim/negf.jpg,stim/6.jpg,stim/2.jpg,stim/latef.jpg,EF,1,2,,,,,0,36,36,42,,,,,,,,,,,,,,2,1,0.71641819378,,,,,,2016_Jan_12_1444,P5,PLC_L_D1S1,NHGY,60.0231154082,
stim/posf.jpg,stim/negf.jpg,stim/5.jpg,stim/4.jpg,stim/latef.jpg,CD,1,2,,,,,0,37,37,20,,,,,,,,,,,,,,2,1,0.783082067496,,,,,,2016_Jan_12_1444,P5,PLC_L_D1S1,NHGY,60.0231154082,
stim/posf.jpg,stim/negf.jpg,stim/3.jpg,stim/1.jpg,stim/latef.jpg,AB,1,2,,,,,0,38,38,4,,,,,,,,,,,,,,2,1,0.99962377868,,,,,,2016_Jan_12_1444,P5,PLC_L_D1S1,NHGY,60.0231154082,
stim/posf.jpg,stim/negf.jpg,stim/4.jpg,stim/5.jpg,stim/latef.jpg,CD,2,4,,,,,0,39,39,33,,,,,,,,,,,,,,4,1,0.733084811825,,,,,,2016_Jan_12_1444,P5,PLC_L_D1S1,NHGY,60.0231154082,
stim/negf.jpg,stim/posf.jpg,stim/1.jpg,stim/3.jpg,stim/latef.jpg,AB,2,4,,,,,0,40,40,19,,,,,,,,,,,,,,4,1,0.933013480299,,,,,,2016_Jan_12_1444,P5,PLC_L_D1S1,NHGY,60.0231154082,
stim/posf.jpg,stim/negf.jpg,stim/6.jpg,stim/2.jpg,stim/latef.jpg,EF,1,2,,,,,0,41,41,43,,,,,,,,,,,,,,2,1,0.733063795521,,,,,,2016_Jan_12_1444,P5,PLC_L_D1S1,NHGY,60.0231154082,
stim/posf.jpg,stim/negf.jpg,stim/3.jpg,stim/1.jpg,stim/latef.jpg,AB,1,2,,,,,0,42,42,7,,,,,,,,,,,,,,2,1,0.816368140209,,,,,,2016_Jan_12_1444,P5,PLC_L_D1S1,NHGY,60.0231154082,
stim/posf.jpg,stim/negf.jpg,stim/2.jpg,stim/6.jpg,stim/latef.jpg,EF,2,4,,,,,0,43,43,55,,,,,,,,,,,,,,4,1,0.982965220693,,,,,,2016_Jan_12_1444,P5,PLC_L_D1S1,NHGY,60.0231154082,
stim/negf.jpg,stim/posf.jpg,stim/2.jpg,stim/6.jpg,stim/latef.jpg,EF,2,4,,,,,0,44,44,59,,,,,,,,,,,,,,4,1,0.533124763254,,,,,,2016_Jan_12_1444,P5,PLC_L_D1S1,NHGY,60.0231154082,
stim/negf.jpg,stim/posf.jpg,stim/3.jpg,stim/1.jpg,stim/latef.jpg,AB,1,2,,,,,0,45,45,9,,,,,,,,,,,,,,2,1,1.01625411743,,,,,,2016_Jan_12_1444,P5,PLC_L_D1S1,NHGY,60.0231154082,
stim/posf.jpg,stim/negf.jpg,stim/4.jpg,stim/5.jpg,stim/latef.jpg,CD,2,4,,,,,0,46,46,34,,,,,,,,,,,,,,4,1,0.916359632034,,,,,,2016_Jan_12_1444,P5,PLC_L_D1S1,NHGY,60.0231154082,
stim/negf.jpg,stim/posf.jpg,stim/5.jpg,stim/4.jpg,stim/latef.jpg,CD,1,2,,,,,0,47,47,28,,,,,,,,,,,,,,2,1,0.933002539069,,,,,,2016_Jan_12_1444,P5,PLC_L_D1S1,NHGY,60.0231154082,
stim/posf.jpg,stim/negf.jpg,stim/4.jpg,stim/5.jpg,stim/latef.jpg,CD,2,4,,,,,0,48,48,31,,,,,,,,,,,,,,2,0,0.833029976353,,,,,,2016_Jan_12_1444,P5,PLC_L_D1S1,NHGY,60.0231154082,
stim/negf.jpg,stim/posf.jpg,stim/3.jpg,stim/1.jpg,stim/latef.jpg,AB,1,2,,,,,0,49,49,8,,,,,,,,,,,,,,2,1,1.09963102672,,,,,,2016_Jan_12_1444,P5,PLC_L_D1S1,NHGY,60.0231154082,
stim/posf.jpg,stim/negf.jpg,stim/5.jpg,stim/4.jpg,stim/latef.jpg,CD,1,2,,,,,0,50,50,26,,,,,,,,,,,,,,2,1,0.866383118987,,,,,,2016_Jan_12_1444,P5,PLC_L_D1S1,NHGY,60.0231154082,
stim/posf.jpg,stim/negf.jpg,stim/4.jpg,stim/5.jpg,stim/latef.jpg,CD,2,4,,,,,0,51,51,30,,,,,,,,,,,,,,4,1,0.883077556268,,,,,,2016_Jan_12_1444,P5,PLC_L_D1S1,NHGY,60.0231154082,
stim/posf.jpg,stim/negf.jpg,stim/3.jpg,stim/1.jpg,stim/latef.jpg,AB,1,2,,,,,0,52,52,5,,,,,,,,,,,,,,2,1,0.899706267975,,,,,,2016_Jan_12_1444,P5,PLC_L_D1S1,NHGY,60.0231154082,
stim/negf.jpg,stim/posf.jpg,stim/5.jpg,stim/4.jpg,stim/latef.jpg,CD,1,2,,,,,0,53,53,29,,,,,,,,,,,,,,2,1,0.666441867197,,,,,,2016_Jan_12_1444,P5,PLC_L_D1S1,NHGY,60.0231154082,
stim/posf.jpg,stim/negf.jpg,stim/2.jpg,stim/6.jpg,stim/latef.jpg,EF,2,4,,,,,0,54,54,52,,,,,,,,,,,,,,4,1,0.899636521393,,,,,,2016_Jan_12_1444,P5,PLC_L_D1S1,NHGY,60.0231154082,
stim/posf.jpg,stim/negf.jpg,stim/6.jpg,stim/2.jpg,stim/latef.jpg,EF,1,2,,,,,0,55,55,41,,,,,,,,,,,,,,2,1,0.633116925749,,,,,,2016_Jan_12_1444,P5,PLC_L_D1S1,NHGY,60.0231154082,
stim/posf.jpg,stim/negf.jpg,stim/3.jpg,stim/1.jpg,stim/latef.jpg,AB,1,2,,,,,0,56,56,2,,,,,,,,,,,,,,2,1,0.982997370706,,,,,,2016_Jan_12_1444,P5,PLC_L_D1S1,NHGY,60.0231154082,
stim/posf.jpg,stim/negf.jpg,stim/4.jpg,stim/5.jpg,stim/latef.jpg,CD,2,4,,,,,0,57,57,35,,,,,,,,,,,,,,4,1,0.816398181975,,,,,,2016_Jan_12_1444,P5,PLC_L_D1S1,NHGY,60.0231154082,
stim/posf.jpg,stim/negf.jpg,stim/3.jpg,stim/1.jpg,stim/latef.jpg,AB,1,2,,,,,0,58,58,6,,,,,,,,,,,,,,2,1,0.733075726214,,,,,,2016_Jan_12_1444,P5,PLC_L_D1S1,NHGY,60.0231154082,
stim/negf.jpg,stim/posf.jpg,stim/2.jpg,stim/6.jpg,stim/latef.jpg,EF,2,4,,,,,0,59,59,57,,,,,,,,,,,,,,4,1,0.749803390187,,,,,,2016_Jan_12_1444,P5,PLC_L_D1S1,NHGY,60.0231154082,
,,,,,,,,,,,,,,,,,,,,,,,,,,,,,,,,0.9984375,0.47265625,1,0,0,2016_Jan_12_1444,P5,PLC_L_D1S1,NHGY,60.0231154082,
stim/posf.jpg,stim/negf.jpg,stim/6.jpg,stim/2.jpg,stim/latef.jpg,EF,1,2,,,,,,,,,0,0,0,40,,,,,,,,,,2,1,0.766397882731,,,,,,2016_Jan_12_1444,P5,PLC_L_D1S1,NHGY,60.0231154082,
stim/posf.jpg,stim/negf.jpg,stim/1.jpg,stim/3.jpg,stim/latef.jpg,AB,2,4,,,,,,,,,0,1,1,16,,,,,,,,,,4,1,0.783101228182,,,,,,2016_Jan_12_1444,P5,PLC_L_D1S1,NHGY,60.0231154082,
stim/posf.jpg,stim/negf.jpg,stim/3.jpg,stim/1.jpg,stim/latef.jpg,AB,1,2,,,,,,,,,0,2,2,5,,,,,,,,,,2,1,0.633115515239,,,,,,2016_Jan_12_1444,P5,PLC_L_D1S1,NHGY,60.0231154082,
stim/posf.jpg,stim/negf.jpg,stim/6.jpg,stim/2.jpg,stim/latef.jpg,EF,1,2,,,,,,,,,0,3,3,45,,,,,,,,,,2,1,0.599795283512,,,,,,2016_Jan_12_1444,P5,PLC_L_D1S1,NHGY,60.0231154082,
stim/posf.jpg,stim/negf.jpg,stim/4.jpg,stim/5.jpg,stim/latef.jpg,CD,2,4,,,,,,,,,0,4,4,34,,,,,,,,,,4,1,0.74974015481,,,,,,2016_Jan_12_1444,P5,PLC_L_D1S1,NHGY,60.0231154082,
stim/posf.jpg,stim/negf.jpg,stim/3.jpg,stim/1.jpg,stim/latef.jpg,AB,1,2,,,,,,,,,0,5,5,3,,,,,,,,,,2,1,0.683116737781,,,,,,2016_Jan_12_1444,P5,PLC_L_D1S1,NHGY,60.0231154082,
stim/posf.jpg,stim/negf.jpg,stim/2.jpg,stim/6.jpg,stim/latef.jpg,EF,2,4,,,,,,,,,0,6,6,53,,,,,,,,,,2,0,0.883029677109,,,,,,2016_Jan_12_1444,P5,PLC_L_D1S1,NHGY,60.0231154082,
stim/negf.jpg,stim/posf.jpg,stim/2.jpg,stim/6.jpg,stim/latef.jpg,EF,2,4,,,,,,,,,0,7,7,59,,,,,,,,,,4,1,0.749806800675,,,,,,2016_Jan_12_1444,P5,PLC_L_D1S1,NHGY,60.0231154082,
stim/posf.jpg,stim/negf.jpg,stim/2.jpg,stim/6.jpg,stim/latef.jpg,EF,2,4,,,,,,,,,0,8,8,52,,,,,,,,,,4,1,0.7163942542,,,,,,2016_Jan_12_1444,P5,PLC_L_D1S1,NHGY,60.0231154082,
stim/posf.jpg,stim/negf.jpg,stim/1.jpg,stim/3.jpg,stim/latef.jpg,AB,2,4,,,,,,,,,0,9,9,11,,,,,,,,,,4,1,0.899721392616,,,,,,2016_Jan_12_1444,P5,PLC_L_D1S1,NHGY,60.0231154082,
stim/negf.jpg,stim/posf.jpg,stim/6.jpg,stim/2.jpg,stim/latef.jpg,EF,1,2,,,,,,,,,0,10,10,48,,,,,,,,,,2,1,0.649725559486,,,,,,2016_Jan_12_1444,P5,PLC_L_D1S1,NHGY,60.0231154082,
stim/posf.jpg,stim/negf.jpg,stim/4.jpg,stim/5.jpg,stim/latef.jpg,CD,2,4,,,,,,,,,0,11,11,31,,,,,,,,,,4,1,0.733010743488,,,,,,2016_Jan_12_1444,P5,PLC_L_D1S1,NHGY,60.0231154082,
stim/posf.jpg,stim/negf.jpg,stim/3.jpg,stim/1.jpg,stim/latef.jpg,AB,1,2,,,,,,,,,0,12,12,0,,,,,,,,,,2,1,0.86633391052,,,,,,2016_Jan_12_1444,P5,PLC_L_D1S1,NHGY,60.0231154082,
stim/posf.jpg,stim/negf.jpg,stim/1.jpg,stim/3.jpg,stim/latef.jpg,AB,2,4,,,,,,,,,0,13,13,14,,,,,,,,,,4,1,0.666449927257,,,,,,2016_Jan_12_1444,P5,PLC_L_D1S1,NHGY,60.0231154082,
stim/negf.jpg,stim/posf.jpg,stim/2.jpg,stim/6.jpg,stim/latef.jpg,EF,2,4,,,,,,,,,0,14,14,58,,,,,,,,,,4,1,0.749734630061,,,,,,2016_Jan_12_1444,P5,PLC_L_D1S1,NHGY,60.0231154082,
stim/posf.jpg,stim/negf.jpg,stim/2.jpg,stim/6.jpg,stim/latef.jpg,EF,2,4,,,,,,,,,0,15,15,54,,,,,,,,,,2,0,0.88303885896,,,,,,2016_Jan_12_1444,P5,PLC_L_D1S1,NHGY,60.0231154082,
stim/negf.jpg,stim/posf.jpg,stim/3.jpg,stim/1.jpg,stim/latef.jpg,AB,1,2,,,,,,,,,0,16,16,9,,,,,,,,,,2,1,0.799700093608,,,,,,2016_Jan_12_1444,P5,PLC_L_D1S1,NHGY,60.0231154082,
stim/posf.jpg,stim/negf.jpg,stim/3.jpg,stim/1.jpg,stim/latef.jpg,AB,1,2,,,,,,,,,0,17,17,6,,,,,,,,,,4,0,0.749738269117,,,,,,2016_Jan_12_1444,P5,PLC_L_D1S1,NHGY,60.0231154082,
stim/posf.jpg,stim/negf.jpg,stim/6.jpg,stim/2.jpg,stim/latef.jpg,EF,1,2,,,,,,,,,0,18,18,42,,,,,,,,,,2,1,0.799696722218,,,,,,2016_Jan_12_1444,P5,PLC_L_D1S1,NHGY,60.0231154082,
stim/posf.jpg,stim/negf.jpg,stim/1.jpg,stim/3.jpg,stim/latef.jpg,AB,2,4,,,,,,,,,0,19,19,10,,,,,,,,,,4,1,0.916328345169,,,,,,2016_Jan_12_1444,P5,PLC_L_D1S1,NHGY,60.0231154082,
stim/posf.jpg,stim/negf.jpg,stim/1.jpg,stim/3.jpg,stim/latef.jpg,AB,2,4,,,,,,,,,0,20,20,15,,,,,,,,,,4,1,0.716430410183,,,,,,2016_Jan_12_1444,P5,PLC_L_D1S1,NHGY,60.0231154082,
stim/posf.jpg,stim/negf.jpg,stim/5.jpg,stim/4.jpg,stim/latef.jpg,CD,1,2,,,,,,,,,0,21,21,26,,,,,,,,,,2,1,0.93302675233,,,,,,2016_Jan_12_1444,P5,PLC_L_D1S1,NHGY,60.0231154082,
stim/posf.jpg,stim/negf.jpg,stim/4.jpg,stim/5.jpg,stim/latef.jpg,CD,2,4,,,,,,,,,0,22,22,30,,,,,,,,,,4,1,0.783066714285,,,,,,2016_Jan_12_1444,P5,PLC_L_D1S1,NHGY,60.0231154082,
stim/posf.jpg,stim/negf.jpg,stim/3.jpg,stim/1.jpg,stim/latef.jpg,AB,1,2,,,,,,,,,0,23,23,7,,,,,,,,,,2,1,0.883001232317,,,,,,2016_Jan_12_1444,P5,PLC_L_D1S1,NHGY,60.0231154082,
stim/negf.jpg,stim/posf.jpg,stim/4.jpg,stim/5.jpg,stim/latef.jpg,CD,2,4,,,,,,,,,0,24,24,37,,,,,,,,,,4,1,0.816391833175,,,,,,2016_Jan_12_1444,P5,PLC_L_D1S1,NHGY,60.0231154082,
stim/posf.jpg,stim/negf.jpg,stim/5.jpg,stim/4.jpg,stim/latef.jpg,CD,1,2,,,,,,,,,0,25,25,25,,,,,,,,,,2,1,0.749768079307,,,,,,2016_Jan_12_1444,P5,PLC_L_D1S1,NHGY,60.0231154082,
stim/posf.jpg,stim/negf.jpg,stim/2.jpg,stim/6.jpg,stim/latef.jpg,EF,2,4,,,,,,,,,0,26,26,51,,,,,,,,,,4,1,1.06631532426,,,,,,2016_Jan_12_1444,P5,PLC_L_D1S1,NHGY,60.0231154082,
stim/negf.jpg,stim/posf.jpg,stim/5.jpg,stim/4.jpg,stim/latef.jpg,CD,1,2,,,,,,,,,0,27,27,27,,,,,,,,,,2,1,0.766352502791,,,,,,2016_Jan_12_1444,P5,PLC_L_D1S1,NHGY,60.0231154082,
stim/posf.jpg,stim/negf.jpg,stim/2.jpg,stim/6.jpg,stim/latef.jpg,EF,2,4,,,,,,,,,0,28,28,50,,,,,,,,,,4,1,0.749765020695,,,,,,2016_Jan_12_1444,P5,PLC_L_D1S1,NHGY,60.0231154082,
stim/posf.jpg,stim/negf.jpg,stim/4.jpg,stim/5.jpg,stim/latef.jpg,CD,2,4,,,,,,,,,0,29,29,33,,,,,,,,,,4,1,0.849720976079,,,,,,2016_Jan_12_1444,P5,PLC_L_D1S1,NHGY,60.0231154082,
stim/negf.jpg,stim/posf.jpg,stim/1.jpg,stim/3.jpg,stim/latef.jpg,AB,2,4,,,,,,,,,0,30,30,19,,,,,,,,,,4,1,0.916344907388,,,,,,2016_Jan_12_1444,P5,PLC_L_D1S1,NHGY,60.0231154082,
stim/posf.jpg,stim/negf.jpg,stim/5.jpg,stim/4.jpg,stim/latef.jpg,CD,1,2,,,,,,,,,0,31,31,22,,,,,,,,,,2,1,0.916303653718,,,,,,2016_Jan_12_1444,P5,PLC_L_D1S1,NHGY,60.0231154082,
stim/negf.jpg,stim/posf.jpg,stim/5.jpg,stim/4.jpg,stim/latef.jpg,CD,1,2,,,,,,,,,0,32,32,28,,,,,,,,,,2,1,0.866377840851,,,,,,2016_Jan_12_1444,P5,PLC_L_D1S1,NHGY,60.0231154082,
stim/posf.jpg,stim/negf.jpg,stim/6.jpg,stim/2.jpg,stim/latef.jpg,EF,1,2,,,,,,,,,0,33,33,44,,,,,,,,,,2,1,0.733122224937,,,,,,2016_Jan_12_1444,P5,PLC_L_D1S1,NHGY,60.0231154082,
stim/negf.jpg,stim/posf.jpg,stim/6.jpg,stim/2.jpg,stim/latef.jpg,EF,1,2,,,,,,,,,0,34,34,49,,,,,,,,,,2,1,0.633116140795,,,,,,2016_Jan_12_1444,P5,PLC_L_D1S1,NHGY,60.0231154082,
stim/posf.jpg,stim/negf.jpg,stim/4.jpg,stim/5.jpg,stim/latef.jpg,CD,2,4,,,,,,,,,0,35,35,35,,,,,,,,,,4,1,0.6497720943,,,,,,2016_Jan_12_1444,P5,PLC_L_D1S1,NHGY,60.0231154082,
stim/posf.jpg,stim/negf.jpg,stim/1.jpg,stim/3.jpg,stim/latef.jpg,AB,2,4,,,,,,,,,0,36,36,17,,,,,,,,,,4,1,0.833046267899,,,,,,2016_Jan_12_1444,P5,PLC_L_D1S1,NHGY,60.0231154082,
stim/posf.jpg,stim/negf.jpg,stim/5.jpg,stim/4.jpg,stim/latef.jpg,CD,1,2,,,,,,,,,0,37,37,24,,,,,,,,,,2,1,0.966348605091,,,,,,2016_Jan_12_1444,P5,PLC_L_D1S1,NHGY,60.0231154082,
stim/negf.jpg,stim/posf.jpg,stim/6.jpg,stim/2.jpg,stim/latef.jpg,EF,1,2,,,,,,,,,0,38,38,47,,,,,,,,,,2,1,0.716358044082,,,,,,2016_Jan_12_1444,P5,PLC_L_D1S1,NHGY,60.0231154082,
stim/posf.jpg,stim/negf.jpg,stim/5.jpg,stim/4.jpg,stim/latef.jpg,CD,1,2,,,,,,,,,0,39,39,23,,,,,,,,,,2,1,1.03295820874,,,,,,2016_Jan_12_1444,P5,PLC_L_D1S1,NHGY,60.0231154082,
stim/posf.jpg,stim/negf.jpg,stim/1.jpg,stim/3.jpg,stim/latef.jpg,AB,2,4,,,,,,,,,0,40,40,13,,,,,,,,,,4,1,1.08296041774,,,,,,2016_Jan_12_1444,P5,PLC_L_D1S1,NHGY,60.0231154082,
stim/posf.jpg,stim/negf.jpg,stim/4.jpg,stim/5.jpg,stim/latef.jpg,CD,2,4,,,,,,,,,0,41,41,32,,,,,,,,,,4,1,0.71648818096,,,,,,2016_Jan_12_1444,P5,PLC_L_D1S1,NHGY,60.0231154082,
stim/negf.jpg,stim/posf.jpg,stim/4.jpg,stim/5.jpg,stim/latef.jpg,CD,2,4,,,,,,,,,0,42,42,39,,,,,,,,,,4,1,0.583165194378,,,,,,2016_Jan_12_1444,P5,PLC_L_D1S1,NHGY,60.0231154082,
stim/posf.jpg,stim/negf.jpg,stim/5.jpg,stim/4.jpg,stim/latef.jpg,CD,1,2,,,,,,,,,0,43,43,20,,,,,,,,,,2,1,0.683153765935,,,,,,2016_Jan_12_1444,P5,PLC_L_D1S1,NHGY,60.0231154082,
stim/negf.jpg,stim/posf.jpg,stim/6.jpg,stim/2.jpg,stim/latef.jpg,EF,1,2,,,,,,,,,0,44,44,46,,,,,,,,,,2,1,0.999716400191,,,,,,2016_Jan_12_1444,P5,PLC_L_D1S1,NHGY,60.0231154082,
stim/negf.jpg,stim/posf.jpg,stim/2.jpg,stim/6.jpg,stim/latef.jpg,EF,2,4,,,,,,,,,0,45,45,56,,,,,,,,,,4,1,0.566431193633,,,,,,2016_Jan_12_1444,P5,PLC_L_D1S1,NHGY,60.0231154082,
stim/posf.jpg,stim/negf.jpg,stim/3.jpg,stim/1.jpg,stim/latef.jpg,AB,1,2,,,,,,,,,0,46,46,4,,,,,,,,,,2,1,0.816398326335,,,,,,2016_Jan_12_1444,P5,PLC_L_D1S1,NHGY,60.0231154082,
stim/posf.jpg,stim/negf.jpg,stim/1.jpg,stim/3.jpg,stim/latef.jpg,AB,2,4,,,,,,,,,0,47,47,12,,,,,,,,,,4,1,0.816405887152,,,,,,2016_Jan_12_1444,P5,PLC_L_D1S1,NHGY,60.0231154082,
stim/negf.jpg,stim/posf.jpg,stim/3.jpg,stim/1.jpg,stim/latef.jpg,AB,1,2,,,,,,,,,0,48,48,8,,,,,,,,,,2,1,1.2162721834,,,,,,2016_Jan_12_1444,P5,PLC_L_D1S1,NHGY,60.0231154082,
stim/negf.jpg,stim/posf.jpg,stim/4.jpg,stim/5.jpg,stim/latef.jpg,CD,2,4,,,,,,,,,0,49,49,38,,,,,,,,,,4,1,0.666448985914,,,,,,2016_Jan_12_1444,P5,PLC_L_D1S1,NHGY,60.0231154082,
stim/posf.jpg,stim/negf.jpg,stim/5.jpg,stim/4.jpg,stim/latef.jpg,CD,1,2,,,,,,,,,0,50,50,21,,,,,,,,,,2,1,0.766409696132,,,,,,2016_Jan_12_1444,P5,PLC_L_D1S1,NHGY,60.0231154082,
stim/posf.jpg,stim/negf.jpg,stim/3.jpg,stim/1.jpg,stim/latef.jpg,AB,1,2,,,,,,,,,0,51,51,2,,,,,,,,,,4,0,0.783116220494,,,,,,2016_Jan_12_1444,P5,PLC_L_D1S1,NHGY,60.0231154082,
stim/posf.jpg,stim/negf.jpg,stim/6.jpg,stim/2.jpg,stim/latef.jpg,EF,1,2,,,,,,,,,0,52,52,41,,,,,,,,,,2,1,0.766342454784,,,,,,2016_Jan_12_1444,P5,PLC_L_D1S1,NHGY,60.0231154082,
stim/posf.jpg,stim/negf.jpg,stim/6.jpg,stim/2.jpg,stim/latef.jpg,EF,1,2,,,,,,,,,0,53,53,43,,,,,,,,,,2,1,0.683080957734,,,,,,2016_Jan_12_1444,P5,PLC_L_D1S1,NHGY,60.0231154082,
stim/posf.jpg,stim/negf.jpg,stim/4.jpg,stim/5.jpg,stim/latef.jpg,CD,2,4,,,,,,,,,0,54,54,36,,,,,,,,,,4,1,0.666461716597,,,,,,2016_Jan_12_1444,P5,PLC_L_D1S1,NHGY,60.0231154082,
stim/posf.jpg,stim/negf.jpg,stim/2.jpg,stim/6.jpg,stim/latef.jpg,EF,2,4,,,,,,,,,0,55,55,55,,,,,,,,,,4,1,0.949643022072,,,,,,2016_Jan_12_1444,P5,PLC_L_D1S1,NHGY,60.0231154082,
stim/negf.jpg,stim/posf.jpg,stim/1.jpg,stim/3.jpg,stim/latef.jpg,AB,2,4,,,,,,,,,0,56,56,18,,,,,,,,,,4,1,0.833047224279,,,,,,2016_Jan_12_1444,P5,PLC_L_D1S1,NHGY,60.0231154082,
stim/negf.jpg,stim/posf.jpg,stim/2.jpg,stim/6.jpg,stim/latef.jpg,EF,2,4,,,,,,,,,0,57,57,57,,,,,,,,,,4,1,0.749736654098,,,,,,2016_Jan_12_1444,P5,PLC_L_D1S1,NHGY,60.0231154082,
stim/negf.jpg,stim/posf.jpg,stim/5.jpg,stim/4.jpg,stim/latef.jpg,CD,1,2,,,,,,,,,0,58,58,29,,,,,,,,,,2,1,0.783112674669,,,,,,2016_Jan_12_1444,P5,PLC_L_D1S1,NHGY,60.0231154082,
stim/posf.jpg,stim/negf.jpg,stim/3.jpg,stim/1.jpg,stim/latef.jpg,AB,1,2,,,,,,,,,0,59,59,1,,,,,,,,,,2,1,0.933079148731,,,,,,2016_Jan_12_1444,P5,PLC_L_D1S1,NHGY,60.0231154082,
,,,,,,,,,,,,,,,,,,,,,,,,,,,,,,,,0.9984375,0.47265625,1,0,0,2016_Jan_12_1444,P5,PLC_L_D1S1,NHGY,60.0231154082,
stim/posf.jpg,stim/negf.jpg,stim/2.jpg,stim/6.jpg,stim/latef.jpg,EF,2,4,,,,,,,,,,,,,0,0,0,55,,,,,,4,1,0.883038016864,,,,,,2016_Jan_12_1444,P5,PLC_L_D1S1,NHGY,60.0231154082,
stim/negf.jpg,stim/posf.jpg,stim/1.jpg,stim/3.jpg,stim/latef.jpg,AB,2,4,,,,,,,,,,,,,0,1,1,19,,,,,,4,1,0.71642267794,,,,,,2016_Jan_12_1444,P5,PLC_L_D1S1,NHGY,60.0231154082,
stim/negf.jpg,stim/posf.jpg,stim/4.jpg,stim/5.jpg,stim/latef.jpg,CD,2,4,,,,,,,,,,,,,0,2,2,38,,,,,,4,1,0.766363597403,,,,,,2016_Jan_12_1444,P5,PLC_L_D1S1,NHGY,60.0231154082,
stim/posf.jpg,stim/negf.jpg,stim/2.jpg,stim/6.jpg,stim/latef.jpg,EF,2,4,,,,,,,,,,,,,0,3,3,53,,,,,,4,1,0.849699120687,,,,,,2016_Jan_12_1444,P5,PLC_L_D1S1,NHGY,60.0231154082,
stim/posf.jpg,stim/negf.jpg,stim/6.jpg,stim/2.jpg,stim/latef.jpg,EF,1,2,,,,,,,,,,,,,0,4,4,42,,,,,,2,1,0.766401645094,,,,,,2016_Jan_12_1444,P5,PLC_L_D1S1,NHGY,60.0231154082,
stim/posf.jpg,stim/negf.jpg,stim/4.jpg,stim/5.jpg,stim/latef.jpg,CD,2,4,,,,,,,,,,,,,0,5,5,36,,,,,,4,1,0.666445007011,,,,,,2016_Jan_12_1444,P5,PLC_L_D1S1,NHGY,60.0231154082,
stim/negf.jpg,stim/posf.jpg,stim/3.jpg,stim/1.jpg,stim/latef.jpg,AB,1,2,,,,,,,,,,,,,0,6,6,9,,,,,,2,1,0.882964655286,,,,,,2016_Jan_12_1444,P5,PLC_L_D1S1,NHGY,60.0231154082,
stim/posf.jpg,stim/negf.jpg,stim/3.jpg,stim/1.jpg,stim/latef.jpg,AB,1,2,,,,,,,,,,,,,0,7,7,4,,,,,,2,1,0.849699337226,,,,,,2016_Jan_12_1444,P5,PLC_L_D1S1,NHGY,60.0231154082,
stim/posf.jpg,stim/negf.jpg,stim/4.jpg,stim/5.jpg,stim/latef.jpg,CD,2,4,,,,,,,,,,,,,0,8,8,34,,,,,,4,1,0.616498695128,,,,,,2016_Jan_12_1444,P5,PLC_L_D1S1,NHGY,60.0231154082,
stim/posf.jpg,stim/negf.jpg,stim/6.jpg,stim/2.jpg,stim/latef.jpg,EF,1,2,,,,,,,,,,,,,0,9,9,44,,,,,,2,1,0.566502750721,,,,,,2016_Jan_12_1444,P5,PLC_L_D1S1,NHGY,60.0231154082,
stim/negf.jpg,stim/posf.jpg,stim/3.jpg,stim/1.jpg,stim/latef.jpg,AB,1,2,,,,,,,,,,,,,0,10,10,8,,,,,,2,1,0.982993701575,,,,,,2016_Jan_12_1444,P5,PLC_L_D1S1,NHGY,60.0231154082,
stim/posf.jpg,stim/negf.jpg,stim/4.jpg,stim/5.jpg,stim/latef.jpg,CD,2,4,,,,,,,,,,,,,0,11,11,31,,,,,,4,1,0.69975892302,,,,,,2016_Jan_12_1444,P5,PLC_L_D1S1,NHGY,60.0231154082,
stim/negf.jpg,stim/posf.jpg,stim/6.jpg,stim/2.jpg,stim/latef.jpg,EF,1,2,,,,,,,,,,,,,0,12,12,48,,,,,,2,1,0.599810693865,,,,,,2016_Jan_12_1444,P5,PLC_L_D1S1,NHGY,60.0231154082,
stim/posf.jpg,stim/negf.jpg,stim/3.jpg,stim/1.jpg,stim/latef.jpg,AB,1,2,,,,,,,,,,,,,0,13,13,1,,,,,,2,1,0.816377562659,,,,,,2016_Jan_12_1444,P5,PLC_L_D1S1,NHGY,60.0231154082,
stim/negf.jpg,stim/posf.jpg,stim/2.jpg,stim/6.jpg,stim/latef.jpg,EF,2,4,,,,,,,,,,,,,0,14,14,56,,,,,,4,1,0.916276959283,,,,,,2016_Jan_12_1444,P5,PLC_L_D1S1,NHGY,60.0231154082,
stim/negf.jpg,stim/posf.jpg,stim/4.jpg,stim/5.jpg,stim/latef.jpg,CD,2,4,,,,,,,,,,,,,0,15,15,39,,,,,,4,1,0.799712111517,,,,,,2016_Jan_12_1444,P5,PLC_L_D1S1,NHGY,60.0231154082,
stim/negf.jpg,stim/posf.jpg,stim/4.jpg,stim/5.jpg,stim/latef.jpg,CD,2,4,,,,,,,,,,,,,0,16,16,37,,,,,,4,1,0.683075032988,,,,,,2016_Jan_12_1444,P5,PLC_L_D1S1,NHGY,60.0231154082,
stim/negf.jpg,stim/posf.jpg,stim/1.jpg,stim/3.jpg,stim/latef.jpg,AB,2,4,,,,,,,,,,,,,0,17,17,18,,,,,,4,1,0.81642473506,,,,,,2016_Jan_12_1444,P5,PLC_L_D1S1,NHGY,60.0231154082,
stim/posf.jpg,stim/negf.jpg,stim/2.jpg,stim/6.jpg,stim/latef.jpg,EF,2,4,,,,,,,,,,,,,0,18,18,54,,,,,,4,1,0.749849425758,,,,,,2016_Jan_12_1444,P5,PLC_L_D1S1,NHGY,60.0231154082,
stim/negf.jpg,stim/posf.jpg,stim/5.jpg,stim/4.jpg,stim/latef.jpg,CD,1,2,,,,,,,,,,,,,0,19,19,27,,,,,,2,1,0.866389434706,,,,,,2016_Jan_12_1444,P5,PLC_L_D1S1,NHGY,60.0231154082,
stim/posf.jpg,stim/negf.jpg,stim/5.jpg,stim/4.jpg,stim/latef.jpg,CD,1,2,,,,,,,,,,,,,0,20,20,26,,,,,,2,1,0.799690550858,,,,,,2016_Jan_12_1444,P5,PLC_L_D1S1,NHGY,60.0231154082,
stim/posf.jpg,stim/negf.jpg,stim/3.jpg,stim/1.jpg,stim/latef.jpg,AB,1,2,,,,,,,,,,,,,0,21,21,5,,,,,,4,0,1.06635321256,,,,,,2016_Jan_12_1444,P5,PLC_L_D1S1,NHGY,60.0231154082,
stim/posf.jpg,stim/negf.jpg,stim/1.jpg,stim/3.jpg,stim/latef.jpg,AB,2,4,,,,,,,,,,,,,0,22,22,10,,,,,,4,1,0.883062203058,,,,,,2016_Jan_12_1444,P5,PLC_L_D1S1,NHGY,60.0231154082,
stim/posf.jpg,stim/negf.jpg,stim/5.jpg,stim/4.jpg,stim/latef.jpg,CD,1,2,,,,,,,,,,,,,0,23,23,22,,,,,,2,1,0.683101901858,,,,,,2016_Jan_12_1444,P5,PLC_L_D1S1,NHGY,60.0231154082,
stim/posf.jpg,stim/negf.jpg,stim/4.jpg,stim/5.jpg,stim/latef.jpg,CD,2,4,,,,,,,,,,,,,0,24,24,35,,,,,,4,1,0.599803999203,,,,,,2016_Jan_12_1444,P5,PLC_L_D1S1,NHGY,60.0231154082,
stim/posf.jpg,stim/negf.jpg,stim/6.jpg,stim/2.jpg,stim/latef.jpg,EF,1,2,,,,,,,,,,,,,0,25,25,41,,,,,,2,1,0.849709800265,,,,,,2016_Jan_12_1444,P5,PLC_L_D1S1,NHGY,60.0231154082,
stim/posf.jpg,stim/negf.jpg,stim/3.jpg,stim/1.jpg,stim/latef.jpg,AB,1,2,,,,,,,,,,,,,0,26,26,7,,,,,,2,1,0.799726141434,,,,,,2016_Jan_12_1444,P5,PLC_L_D1S1,NHGY,60.0231154082,
stim/posf.jpg,stim/negf.jpg,stim/1.jpg,stim/3.jpg,stim/latef.jpg,AB,2,4,,,,,,,,,,,,,0,27,27,15,,,,,,4,1,0.666431524457,,,,,,2016_Jan_12_1444,P5,PLC_L_D1S1,NHGY,60.0231154082,
stim/posf.jpg,stim/negf.jpg,stim/1.jpg,stim/3.jpg,stim/latef.jpg,AB,2,4,,,,,,,,,,,,,0,28,28,13,,,,,,4,1,0.683109210046,,,,,,2016_Jan_12_1444,P5,PLC_L_D1S1,NHGY,60.0231154082,
stim/negf.jpg,stim/posf.jpg,stim/6.jpg,stim/2.jpg,stim/latef.jpg,EF,1,2,,,,,,,,,,,,,0,29,29,47,,,,,,2,1,0.633126522633,,,,,,2016_Jan_12_1444,P5,PLC_L_D1S1,NHGY,60.0231154082,
stim/posf.jpg,stim/negf.jpg,stim/1.jpg,stim/3.jpg,stim/latef.jpg,AB,2,4,,,,,,,,,,,,,0,30,30,12,,,,,,4,1,0.783017313339,,,,,,2016_Jan_12_1444,P5,PLC_L_D1S1,NHGY,60.0231154082,
stim/posf.jpg,stim/negf.jpg,stim/4.jpg,stim/5.jpg,stim/latef.jpg,CD,2,4,,,,,,,,,,,,,0,31,31,33,,,,,,4,1,0.766384709947,,,,,,2016_Jan_12_1444,P5,PLC_L_D1S1,NHGY,60.0231154082,
stim/posf.jpg,stim/negf.jpg,stim/5.jpg,stim/4.jpg,stim/latef.jpg,CD,1,2,,,,,,,,,,,,,0,32,32,20,,,,,,2,1,0.799747250971,,,,,,2016_Jan_12_1444,P5,PLC_L_D1S1,NHGY,60.0231154082,
stim/posf.jpg,stim/negf.jpg,stim/1.jpg,stim/3.jpg,stim/latef.jpg,AB,2,4,,,,,,,,,,,,,0,33,33,11,,,,,,4,1,0.783084984756,,,,,,2016_Jan_12_1444,P5,PLC_L_D1S1,NHGY,60.0231154082,
stim/posf.jpg,stim/negf.jpg,stim/2.jpg,stim/6.jpg,stim/latef.jpg,EF,2,4,,,,,,,,,,,,,0,34,34,50,,,,,,4,1,0.966391371526,,,,,,2016_Jan_12_1444,P5,PLC_L_D1S1,NHGY,60.0231154082,
stim/posf.jpg,stim/negf.jpg,stim/4.jpg,stim/5.jpg,stim/latef.jpg,CD,2,4,,,,,,,,,,,,,0,35,35,30,,,,,,4,1,0.6831318534,,,,,,2016_Jan_12_1444,P5,PLC_L_D1S1,NHGY,60.0231154082,
stim/posf.jpg,stim/negf.jpg,stim/5.jpg,stim/4.jpg,stim/latef.jpg,CD,1,2,,,,,,,,,,,,,0,36,36,25,,,,,,2,1,0.94970645895,,,,,,2016_Jan_12_1444,P5,PLC_L_D1S1,NHGY,60.0231154082,
stim/posf.jpg,stim/negf.jpg,stim/3.jpg,stim/1.jpg,stim/latef.jpg,AB,1,2,,,,,,,,,,,,,0,37,37,2,,,,,,2,1,0.766429289895,,,,,,2016_Jan_12_1444,P5,PLC_L_D1S1,NHGY,60.0231154082,
stim/negf.jpg,stim/posf.jpg,stim/2.jpg,stim/6.jpg,stim/latef.jpg,EF,2,4,,,,,,,,,,,,,0,38,38,57,,,,,,4,1,0.733097548524,,,,,,2016_Jan_12_1444,P5,PLC_L_D1S1,NHGY,60.0231154082,
stim/posf.jpg,stim/negf.jpg,stim/2.jpg,stim/6.jpg,stim/latef.jpg,EF,2,4,,,,,,,,,,,,,0,39,39,51,,,,,,4,1,0.633110769428,,,,,,2016_Jan_12_1444,P5,PLC_L_D1S1,NHGY,60.0231154082,
stim/posf.jpg,stim/negf.jpg,stim/2.jpg,stim/6.jpg,stim/latef.jpg,EF,2,4,,,,,,,,,,,,,0,40,40,52,,,,,,4,1,0.599804811224,,,,,,2016_Jan_12_1444,P5,PLC_L_D1S1,NHGY,60.0231154082,
stim/posf.jpg,stim/negf.jpg,stim/6.jpg,stim/2.jpg,stim/latef.jpg,EF,1,2,,,,,,,,,,,,,0,41,41,43,,,,,,2,1,0.616442070202,,,,,,2016_Jan_12_1444,P5,PLC_L_D1S1,NHGY,60.0231154082,
stim/posf.jpg,stim/negf.jpg,stim/6.jpg,stim/2.jpg,stim/latef.jpg,EF,1,2,,,,,,,,,,,,,0,42,42,40,,,,,,2,1,0.549797582734,,,,,,2016_Jan_12_1444,P5,PLC_L_D1S1,NHGY,60.0231154082,
stim/posf.jpg,stim/negf.jpg,stim/6.jpg,stim/2.jpg,stim/latef.jpg,EF,1,2,,,,,,,,,,,,,0,43,43,45,,,,,,2,1,0.533153208046,,,,,,2016_Jan_12_1444,P5,PLC_L_D1S1,NHGY,60.0231154082,
stim/posf.jpg,stim/negf.jpg,stim/3.jpg,stim/1.jpg,stim/latef.jpg,AB,1,2,,,,,,,,,,,,,0,44,44,3,,,,,,2,1,0.999657751228,,,,,,2016_Jan_12_1444,P5,PLC_L_D1S1,NHGY,60.0231154082,
stim/posf.jpg,stim/negf.jpg,stim/3.jpg,stim/1.jpg,stim/latef.jpg,AB,1,2,,,,,,,,,,,,,0,45,45,6,,,,,,2,1,0.549833182333,,,,,,2016_Jan_12_1444,P5,PLC_L_D1S1,NHGY,60.0231154082,
stim/posf.jpg,stim/negf.jpg,stim/1.jpg,stim/3.jpg,stim/latef.jpg,AB,2,4,,,,,,,,,,,,,0,46,46,16,,,,,,4,1,0.683095038778,,,,,,2016_Jan_12_1444,P5,PLC_L_D1S1,NHGY,60.0231154082,
stim/posf.jpg,stim/negf.jpg,stim/3.jpg,stim/1.jpg,stim/latef.jpg,AB,1,2,,,,,,,,,,,,,0,47,47,0,,,,,,2,1,0.599772285275,,,,,,2016_Jan_12_1444,P5,PLC_L_D1S1,NHGY,60.0231154082,
stim/posf.jpg,stim/negf.jpg,stim/1.jpg,stim/3.jpg,stim/latef.jpg,AB,2,4,,,,,,,,,,,,,0,48,48,14,,,,,,4,1,0.66644186419,,,,,,2016_Jan_12_1444,P5,PLC_L_D1S1,NHGY,60.0231154082,
stim/posf.jpg,stim/negf.jpg,stim/5.jpg,stim/4.jpg,stim/latef.jpg,CD,1,2,,,,,,,,,,,,,0,49,49,24,,,,,,2,1,0.983010366049,,,,,,2016_Jan_12_1444,P5,PLC_L_D1S1,NHGY,60.0231154082,
stim/posf.jpg,stim/negf.jpg,stim/4.jpg,stim/5.jpg,stim/latef.jpg,CD,2,4,,,,,,,,,,,,,0,50,50,32,,,,,,4,1,0.549812075804,,,,,,2016_Jan_12_1444,P5,PLC_L_D1S1,NHGY,60.0231154082,
stim/negf.jpg,stim/posf.jpg,stim/2.jpg,stim/6.jpg,stim/latef.jpg,EF,2,4,,,,,,,,,,,,,0,51,51,58,,,,,,4,1,0.816391072281,,,,,,2016_Jan_12_1444,P5,PLC_L_D1S1,NHGY,60.0231154082,
stim/posf.jpg,stim/negf.jpg,stim/1.jpg,stim/3.jpg,stim/latef.jpg,AB,2,4,,,,,,,,,,,,,0,52,52,17,,,,,,4,1,0.866355474187,,,,,,2016_Jan_12_1444,P5,PLC_L_D1S1,NHGY,60.0231154082,
stim/posf.jpg,stim/negf.jpg,stim/5.jpg,stim/4.jpg,stim/latef.jpg,CD,1,2,,,,,,,,,,,,,0,53,53,23,,,,,,2,1,0.716410377327,,,,,,2016_Jan_12_1444,P5,PLC_L_D1S1,NHGY,60.0231154082,
stim/negf.jpg,stim/posf.jpg,stim/2.jpg,stim/6.jpg,stim/latef.jpg,EF,2,4,,,,,,,,,,,,,0,54,54,59,,,,,,4,1,0.766419190761,,,,,,2016_Jan_12_1444,P5,PLC_L_D1S1,NHGY,60.0231154082,
stim/posf.jpg,stim/negf.jpg,stim/5.jpg,stim/4.jpg,stim/latef.jpg,CD,1,2,,,,,,,,,,,,,0,55,55,21,,,,,,2,1,1.13293426315,,,,,,2016_Jan_12_1444,P5,PLC_L_D1S1,NHGY,60.0231154082,
stim/negf.jpg,stim/posf.jpg,stim/5.jpg,stim/4.jpg,stim/latef.jpg,CD,1,2,,,,,,,,,,,,,0,56,56,29,,,,,,2,1,0.566461800807,,,,,,2016_Jan_12_1444,P5,PLC_L_D1S1,NHGY,60.0231154082,
stim/negf.jpg,stim/posf.jpg,stim/5.jpg,stim/4.jpg,stim/latef.jpg,CD,1,2,,,,,,,,,,,,,0,57,57,28,,,,,,2,1,0.583132325575,,,,,,2016_Jan_12_1444,P5,PLC_L_D1S1,NHGY,60.0231154082,
stim/negf.jpg,stim/posf.jpg,stim/6.jpg,stim/2.jpg,stim/latef.jpg,EF,1,2,,,,,,,,,,,,,0,58,58,46,,,,,,2,1,0.599803310489,,,,,,2016_Jan_12_1444,P5,PLC_L_D1S1,NHGY,60.0231154082,
stim/negf.jpg,stim/posf.jpg,stim/6.jpg,stim/2.jpg,stim/latef.jpg,EF,1,2,,,,,,,,,,,,,0,59,59,49,,,,,,2,1,0.583148214118,,,,,,2016_Jan_12_1444,P5,PLC_L_D1S1,NHGY,60.0231154082,
