fb_corr,fb_incorr,symbol2,symbol1,fb_late,pair,position,correct,block_01.thisRepN,block_01.thisTrialN,block_01.thisN,block_01.thisIndex,block_02.thisRepN,block_02.thisTrialN,block_02.thisN,block_02.thisIndex,block_03.thisRepN,block_03.thisTrialN,block_03.thisN,block_03.thisIndex,block_04.thisRepN,block_04.thisTrialN,block_04.thisN,block_04.thisIndex,mouse.x,mouse.y,mouse.leftButton,mouse.midButton,mouse.rightButton,buttonBox_2.keys,buttonBox_2.corr,buttonBox_2.rt,mouse_2.x,mouse_2.y,mouse_2.leftButton,mouse_2.midButton,mouse_2.rightButton,date,Participant,expName,Group,frameRate,
,,,,,,,,,,,,,,,,,,,,,,,,0.9984375,1.0,1,0,0,,,,,,,,,2016_Okt_05_1505,P6,PLC_L_D1S1,NHGY,60.0186992692,
stim/posf.jpg,stim/negf.jpg,stim/5.jpg,stim/2.jpg,stim/latef.jpg,EF,2,4,0,0,0,50,,,,,,,,,,,,,,,,,,2,0,0.866457960248,,,,,,2016_Okt_05_1505,P6,PLC_L_D1S1,NHGY,60.0186992692,
stim/negf.jpg,stim/posf.jpg,stim/1.jpg,stim/3.jpg,stim/latef.jpg,CD,2,4,0,1,1,39,,,,,,,,,,,,,,,,,,2,0,0.833060424131,,,,,,2016_Okt_05_1505,P6,PLC_L_D1S1,NHGY,60.0186992692,
stim/posf.jpg,stim/negf.jpg,stim/3.jpg,stim/1.jpg,stim/latef.jpg,CD,1,2,0,2,2,26,,,,,,,,,,,,,,,,,,2,1,0.816377298001,,,,,,2016_Okt_05_1505,P6,PLC_L_D1S1,NHGY,60.0186992692,
stim/negf.jpg,stim/posf.jpg,stim/5.jpg,stim/2.jpg,stim/latef.jpg,EF,2,4,0,3,3,56,,,,,,,,,,,,,,,,,,4,1,1.23292285877,,,,,,2016_Okt_05_1505,P6,PLC_L_D1S1,NHGY,60.0186992692,
stim/posf.jpg,stim/negf.jpg,stim/2.jpg,stim/5.jpg,stim/latef.jpg,EF,1,2,0,4,4,41,,,,,,,,,,,,,,,,,,4,0,1.09963044928,,,,,,2016_Okt_05_1505,P6,PLC_L_D1S1,NHGY,60.0186992692,
stim/posf.jpg,stim/negf.jpg,stim/1.jpg,stim/3.jpg,stim/latef.jpg,CD,2,4,0,5,5,32,,,,,,,,,,,,,,,,,,2,0,1.01631519043,,,,,,2016_Okt_05_1505,P6,PLC_L_D1S1,NHGY,60.0186992692,
stim/posf.jpg,stim/negf.jpg,stim/3.jpg,stim/1.jpg,stim/latef.jpg,CD,1,2,0,6,6,22,,,,,,,,,,,,,,,,,,2,1,1.04963320263,,,,,,2016_Okt_05_1505,P6,PLC_L_D1S1,NHGY,60.0186992692,
stim/posf.jpg,stim/negf.jpg,stim/6.jpg,stim/4.jpg,stim/latef.jpg,AB,2,4,0,7,7,10,,,,,,,,,,,,,,,,,,4,1,1.03297656643,,,,,,2016_Okt_05_1505,P6,PLC_L_D1S1,NHGY,60.0186992692,
stim/posf.jpg,stim/negf.jpg,stim/4.jpg,stim/6.jpg,stim/latef.jpg,AB,1,2,0,8,8,2,,,,,,,,,,,,,,,,,,2,1,0.766415353211,,,,,,2016_Okt_05_1505,P6,PLC_L_D1S1,NHGY,60.0186992692,
stim/posf.jpg,stim/negf.jpg,stim/2.jpg,stim/5.jpg,stim/latef.jpg,EF,1,2,0,9,9,43,,,,,,,,,,,,,,,,,,4,0,1.29957374917,,,,,,2016_Okt_05_1505,P6,PLC_L_D1S1,NHGY,60.0186992692,
stim/posf.jpg,stim/negf.jpg,stim/3.jpg,stim/1.jpg,stim/latef.jpg,CD,1,2,0,10,10,25,,,,,,,,,,,,,,,,,,2,1,1.24965158438,,,,,,2016_Okt_05_1505,P6,PLC_L_D1S1,NHGY,60.0186992692,
stim/posf.jpg,stim/negf.jpg,stim/1.jpg,stim/3.jpg,stim/latef.jpg,CD,2,4,0,11,11,34,,,,,,,,,,,,,,,,,,4,1,0.799756571166,,,,,,2016_Okt_05_1505,P6,PLC_L_D1S1,NHGY,60.0186992692,
stim/posf.jpg,stim/negf.jpg,stim/1.jpg,stim/3.jpg,stim/latef.jpg,CD,2,4,0,12,12,30,,,,,,,,,,,,,,,,,,4,1,0.733098592121,,,,,,2016_Okt_05_1505,P6,PLC_L_D1S1,NHGY,60.0186992692,
stim/posf.jpg,stim/negf.jpg,stim/4.jpg,stim/6.jpg,stim/latef.jpg,AB,1,2,0,13,13,5,,,,,,,,,,,,,,,,,,2,1,0.899643393495,,,,,,2016_Okt_05_1505,P6,PLC_L_D1S1,NHGY,60.0186992692,
stim/posf.jpg,stim/negf.jpg,stim/6.jpg,stim/4.jpg,stim/latef.jpg,AB,2,4,0,14,14,14,,,,,,,,,,,,,,,,,,4,1,0.716429763574,,,,,,2016_Okt_05_1505,P6,PLC_L_D1S1,NHGY,60.0186992692,
stim/posf.jpg,stim/negf.jpg,stim/5.jpg,stim/2.jpg,stim/latef.jpg,EF,2,4,0,15,15,52,,,,,,,,,,,,,,,,,,4,1,0.849743520186,,,,,,2016_Okt_05_1505,P6,PLC_L_D1S1,NHGY,60.0186992692,
stim/posf.jpg,stim/negf.jpg,stim/5.jpg,stim/2.jpg,stim/latef.jpg,EF,2,4,0,16,16,55,,,,,,,,,,,,,,,,,,4,1,0.533139220234,,,,,,2016_Okt_05_1505,P6,PLC_L_D1S1,NHGY,60.0186992692,
stim/negf.jpg,stim/posf.jpg,stim/1.jpg,stim/3.jpg,stim/latef.jpg,CD,2,4,0,17,17,37,,,,,,,,,,,,,,,,,,4,1,0.883044937087,,,,,,2016_Okt_05_1505,P6,PLC_L_D1S1,NHGY,60.0186992692,
stim/negf.jpg,stim/posf.jpg,stim/6.jpg,stim/4.jpg,stim/latef.jpg,AB,2,4,0,18,18,19,,,,,,,,,,,,,,,,,,4,1,0.69982692526,,,,,,2016_Okt_05_1505,P6,PLC_L_D1S1,NHGY,60.0186992692,
stim/negf.jpg,stim/posf.jpg,stim/5.jpg,stim/2.jpg,stim/latef.jpg,EF,2,4,0,19,19,58,,,,,,,,,,,,,,,,,,4,1,0.749750650933,,,,,,2016_Okt_05_1505,P6,PLC_L_D1S1,NHGY,60.0186992692,
stim/posf.jpg,stim/negf.jpg,stim/4.jpg,stim/6.jpg,stim/latef.jpg,AB,1,2,0,20,20,4,,,,,,,,,,,,,,,,,,2,1,0.6663790258,,,,,,2016_Okt_05_1505,P6,PLC_L_D1S1,NHGY,60.0186992692,
stim/posf.jpg,stim/negf.jpg,stim/5.jpg,stim/2.jpg,stim/latef.jpg,EF,2,4,0,21,21,51,,,,,,,,,,,,,,,,,,4,1,0.666431040251,,,,,,2016_Okt_05_1505,P6,PLC_L_D1S1,NHGY,60.0186992692,
stim/posf.jpg,stim/negf.jpg,stim/2.jpg,stim/5.jpg,stim/latef.jpg,EF,1,2,0,22,22,45,,,,,,,,,,,,,,,,,,2,1,1.14961571411,,,,,,2016_Okt_05_1505,P6,PLC_L_D1S1,NHGY,60.0186992692,
stim/posf.jpg,stim/negf.jpg,stim/4.jpg,stim/6.jpg,stim/latef.jpg,AB,1,2,0,23,23,7,,,,,,,,,,,,,,,,,,2,1,0.583130012819,,,,,,2016_Okt_05_1505,P6,PLC_L_D1S1,NHGY,60.0186992692,
stim/negf.jpg,stim/posf.jpg,stim/6.jpg,stim/4.jpg,stim/latef.jpg,AB,2,4,0,24,24,18,,,,,,,,,,,,,,,,,,4,1,0.766409214934,,,,,,2016_Okt_05_1505,P6,PLC_L_D1S1,NHGY,60.0186992692,
stim/negf.jpg,stim/posf.jpg,stim/2.jpg,stim/5.jpg,stim/latef.jpg,EF,1,2,0,25,25,46,,,,,,,,,,,,,,,,,,2,1,1.21625813243,,,,,,2016_Okt_05_1505,P6,PLC_L_D1S1,NHGY,60.0186992692,
stim/posf.jpg,stim/negf.jpg,stim/6.jpg,stim/4.jpg,stim/latef.jpg,AB,2,4,0,26,26,17,,,,,,,,,,,,,,,,,,4,1,0.649819323842,,,,,,2016_Okt_05_1505,P6,PLC_L_D1S1,NHGY,60.0186992692,
stim/posf.jpg,stim/negf.jpg,stim/6.jpg,stim/4.jpg,stim/latef.jpg,AB,2,4,0,27,27,16,,,,,,,,,,,,,,,,,,4,1,0.583094410213,,,,,,2016_Okt_05_1505,P6,PLC_L_D1S1,NHGY,60.0186992692,
stim/posf.jpg,stim/negf.jpg,stim/4.jpg,stim/6.jpg,stim/latef.jpg,AB,1,2,0,28,28,3,,,,,,,,,,,,,,,,,,2,1,0.533203300715,,,,,,2016_Okt_05_1505,P6,PLC_L_D1S1,NHGY,60.0186992692,
stim/negf.jpg,stim/posf.jpg,stim/2.jpg,stim/5.jpg,stim/latef.jpg,EF,1,2,0,29,29,48,,,,,,,,,,,,,,,,,,2,1,1.48284404311,,,,,,2016_Okt_05_1505,P6,PLC_L_D1S1,NHGY,60.0186992692,
stim/negf.jpg,stim/posf.jpg,stim/3.jpg,stim/1.jpg,stim/latef.jpg,CD,1,2,0,30,30,27,,,,,,,,,,,,,,,,,,2,1,1.14962558467,,,,,,2016_Okt_05_1505,P6,PLC_L_D1S1,NHGY,60.0186992692,
stim/posf.jpg,stim/negf.jpg,stim/2.jpg,stim/5.jpg,stim/latef.jpg,EF,1,2,0,31,31,40,,,,,,,,,,,,,,,,,,4,0,0.999650659579,,,,,,2016_Okt_05_1505,P6,PLC_L_D1S1,NHGY,60.0186992692,
stim/posf.jpg,stim/negf.jpg,stim/1.jpg,stim/3.jpg,stim/latef.jpg,CD,2,4,0,32,32,35,,,,,,,,,,,,,,,,,,2,0,1.33289789965,,,,,,2016_Okt_05_1505,P6,PLC_L_D1S1,NHGY,60.0186992692,
stim/posf.jpg,stim/negf.jpg,stim/6.jpg,stim/4.jpg,stim/latef.jpg,AB,2,4,0,33,33,12,,,,,,,,,,,,,,,,,,4,1,0.699781301715,,,,,,2016_Okt_05_1505,P6,PLC_L_D1S1,NHGY,60.0186992692,
stim/posf.jpg,stim/negf.jpg,stim/5.jpg,stim/2.jpg,stim/latef.jpg,EF,2,4,0,34,34,54,,,,,,,,,,,,,,,,,,4,1,0.783060094811,,,,,,2016_Okt_05_1505,P6,PLC_L_D1S1,NHGY,60.0186992692,
stim/negf.jpg,stim/posf.jpg,stim/2.jpg,stim/5.jpg,stim/latef.jpg,EF,1,2,0,35,35,49,,,,,,,,,,,,,,,,,,2,1,1.21621231039,,,,,,2016_Okt_05_1505,P6,PLC_L_D1S1,NHGY,60.0186992692,
stim/posf.jpg,stim/negf.jpg,stim/3.jpg,stim/1.jpg,stim/latef.jpg,CD,1,2,0,36,36,21,,,,,,,,,,,,,,,,,,2,1,1.13296943869,,,,,,2016_Okt_05_1505,P6,PLC_L_D1S1,NHGY,60.0186992692,
stim/posf.jpg,stim/negf.jpg,stim/4.jpg,stim/6.jpg,stim/latef.jpg,AB,1,2,0,37,37,6,,,,,,,,,,,,,,,,,,2,1,0.816395628621,,,,,,2016_Okt_05_1505,P6,PLC_L_D1S1,NHGY,60.0186992692,
stim/posf.jpg,stim/negf.jpg,stim/1.jpg,stim/3.jpg,stim/latef.jpg,CD,2,4,0,38,38,31,,,,,,,,,,,,,,,,,,4,1,0.683103447705,,,,,,2016_Okt_05_1505,P6,PLC_L_D1S1,NHGY,60.0186992692,
stim/posf.jpg,stim/negf.jpg,stim/2.jpg,stim/5.jpg,stim/latef.jpg,EF,1,2,0,39,39,44,,,,,,,,,,,,,,,,,,2,1,0.783062386515,,,,,,2016_Okt_05_1505,P6,PLC_L_D1S1,NHGY,60.0186992692,
stim/posf.jpg,stim/negf.jpg,stim/1.jpg,stim/3.jpg,stim/latef.jpg,CD,2,4,0,40,40,36,,,,,,,,,,,,,,,,,,4,1,0.599832780833,,,,,,2016_Okt_05_1505,P6,PLC_L_D1S1,NHGY,60.0186992692,
stim/negf.jpg,stim/posf.jpg,stim/5.jpg,stim/2.jpg,stim/latef.jpg,EF,2,4,0,41,41,59,,,,,,,,,,,,,,,,,,4,1,0.616365481592,,,,,,2016_Okt_05_1505,P6,PLC_L_D1S1,NHGY,60.0186992692,
stim/posf.jpg,stim/negf.jpg,stim/1.jpg,stim/3.jpg,stim/latef.jpg,CD,2,4,0,42,42,33,,,,,,,,,,,,,,,,,,4,1,1.01631999639,,,,,,2016_Okt_05_1505,P6,PLC_L_D1S1,NHGY,60.0186992692,
stim/negf.jpg,stim/posf.jpg,stim/3.jpg,stim/1.jpg,stim/latef.jpg,CD,1,2,0,43,43,28,,,,,,,,,,,,,,,,,,2,1,1.03291584531,,,,,,2016_Okt_05_1505,P6,PLC_L_D1S1,NHGY,60.0186992692,
stim/negf.jpg,stim/posf.jpg,stim/3.jpg,stim/1.jpg,stim/latef.jpg,CD,1,2,0,44,44,29,,,,,,,,,,,,,,,,,,2,1,0.666355275692,,,,,,2016_Okt_05_1505,P6,PLC_L_D1S1,NHGY,60.0186992692,
stim/posf.jpg,stim/negf.jpg,stim/6.jpg,stim/4.jpg,stim/latef.jpg,AB,2,4,0,45,45,11,,,,,,,,,,,,,,,,,,4,1,0.74974512919,,,,,,2016_Okt_05_1505,P6,PLC_L_D1S1,NHGY,60.0186992692,
stim/posf.jpg,stim/negf.jpg,stim/6.jpg,stim/4.jpg,stim/latef.jpg,AB,2,4,0,46,46,15,,,,,,,,,,,,,,,,,,4,1,0.633089861393,,,,,,2016_Okt_05_1505,P6,PLC_L_D1S1,NHGY,60.0186992692,
stim/posf.jpg,stim/negf.jpg,stim/3.jpg,stim/1.jpg,stim/latef.jpg,CD,1,2,0,47,47,23,,,,,,,,,,,,,,,,,,2,1,1.04960897433,,,,,,2016_Okt_05_1505,P6,PLC_L_D1S1,NHGY,60.0186992692,
stim/posf.jpg,stim/negf.jpg,stim/4.jpg,stim/6.jpg,stim/latef.jpg,AB,1,2,0,48,48,1,,,,,,,,,,,,,,,,,,2,1,0.69974856825,,,,,,2016_Okt_05_1505,P6,PLC_L_D1S1,NHGY,60.0186992692,
stim/posf.jpg,stim/negf.jpg,stim/2.jpg,stim/5.jpg,stim/latef.jpg,EF,1,2,0,49,49,42,,,,,,,,,,,,,,,,,,2,1,0.916315046071,,,,,,2016_Okt_05_1505,P6,PLC_L_D1S1,NHGY,60.0186992692,
stim/negf.jpg,stim/posf.jpg,stim/1.jpg,stim/3.jpg,stim/latef.jpg,CD,2,4,0,50,50,38,,,,,,,,,,,,,,,,,,2,0,0.899717921978,,,,,,2016_Okt_05_1505,P6,PLC_L_D1S1,NHGY,60.0186992692,
stim/posf.jpg,stim/negf.jpg,stim/3.jpg,stim/1.jpg,stim/latef.jpg,CD,1,2,0,51,51,24,,,,,,,,,,,,,,,,,,4,0,0.933024223035,,,,,,2016_Okt_05_1505,P6,PLC_L_D1S1,NHGY,60.0186992692,
stim/posf.jpg,stim/negf.jpg,stim/4.jpg,stim/6.jpg,stim/latef.jpg,AB,1,2,0,52,52,0,,,,,,,,,,,,,,,,,,2,1,0.633123737702,,,,,,2016_Okt_05_1505,P6,PLC_L_D1S1,NHGY,60.0186992692,
stim/negf.jpg,stim/posf.jpg,stim/2.jpg,stim/5.jpg,stim/latef.jpg,EF,1,2,0,53,53,47,,,,,,,,,,,,,,,,,,2,1,1.28290397326,,,,,,2016_Okt_05_1505,P6,PLC_L_D1S1,NHGY,60.0186992692,
stim/posf.jpg,stim/negf.jpg,stim/3.jpg,stim/1.jpg,stim/latef.jpg,CD,1,2,0,54,54,20,,,,,,,,,,,,,,,,,,2,1,1.06629270497,,,,,,2016_Okt_05_1505,P6,PLC_L_D1S1,NHGY,60.0186992692,
stim/posf.jpg,stim/negf.jpg,stim/6.jpg,stim/4.jpg,stim/latef.jpg,AB,2,4,0,55,55,13,,,,,,,,,,,,,,,,,,4,1,0.733093422255,,,,,,2016_Okt_05_1505,P6,PLC_L_D1S1,NHGY,60.0186992692,
stim/negf.jpg,stim/posf.jpg,stim/4.jpg,stim/6.jpg,stim/latef.jpg,AB,1,2,0,56,56,9,,,,,,,,,,,,,,,,,,2,1,0.949682799066,,,,,,2016_Okt_05_1505,P6,PLC_L_D1S1,NHGY,60.0186992692,
stim/posf.jpg,stim/negf.jpg,stim/5.jpg,stim/2.jpg,stim/latef.jpg,EF,2,4,0,57,57,53,,,,,,,,,,,,,,,,,,4,1,0.982992119638,,,,,,2016_Okt_05_1505,P6,PLC_L_D1S1,NHGY,60.0186992692,
stim/negf.jpg,stim/posf.jpg,stim/5.jpg,stim/2.jpg,stim/latef.jpg,EF,2,4,0,58,58,57,,,,,,,,,,,,,,,,,,4,1,0.733111211528,,,,,,2016_Okt_05_1505,P6,PLC_L_D1S1,NHGY,60.0186992692,
stim/negf.jpg,stim/posf.jpg,stim/4.jpg,stim/6.jpg,stim/latef.jpg,AB,1,2,0,59,59,8,,,,,,,,,,,,,,,,,,2,1,0.649752873464,,,,,,2016_Okt_05_1505,P6,PLC_L_D1S1,NHGY,60.0186992692,
,,,,,,,,,,,,,,,,,,,,,,,,,,,,,,,,0.9921875,1.0,1,0,0,2016_Okt_05_1505,P6,PLC_L_D1S1,NHGY,60.0186992692,
stim/posf.jpg,stim/negf.jpg,stim/3.jpg,stim/1.jpg,stim/latef.jpg,CD,1,2,,,,,0,0,0,26,,,,,,,,,,,,,,2,1,1.13301924565,,,,,,2016_Okt_05_1505,P6,PLC_L_D1S1,NHGY,60.0186992692,
stim/posf.jpg,stim/negf.jpg,stim/6.jpg,stim/4.jpg,stim/latef.jpg,AB,2,4,,,,,0,1,1,10,,,,,,,,,,,,,,4,1,0.6997767153,,,,,,2016_Okt_05_1505,P6,PLC_L_D1S1,NHGY,60.0186992692,
stim/posf.jpg,stim/negf.jpg,stim/4.jpg,stim/6.jpg,stim/latef.jpg,AB,1,2,,,,,0,2,2,0,,,,,,,,,,,,,,2,1,0.867374407056,,,,,,2016_Okt_05_1505,P6,PLC_L_D1S1,NHGY,60.0186992692,
stim/negf.jpg,stim/posf.jpg,stim/4.jpg,stim/6.jpg,stim/latef.jpg,AB,1,2,,,,,0,3,3,8,,,,,,,,,,,,,,2,1,0.849709054409,,,,,,2016_Okt_05_1505,P6,PLC_L_D1S1,NHGY,60.0186992692,
stim/posf.jpg,stim/negf.jpg,stim/6.jpg,stim/4.jpg,stim/latef.jpg,AB,2,4,,,,,0,4,4,15,,,,,,,,,,,,,,4,1,0.583124030932,,,,,,2016_Okt_05_1505,P6,PLC_L_D1S1,NHGY,60.0186992692,
stim/negf.jpg,stim/posf.jpg,stim/3.jpg,stim/1.jpg,stim/latef.jpg,CD,1,2,,,,,0,5,5,28,,,,,,,,,,,,,,2,1,1.19961727349,,,,,,2016_Okt_05_1505,P6,PLC_L_D1S1,NHGY,60.0186992692,
stim/posf.jpg,stim/negf.jpg,stim/3.jpg,stim/1.jpg,stim/latef.jpg,CD,1,2,,,,,0,6,6,24,,,,,,,,,,,,,,2,1,0.783053583606,,,,,,2016_Okt_05_1505,P6,PLC_L_D1S1,NHGY,60.0186992692,
stim/posf.jpg,stim/negf.jpg,stim/4.jpg,stim/6.jpg,stim/latef.jpg,AB,1,2,,,,,0,7,7,5,,,,,,,,,,,,,,2,1,0.749759995188,,,,,,2016_Okt_05_1505,P6,PLC_L_D1S1,NHGY,60.0186992692,
stim/posf.jpg,stim/negf.jpg,stim/6.jpg,stim/4.jpg,stim/latef.jpg,AB,2,4,,,,,0,8,8,14,,,,,,,,,,,,,,4,1,0.816389610643,,,,,,2016_Okt_05_1505,P6,PLC_L_D1S1,NHGY,60.0186992692,
stim/posf.jpg,stim/negf.jpg,stim/6.jpg,stim/4.jpg,stim/latef.jpg,AB,2,4,,,,,0,9,9,16,,,,,,,,,,,,,,4,1,0.599803857851,,,,,,2016_Okt_05_1505,P6,PLC_L_D1S1,NHGY,60.0186992692,
stim/negf.jpg,stim/posf.jpg,stim/2.jpg,stim/5.jpg,stim/latef.jpg,EF,1,2,,,,,0,10,10,47,,,,,,,,,,,,,,2,1,1.1496121743,,,,,,2016_Okt_05_1505,P6,PLC_L_D1S1,NHGY,60.0186992692,
stim/negf.jpg,stim/posf.jpg,stim/2.jpg,stim/5.jpg,stim/latef.jpg,EF,1,2,,,,,0,11,11,49,,,,,,,,,,,,,,4,0,0.566442071706,,,,,,2016_Okt_05_1505,P6,PLC_L_D1S1,NHGY,60.0186992692,
stim/negf.jpg,stim/posf.jpg,stim/5.jpg,stim/2.jpg,stim/latef.jpg,EF,2,4,,,,,0,12,12,58,,,,,,,,,,,,,,2,0,0.783140758563,,,,,,2016_Okt_05_1505,P6,PLC_L_D1S1,NHGY,60.0186992692,
stim/posf.jpg,stim/negf.jpg,stim/4.jpg,stim/6.jpg,stim/latef.jpg,AB,1,2,,,,,0,13,13,2,,,,,,,,,,,,,,2,1,0.966318394906,,,,,,2016_Okt_05_1505,P6,PLC_L_D1S1,NHGY,60.0186992692,
stim/posf.jpg,stim/negf.jpg,stim/6.jpg,stim/4.jpg,stim/latef.jpg,AB,2,4,,,,,0,14,14,13,,,,,,,,,,,,,,4,1,0.849710013797,,,,,,2016_Okt_05_1505,P6,PLC_L_D1S1,NHGY,60.0186992692,
stim/negf.jpg,stim/posf.jpg,stim/1.jpg,stim/3.jpg,stim/latef.jpg,CD,2,4,,,,,0,15,15,37,,,,,,,,,,,,,,2,0,1.44952544746,,,,,,2016_Okt_05_1505,P6,PLC_L_D1S1,NHGY,60.0186992692,
stim/posf.jpg,stim/negf.jpg,stim/3.jpg,stim/1.jpg,stim/latef.jpg,CD,1,2,,,,,0,16,16,25,,,,,,,,,,,,,,2,1,1.29949803273,,,,,,2016_Okt_05_1505,P6,PLC_L_D1S1,NHGY,60.0186992692,
stim/posf.jpg,stim/negf.jpg,stim/5.jpg,stim/2.jpg,stim/latef.jpg,EF,2,4,,,,,0,17,17,50,,,,,,,,,,,,,,4,1,1.58280620594,,,,,,2016_Okt_05_1505,P6,PLC_L_D1S1,NHGY,60.0186992692,
stim/posf.jpg,stim/negf.jpg,stim/2.jpg,stim/5.jpg,stim/latef.jpg,EF,1,2,,,,,0,18,18,41,,,,,,,,,,,,,,2,1,0.899645098739,,,,,,2016_Okt_05_1505,P6,PLC_L_D1S1,NHGY,60.0186992692,
stim/posf.jpg,stim/negf.jpg,stim/1.jpg,stim/3.jpg,stim/latef.jpg,CD,2,4,,,,,0,19,19,32,,,,,,,,,,,,,,2,0,1.6160762247,,,,,,2016_Okt_05_1505,P6,PLC_L_D1S1,NHGY,60.0186992692,
stim/negf.jpg,stim/posf.jpg,stim/5.jpg,stim/2.jpg,stim/latef.jpg,EF,2,4,,,,,0,20,20,59,,,,,,,,,,,,,,2,0,1.09963387781,,,,,,2016_Okt_05_1505,P6,PLC_L_D1S1,NHGY,60.0186992692,
stim/negf.jpg,stim/posf.jpg,stim/3.jpg,stim/1.jpg,stim/latef.jpg,CD,1,2,,,,,0,21,21,27,,,,,,,,,,,,,,None,0,,,,,,,2016_Okt_05_1505,P6,PLC_L_D1S1,NHGY,60.0186992692,
stim/posf.jpg,stim/negf.jpg,stim/1.jpg,stim/3.jpg,stim/latef.jpg,CD,2,4,,,,,0,22,22,35,,,,,,,,,,,,,,4,1,0.749723505374,,,,,,2016_Okt_05_1505,P6,PLC_L_D1S1,NHGY,60.0186992692,
stim/posf.jpg,stim/negf.jpg,stim/1.jpg,stim/3.jpg,stim/latef.jpg,CD,2,4,,,,,0,23,23,31,,,,,,,,,,,,,,2,0,0.883039418352,,,,,,2016_Okt_05_1505,P6,PLC_L_D1S1,NHGY,60.0186992692,
stim/negf.jpg,stim/posf.jpg,stim/1.jpg,stim/3.jpg,stim/latef.jpg,CD,2,4,,,,,0,24,24,38,,,,,,,,,,,,,,2,0,0.716397514313,,,,,,2016_Okt_05_1505,P6,PLC_L_D1S1,NHGY,60.0186992692,
stim/posf.jpg,stim/negf.jpg,stim/6.jpg,stim/4.jpg,stim/latef.jpg,AB,2,4,,,,,0,25,25,17,,,,,,,,,,,,,,4,1,0.716420870441,,,,,,2016_Okt_05_1505,P6,PLC_L_D1S1,NHGY,60.0186992692,
stim/posf.jpg,stim/negf.jpg,stim/6.jpg,stim/4.jpg,stim/latef.jpg,AB,2,4,,,,,0,26,26,11,,,,,,,,,,,,,,4,1,0.949716173126,,,,,,2016_Okt_05_1505,P6,PLC_L_D1S1,NHGY,60.0186992692,
stim/negf.jpg,stim/posf.jpg,stim/6.jpg,stim/4.jpg,stim/latef.jpg,AB,2,4,,,,,0,27,27,19,,,,,,,,,,,,,,4,1,0.816352889253,,,,,,2016_Okt_05_1505,P6,PLC_L_D1S1,NHGY,60.0186992692,
stim/negf.jpg,stim/posf.jpg,stim/2.jpg,stim/5.jpg,stim/latef.jpg,EF,1,2,,,,,0,28,28,48,,,,,,,,,,,,,,2,1,1.49950406574,,,,,,2016_Okt_05_1505,P6,PLC_L_D1S1,NHGY,60.0186992692,
stim/posf.jpg,stim/negf.jpg,stim/4.jpg,stim/6.jpg,stim/latef.jpg,AB,1,2,,,,,0,29,29,3,,,,,,,,,,,,,,4,0,0.716422671925,,,,,,2016_Okt_05_1505,P6,PLC_L_D1S1,NHGY,60.0186992692,
stim/negf.jpg,stim/posf.jpg,stim/1.jpg,stim/3.jpg,stim/latef.jpg,CD,2,4,,,,,0,30,30,39,,,,,,,,,,,,,,4,1,1.13288648624,,,,,,2016_Okt_05_1505,P6,PLC_L_D1S1,NHGY,60.0186992692,
stim/posf.jpg,stim/negf.jpg,stim/4.jpg,stim/6.jpg,stim/latef.jpg,AB,1,2,,,,,0,31,31,6,,,,,,,,,,,,,,2,1,0.882962525986,,,,,,2016_Okt_05_1505,P6,PLC_L_D1S1,NHGY,60.0186992692,
stim/posf.jpg,stim/negf.jpg,stim/5.jpg,stim/2.jpg,stim/latef.jpg,EF,2,4,,,,,0,32,32,53,,,,,,,,,,,,,,None,0,,,,,,,2016_Okt_05_1505,P6,PLC_L_D1S1,NHGY,60.0186992692,
stim/negf.jpg,stim/posf.jpg,stim/4.jpg,stim/6.jpg,stim/latef.jpg,AB,1,2,,,,,0,33,33,9,,,,,,,,,,,,,,2,1,0.899714331042,,,,,,2016_Okt_05_1505,P6,PLC_L_D1S1,NHGY,60.0186992692,
stim/posf.jpg,stim/negf.jpg,stim/1.jpg,stim/3.jpg,stim/latef.jpg,CD,2,4,,,,,0,34,34,33,,,,,,,,,,,,,,2,0,0.699751708063,,,,,,2016_Okt_05_1505,P6,PLC_L_D1S1,NHGY,60.0186992692,
stim/posf.jpg,stim/negf.jpg,stim/5.jpg,stim/2.jpg,stim/latef.jpg,EF,2,4,,,,,0,35,35,51,,,,,,,,,,,,,,2,0,0.866385618207,,,,,,2016_Okt_05_1505,P6,PLC_L_D1S1,NHGY,60.0186992692,
stim/negf.jpg,stim/posf.jpg,stim/5.jpg,stim/2.jpg,stim/latef.jpg,EF,2,4,,,,,0,36,36,57,,,,,,,,,,,,,,4,1,0.61645342045,,,,,,2016_Okt_05_1505,P6,PLC_L_D1S1,NHGY,60.0186992692,
stim/posf.jpg,stim/negf.jpg,stim/3.jpg,stim/1.jpg,stim/latef.jpg,CD,1,2,,,,,0,37,37,21,,,,,,,,,,,,,,2,1,0.866374992763,,,,,,2016_Okt_05_1505,P6,PLC_L_D1S1,NHGY,60.0186992692,
stim/posf.jpg,stim/negf.jpg,stim/1.jpg,stim/3.jpg,stim/latef.jpg,CD,2,4,,,,,0,38,38,36,,,,,,,,,,,,,,4,1,0.633074023977,,,,,,2016_Okt_05_1505,P6,PLC_L_D1S1,NHGY,60.0186992692,
stim/negf.jpg,stim/posf.jpg,stim/5.jpg,stim/2.jpg,stim/latef.jpg,EF,2,4,,,,,0,39,39,56,,,,,,,,,,,,,,4,1,0.949688107277,,,,,,2016_Okt_05_1505,P6,PLC_L_D1S1,NHGY,60.0186992692,
stim/posf.jpg,stim/negf.jpg,stim/4.jpg,stim/6.jpg,stim/latef.jpg,AB,1,2,,,,,0,40,40,1,,,,,,,,,,,,,,2,1,0.749758650843,,,,,,2016_Okt_05_1505,P6,PLC_L_D1S1,NHGY,60.0186992692,
stim/negf.jpg,stim/posf.jpg,stim/2.jpg,stim/5.jpg,stim/latef.jpg,EF,1,2,,,,,0,41,41,46,,,,,,,,,,,,,,4,0,0.533162353808,,,,,,2016_Okt_05_1505,P6,PLC_L_D1S1,NHGY,60.0186992692,
stim/posf.jpg,stim/negf.jpg,stim/2.jpg,stim/5.jpg,stim/latef.jpg,EF,1,2,,,,,0,42,42,42,,,,,,,,,,,,,,4,0,0.566451142281,,,,,,2016_Okt_05_1505,P6,PLC_L_D1S1,NHGY,60.0186992692,
stim/posf.jpg,stim/negf.jpg,stim/2.jpg,stim/5.jpg,stim/latef.jpg,EF,1,2,,,,,0,43,43,44,,,,,,,,,,,,,,2,1,0.466570707849,,,,,,2016_Okt_05_1505,P6,PLC_L_D1S1,NHGY,60.0186992692,
stim/posf.jpg,stim/negf.jpg,stim/2.jpg,stim/5.jpg,stim/latef.jpg,EF,1,2,,,,,0,44,44,40,,,,,,,,,,,,,,2,1,0.466506958192,,,,,,2016_Okt_05_1505,P6,PLC_L_D1S1,NHGY,60.0186992692,
stim/posf.jpg,stim/negf.jpg,stim/6.jpg,stim/4.jpg,stim/latef.jpg,AB,2,4,,,,,0,45,45,12,,,,,,,,,,,,,,4,1,0.649785092649,,,,,,2016_Okt_05_1505,P6,PLC_L_D1S1,NHGY,60.0186992692,
stim/posf.jpg,stim/negf.jpg,stim/1.jpg,stim/3.jpg,stim/latef.jpg,CD,2,4,,,,,0,46,46,34,,,,,,,,,,,,,,4,1,0.949686922328,,,,,,2016_Okt_05_1505,P6,PLC_L_D1S1,NHGY,60.0186992692,
stim/negf.jpg,stim/posf.jpg,stim/6.jpg,stim/4.jpg,stim/latef.jpg,AB,2,4,,,,,0,47,47,18,,,,,,,,,,,,,,4,1,1.1162821893,,,,,,2016_Okt_05_1505,P6,PLC_L_D1S1,NHGY,60.0186992692,
stim/posf.jpg,stim/negf.jpg,stim/2.jpg,stim/5.jpg,stim/latef.jpg,EF,1,2,,,,,0,48,48,45,,,,,,,,,,,,,,2,1,0.616459766243,,,,,,2016_Okt_05_1505,P6,PLC_L_D1S1,NHGY,60.0186992692,
stim/posf.jpg,stim/negf.jpg,stim/2.jpg,stim/5.jpg,stim/latef.jpg,EF,1,2,,,,,0,49,49,43,,,,,,,,,,,,,,2,1,0.516463805295,,,,,,2016_Okt_05_1505,P6,PLC_L_D1S1,NHGY,60.0186992692,
stim/posf.jpg,stim/negf.jpg,stim/4.jpg,stim/6.jpg,stim/latef.jpg,AB,1,2,,,,,0,50,50,7,,,,,,,,,,,,,,4,0,0.583149134408,,,,,,2016_Okt_05_1505,P6,PLC_L_D1S1,NHGY,60.0186992692,
stim/posf.jpg,stim/negf.jpg,stim/3.jpg,stim/1.jpg,stim/latef.jpg,CD,1,2,,,,,0,51,51,20,,,,,,,,,,,,,,2,1,1.09970669203,,,,,,2016_Okt_05_1505,P6,PLC_L_D1S1,NHGY,60.0186992692,
stim/posf.jpg,stim/negf.jpg,stim/4.jpg,stim/6.jpg,stim/latef.jpg,AB,1,2,,,,,0,52,52,4,,,,,,,,,,,,,,2,1,0.899626118503,,,,,,2016_Okt_05_1505,P6,PLC_L_D1S1,NHGY,60.0186992692,
stim/posf.jpg,stim/negf.jpg,stim/5.jpg,stim/2.jpg,stim/latef.jpg,EF,2,4,,,,,0,53,53,54,,,,,,,,,,,,,,4,1,0.716387075334,,,,,,2016_Okt_05_1505,P6,PLC_L_D1S1,NHGY,60.0186992692,
stim/posf.jpg,stim/negf.jpg,stim/1.jpg,stim/3.jpg,stim/latef.jpg,CD,2,4,,,,,0,54,54,30,,,,,,,,,,,,,,4,1,0.599783079138,,,,,,2016_Okt_05_1505,P6,PLC_L_D1S1,NHGY,60.0186992692,
stim/posf.jpg,stim/negf.jpg,stim/5.jpg,stim/2.jpg,stim/latef.jpg,EF,2,4,,,,,0,55,55,55,,,,,,,,,,,,,,4,1,0.766472320989,,,,,,2016_Okt_05_1505,P6,PLC_L_D1S1,NHGY,60.0186992692,
stim/posf.jpg,stim/negf.jpg,stim/3.jpg,stim/1.jpg,stim/latef.jpg,CD,1,2,,,,,0,56,56,23,,,,,,,,,,,,,,2,1,1.1329229941,,,,,,2016_Okt_05_1505,P6,PLC_L_D1S1,NHGY,60.0186992692,
stim/negf.jpg,stim/posf.jpg,stim/3.jpg,stim/1.jpg,stim/latef.jpg,CD,1,2,,,,,0,57,57,29,,,,,,,,,,,,,,2,1,0.549887777206,,,,,,2016_Okt_05_1505,P6,PLC_L_D1S1,NHGY,60.0186992692,
stim/posf.jpg,stim/negf.jpg,stim/5.jpg,stim/2.jpg,stim/latef.jpg,EF,2,4,,,,,0,58,58,52,,,,,,,,,,,,,,4,1,0.78310596497,,,,,,2016_Okt_05_1505,P6,PLC_L_D1S1,NHGY,60.0186992692,
stim/posf.jpg,stim/negf.jpg,stim/3.jpg,stim/1.jpg,stim/latef.jpg,CD,1,2,,,,,0,59,59,22,,,,,,,,,,,,,,2,1,0.566459915114,,,,,,2016_Okt_05_1505,P6,PLC_L_D1S1,NHGY,60.0186992692,
,,,,,,,,,,,,,,,,,,,,,,,,,,,,,,,,0.9921875,1.0,1,0,0,2016_Okt_05_1505,P6,PLC_L_D1S1,NHGY,60.0186992692,
stim/posf.jpg,stim/negf.jpg,stim/1.jpg,stim/3.jpg,stim/latef.jpg,CD,2,4,,,,,,,,,0,0,0,33,,,,,,,,,,4,1,0.766420026842,,,,,,2016_Okt_05_1505,P6,PLC_L_D1S1,NHGY,60.0186992692,
stim/posf.jpg,stim/negf.jpg,stim/4.jpg,stim/6.jpg,stim/latef.jpg,AB,1,2,,,,,,,,,0,1,1,2,,,,,,,,,,2,1,0.583211428442,,,,,,2016_Okt_05_1505,P6,PLC_L_D1S1,NHGY,60.0186992692,
stim/posf.jpg,stim/negf.jpg,stim/6.jpg,stim/4.jpg,stim/latef.jpg,AB,2,4,,,,,,,,,0,2,2,15,,,,,,,,,,4,1,0.699770375522,,,,,,2016_Okt_05_1505,P6,PLC_L_D1S1,NHGY,60.0186992692,
stim/posf.jpg,stim/negf.jpg,stim/3.jpg,stim/1.jpg,stim/latef.jpg,CD,1,2,,,,,,,,,0,3,3,20,,,,,,,,,,2,1,0.599797918069,,,,,,2016_Okt_05_1505,P6,PLC_L_D1S1,NHGY,60.0186992692,
stim/negf.jpg,stim/posf.jpg,stim/6.jpg,stim/4.jpg,stim/latef.jpg,AB,2,4,,,,,,,,,0,4,4,18,,,,,,,,,,4,1,0.533187589614,,,,,,2016_Okt_05_1505,P6,PLC_L_D1S1,NHGY,60.0186992692,
stim/posf.jpg,stim/negf.jpg,stim/3.jpg,stim/1.jpg,stim/latef.jpg,CD,1,2,,,,,,,,,0,5,5,22,,,,,,,,,,2,1,0.583213599846,,,,,,2016_Okt_05_1505,P6,PLC_L_D1S1,NHGY,60.0186992692,
stim/negf.jpg,stim/posf.jpg,stim/2.jpg,stim/5.jpg,stim/latef.jpg,EF,1,2,,,,,,,,,0,6,6,47,,,,,,,,,,2,1,0.683048573136,,,,,,2016_Okt_05_1505,P6,PLC_L_D1S1,NHGY,60.0186992692,
stim/posf.jpg,stim/negf.jpg,stim/5.jpg,stim/2.jpg,stim/latef.jpg,EF,2,4,,,,,,,,,0,7,7,54,,,,,,,,,,4,1,0.533114522768,,,,,,2016_Okt_05_1505,P6,PLC_L_D1S1,NHGY,60.0186992692,
stim/negf.jpg,stim/posf.jpg,stim/1.jpg,stim/3.jpg,stim/latef.jpg,CD,2,4,,,,,,,,,0,8,8,39,,,,,,,,,,4,1,0.566469626282,,,,,,2016_Okt_05_1505,P6,PLC_L_D1S1,NHGY,60.0186992692,
stim/posf.jpg,stim/negf.jpg,stim/6.jpg,stim/4.jpg,stim/latef.jpg,AB,2,4,,,,,,,,,0,9,9,13,,,,,,,,,,4,1,0.933038631895,,,,,,2016_Okt_05_1505,P6,PLC_L_D1S1,NHGY,60.0186992692,
stim/negf.jpg,stim/posf.jpg,stim/3.jpg,stim/1.jpg,stim/latef.jpg,CD,1,2,,,,,,,,,0,10,10,29,,,,,,,,,,2,1,0.549823314775,,,,,,2016_Okt_05_1505,P6,PLC_L_D1S1,NHGY,60.0186992692,
stim/negf.jpg,stim/posf.jpg,stim/6.jpg,stim/4.jpg,stim/latef.jpg,AB,2,4,,,,,,,,,0,11,11,19,,,,,,,,,,4,1,0.483217157701,,,,,,2016_Okt_05_1505,P6,PLC_L_D1S1,NHGY,60.0186992692,
stim/posf.jpg,stim/negf.jpg,stim/2.jpg,stim/5.jpg,stim/latef.jpg,EF,1,2,,,,,,,,,0,12,12,41,,,,,,,,,,2,1,0.699774607053,,,,,,2016_Okt_05_1505,P6,PLC_L_D1S1,NHGY,60.0186992692,
stim/negf.jpg,stim/posf.jpg,stim/5.jpg,stim/2.jpg,stim/latef.jpg,EF,2,4,,,,,,,,,0,13,13,56,,,,,,,,,,4,1,0.749700738714,,,,,,2016_Okt_05_1505,P6,PLC_L_D1S1,NHGY,60.0186992692,
stim/negf.jpg,stim/posf.jpg,stim/5.jpg,stim/2.jpg,stim/latef.jpg,EF,2,4,,,,,,,,,0,14,14,59,,,,,,,,,,4,1,0.616399878197,,,,,,2016_Okt_05_1505,P6,PLC_L_D1S1,NHGY,60.0186992692,
stim/posf.jpg,stim/negf.jpg,stim/3.jpg,stim/1.jpg,stim/latef.jpg,CD,1,2,,,,,,,,,0,15,15,24,,,,,,,,,,4,0,0.949693337293,,,,,,2016_Okt_05_1505,P6,PLC_L_D1S1,NHGY,60.0186992692,
stim/posf.jpg,stim/negf.jpg,stim/2.jpg,stim/5.jpg,stim/latef.jpg,EF,1,2,,,,,,,,,0,16,16,40,,,,,,,,,,4,0,1.19961087958,,,,,,2016_Okt_05_1505,P6,PLC_L_D1S1,NHGY,60.0186992692,
stim/posf.jpg,stim/negf.jpg,stim/2.jpg,stim/5.jpg,stim/latef.jpg,EF,1,2,,,,,,,,,0,17,17,44,,,,,,,,,,4,0,0.549819961429,,,,,,2016_Okt_05_1505,P6,PLC_L_D1S1,NHGY,60.0186992692,
stim/negf.jpg,stim/posf.jpg,stim/2.jpg,stim/5.jpg,stim/latef.jpg,EF,1,2,,,,,,,,,0,18,18,48,,,,,,,,,,2,1,0.499835502607,,,,,,2016_Okt_05_1505,P6,PLC_L_D1S1,NHGY,60.0186992692,
stim/posf.jpg,stim/negf.jpg,stim/4.jpg,stim/6.jpg,stim/latef.jpg,AB,1,2,,,,,,,,,0,19,19,7,,,,,,,,,,2,1,0.949685144904,,,,,,2016_Okt_05_1505,P6,PLC_L_D1S1,NHGY,60.0186992692,
stim/negf.jpg,stim/posf.jpg,stim/4.jpg,stim/6.jpg,stim/latef.jpg,AB,1,2,,,,,,,,,0,20,20,9,,,,,,,,,,4,0,0.616461883512,,,,,,2016_Okt_05_1505,P6,PLC_L_D1S1,NHGY,60.0186992692,
stim/posf.jpg,stim/negf.jpg,stim/5.jpg,stim/2.jpg,stim/latef.jpg,EF,2,4,,,,,,,,,0,21,21,52,,,,,,,,,,4,1,1.18294092022,,,,,,2016_Okt_05_1505,P6,PLC_L_D1S1,NHGY,60.0186992692,
stim/posf.jpg,stim/negf.jpg,stim/5.jpg,stim/2.jpg,stim/latef.jpg,EF,2,4,,,,,,,,,0,22,22,55,,,,,,,,,,4,1,0.466500200374,,,,,,2016_Okt_05_1505,P6,PLC_L_D1S1,NHGY,60.0186992692,
stim/posf.jpg,stim/negf.jpg,stim/6.jpg,stim/4.jpg,stim/latef.jpg,AB,2,4,,,,,,,,,0,23,23,11,,,,,,,,,,2,0,0.616473943527,,,,,,2016_Okt_05_1505,P6,PLC_L_D1S1,NHGY,60.0186992692,
stim/posf.jpg,stim/negf.jpg,stim/6.jpg,stim/4.jpg,stim/latef.jpg,AB,2,4,,,,,,,,,0,24,24,12,,,,,,,,,,4,1,0.599798420318,,,,,,2016_Okt_05_1505,P6,PLC_L_D1S1,NHGY,60.0186992692,
stim/posf.jpg,stim/negf.jpg,stim/3.jpg,stim/1.jpg,stim/latef.jpg,CD,1,2,,,,,,,,,0,25,25,25,,,,,,,,,,2,1,0.933024340327,,,,,,2016_Okt_05_1505,P6,PLC_L_D1S1,NHGY,60.0186992692,
stim/posf.jpg,stim/negf.jpg,stim/3.jpg,stim/1.jpg,stim/latef.jpg,CD,1,2,,,,,,,,,0,26,26,21,,,,,,,,,,2,1,0.566475217197,,,,,,2016_Okt_05_1505,P6,PLC_L_D1S1,NHGY,60.0186992692,
stim/posf.jpg,stim/negf.jpg,stim/6.jpg,stim/4.jpg,stim/latef.jpg,AB,2,4,,,,,,,,,0,27,27,10,,,,,,,,,,4,1,0.61643798303,,,,,,2016_Okt_05_1505,P6,PLC_L_D1S1,NHGY,60.0186992692,
stim/posf.jpg,stim/negf.jpg,stim/1.jpg,stim/3.jpg,stim/latef.jpg,CD,2,4,,,,,,,,,0,28,28,36,,,,,,,,,,4,1,0.599756483949,,,,,,2016_Okt_05_1505,P6,PLC_L_D1S1,NHGY,60.0186992692,
stim/posf.jpg,stim/negf.jpg,stim/4.jpg,stim/6.jpg,stim/latef.jpg,AB,1,2,,,,,,,,,0,29,29,6,,,,,,,,,,2,1,0.666429298918,,,,,,2016_Okt_05_1505,P6,PLC_L_D1S1,NHGY,60.0186992692,
stim/negf.jpg,stim/posf.jpg,stim/4.jpg,stim/6.jpg,stim/latef.jpg,AB,1,2,,,,,,,,,0,30,30,8,,,,,,,,,,2,1,0.533160359846,,,,,,2016_Okt_05_1505,P6,PLC_L_D1S1,NHGY,60.0186992692,
stim/posf.jpg,stim/negf.jpg,stim/1.jpg,stim/3.jpg,stim/latef.jpg,CD,2,4,,,,,,,,,0,31,31,35,,,,,,,,,,4,1,0.883017647169,,,,,,2016_Okt_05_1505,P6,PLC_L_D1S1,NHGY,60.0186992692,
stim/posf.jpg,stim/negf.jpg,stim/6.jpg,stim/4.jpg,stim/latef.jpg,AB,2,4,,,,,,,,,0,32,32,14,,,,,,,,,,4,1,0.516488571934,,,,,,2016_Okt_05_1505,P6,PLC_L_D1S1,NHGY,60.0186992692,
stim/negf.jpg,stim/posf.jpg,stim/1.jpg,stim/3.jpg,stim/latef.jpg,CD,2,4,,,,,,,,,0,33,33,38,,,,,,,,,,4,1,0.599795406819,,,,,,2016_Okt_05_1505,P6,PLC_L_D1S1,NHGY,60.0186992692,
stim/posf.jpg,stim/negf.jpg,stim/4.jpg,stim/6.jpg,stim/latef.jpg,AB,1,2,,,,,,,,,0,34,34,0,,,,,,,,,,2,1,0.583159128281,,,,,,2016_Okt_05_1505,P6,PLC_L_D1S1,NHGY,60.0186992692,
stim/negf.jpg,stim/posf.jpg,stim/5.jpg,stim/2.jpg,stim/latef.jpg,EF,2,4,,,,,,,,,0,35,35,57,,,,,,,,,,4,1,0.733093957587,,,,,,2016_Okt_05_1505,P6,PLC_L_D1S1,NHGY,60.0186992692,
stim/posf.jpg,stim/negf.jpg,stim/1.jpg,stim/3.jpg,stim/latef.jpg,CD,2,4,,,,,,,,,0,36,36,31,,,,,,,,,,4,1,0.54980440371,,,,,,2016_Okt_05_1505,P6,PLC_L_D1S1,NHGY,60.0186992692,
stim/posf.jpg,stim/negf.jpg,stim/5.jpg,stim/2.jpg,stim/latef.jpg,EF,2,4,,,,,,,,,0,37,37,50,,,,,,,,,,4,1,0.583130903035,,,,,,2016_Okt_05_1505,P6,PLC_L_D1S1,NHGY,60.0186992692,
stim/posf.jpg,stim/negf.jpg,stim/3.jpg,stim/1.jpg,stim/latef.jpg,CD,1,2,,,,,,,,,0,38,38,26,,,,,,,,,,2,1,0.633121250512,,,,,,2016_Okt_05_1505,P6,PLC_L_D1S1,NHGY,60.0186992692,
stim/negf.jpg,stim/posf.jpg,stim/3.jpg,stim/1.jpg,stim/latef.jpg,CD,1,2,,,,,,,,,0,39,39,27,,,,,,,,,,2,1,0.566472393169,,,,,,2016_Okt_05_1505,P6,PLC_L_D1S1,NHGY,60.0186992692,
stim/negf.jpg,stim/posf.jpg,stim/1.jpg,stim/3.jpg,stim/latef.jpg,CD,2,4,,,,,,,,,0,40,40,37,,,,,,,,,,4,1,0.666426186171,,,,,,2016_Okt_05_1505,P6,PLC_L_D1S1,NHGY,60.0186992692,
stim/posf.jpg,stim/negf.jpg,stim/4.jpg,stim/6.jpg,stim/latef.jpg,AB,1,2,,,,,,,,,0,41,41,1,,,,,,,,,,2,1,0.64978354981,,,,,,2016_Okt_05_1505,P6,PLC_L_D1S1,NHGY,60.0186992692,
stim/posf.jpg,stim/negf.jpg,stim/6.jpg,stim/4.jpg,stim/latef.jpg,AB,2,4,,,,,,,,,0,42,42,16,,,,,,,,,,2,0,0.699699107153,,,,,,2016_Okt_05_1505,P6,PLC_L_D1S1,NHGY,60.0186992692,
stim/posf.jpg,stim/negf.jpg,stim/4.jpg,stim/6.jpg,stim/latef.jpg,AB,1,2,,,,,,,,,0,43,43,3,,,,,,,,,,2,1,0.616449288166,,,,,,2016_Okt_05_1505,P6,PLC_L_D1S1,NHGY,60.0186992692,
stim/posf.jpg,stim/negf.jpg,stim/4.jpg,stim/6.jpg,stim/latef.jpg,AB,1,2,,,,,,,,,0,44,44,4,,,,,,,,,,2,1,0.566461485021,,,,,,2016_Okt_05_1505,P6,PLC_L_D1S1,NHGY,60.0186992692,
stim/posf.jpg,stim/negf.jpg,stim/3.jpg,stim/1.jpg,stim/latef.jpg,CD,1,2,,,,,,,,,0,45,45,23,,,,,,,,,,4,0,0.849715592681,,,,,,2016_Okt_05_1505,P6,PLC_L_D1S1,NHGY,60.0186992692,
stim/posf.jpg,stim/negf.jpg,stim/2.jpg,stim/5.jpg,stim/latef.jpg,EF,1,2,,,,,,,,,0,46,46,42,,,,,,,,,,2,1,0.433179896467,,,,,,2016_Okt_05_1505,P6,PLC_L_D1S1,NHGY,60.0186992692,
stim/posf.jpg,stim/negf.jpg,stim/5.jpg,stim/2.jpg,stim/latef.jpg,EF,2,4,,,,,,,,,0,47,47,53,,,,,,,,,,4,1,0.999654626452,,,,,,2016_Okt_05_1505,P6,PLC_L_D1S1,NHGY,60.0186992692,
stim/negf.jpg,stim/posf.jpg,stim/5.jpg,stim/2.jpg,stim/latef.jpg,EF,2,4,,,,,,,,,0,48,48,58,,,,,,,,,,4,1,0.449944952501,,,,,,2016_Okt_05_1505,P6,PLC_L_D1S1,NHGY,60.0186992692,
stim/posf.jpg,stim/negf.jpg,stim/1.jpg,stim/3.jpg,stim/latef.jpg,CD,2,4,,,,,,,,,0,49,49,32,,,,,,,,,,4,1,0.916301226678,,,,,,2016_Okt_05_1505,P6,PLC_L_D1S1,NHGY,60.0186992692,
stim/posf.jpg,stim/negf.jpg,stim/1.jpg,stim/3.jpg,stim/latef.jpg,CD,2,4,,,,,,,,,0,50,50,30,,,,,,,,,,4,1,0.816431727462,,,,,,2016_Okt_05_1505,P6,PLC_L_D1S1,NHGY,60.0186992692,
stim/posf.jpg,stim/negf.jpg,stim/4.jpg,stim/6.jpg,stim/latef.jpg,AB,1,2,,,,,,,,,0,51,51,5,,,,,,,,,,2,1,0.633169758235,,,,,,2016_Okt_05_1505,P6,PLC_L_D1S1,NHGY,60.0186992692,
stim/negf.jpg,stim/posf.jpg,stim/2.jpg,stim/5.jpg,stim/latef.jpg,EF,1,2,,,,,,,,,0,52,52,49,,,,,,,,,,2,1,1.08296251396,,,,,,2016_Okt_05_1505,P6,PLC_L_D1S1,NHGY,60.0186992692,
stim/posf.jpg,stim/negf.jpg,stim/2.jpg,stim/5.jpg,stim/latef.jpg,EF,1,2,,,,,,,,,0,53,53,43,,,,,,,,,,4,0,0.499842681474,,,,,,2016_Okt_05_1505,P6,PLC_L_D1S1,NHGY,60.0186992692,
stim/posf.jpg,stim/negf.jpg,stim/1.jpg,stim/3.jpg,stim/latef.jpg,CD,2,4,,,,,,,,,0,54,54,34,,,,,,,,,,4,1,0.749813877287,,,,,,2016_Okt_05_1505,P6,PLC_L_D1S1,NHGY,60.0186992692,
stim/posf.jpg,stim/negf.jpg,stim/6.jpg,stim/4.jpg,stim/latef.jpg,AB,2,4,,,,,,,,,0,55,55,17,,,,,,,,,,4,1,0.649800487965,,,,,,2016_Okt_05_1505,P6,PLC_L_D1S1,NHGY,60.0186992692,
stim/negf.jpg,stim/posf.jpg,stim/3.jpg,stim/1.jpg,stim/latef.jpg,CD,1,2,,,,,,,,,0,56,56,28,,,,,,,,,,2,1,0.98303291617,,,,,,2016_Okt_05_1505,P6,PLC_L_D1S1,NHGY,60.0186992692,
stim/negf.jpg,stim/posf.jpg,stim/2.jpg,stim/5.jpg,stim/latef.jpg,EF,1,2,,,,,,,,,0,57,57,46,,,,,,,,,,4,0,0.633108628098,,,,,,2016_Okt_05_1505,P6,PLC_L_D1S1,NHGY,60.0186992692,
stim/posf.jpg,stim/negf.jpg,stim/5.jpg,stim/2.jpg,stim/latef.jpg,EF,2,4,,,,,,,,,0,58,58,51,,,,,,,,,,2,0,0.799747810363,,,,,,2016_Okt_05_1505,P6,PLC_L_D1S1,NHGY,60.0186992692,
stim/posf.jpg,stim/negf.jpg,stim/2.jpg,stim/5.jpg,stim/latef.jpg,EF,1,2,,,,,,,,,0,59,59,45,,,,,,,,,,2,1,0.466478853246,,,,,,2016_Okt_05_1505,P6,PLC_L_D1S1,NHGY,60.0186992692,
,,,,,,,,,,,,,,,,,,,,,,,,,,,,,,,,0.9921875,1.0,1,0,0,2016_Okt_05_1505,P6,PLC_L_D1S1,NHGY,60.0186992692,
stim/posf.jpg,stim/negf.jpg,stim/3.jpg,stim/1.jpg,stim/latef.jpg,CD,1,2,,,,,,,,,,,,,0,0,0,22,,,,,,2,1,0.733093710973,,,,,,2016_Okt_05_1505,P6,PLC_L_D1S1,NHGY,60.0186992692,
stim/posf.jpg,stim/negf.jpg,stim/5.jpg,stim/2.jpg,stim/latef.jpg,EF,2,4,,,,,,,,,,,,,0,1,1,54,,,,,,4,1,0.816403962362,,,,,,2016_Okt_05_1505,P6,PLC_L_D1S1,NHGY,60.0186992692,
stim/posf.jpg,stim/negf.jpg,stim/4.jpg,stim/6.jpg,stim/latef.jpg,AB,1,2,,,,,,,,,,,,,0,2,2,5,,,,,,2,1,0.416531714304,,,,,,2016_Okt_05_1505,P6,PLC_L_D1S1,NHGY,60.0186992692,
stim/negf.jpg,stim/posf.jpg,stim/5.jpg,stim/2.jpg,stim/latef.jpg,EF,2,4,,,,,,,,,,,,,0,3,3,56,,,,,,4,1,0.649782307718,,,,,,2016_Okt_05_1505,P6,PLC_L_D1S1,NHGY,60.0186992692,
stim/negf.jpg,stim/posf.jpg,stim/6.jpg,stim/4.jpg,stim/latef.jpg,AB,2,4,,,,,,,,,,,,,0,4,4,19,,,,,,4,1,0.666456570791,,,,,,2016_Okt_05_1505,P6,PLC_L_D1S1,NHGY,60.0186992692,
stim/posf.jpg,stim/negf.jpg,stim/2.jpg,stim/5.jpg,stim/latef.jpg,EF,1,2,,,,,,,,,,,,,0,5,5,41,,,,,,2,1,0.783093592177,,,,,,2016_Okt_05_1505,P6,PLC_L_D1S1,NHGY,60.0186992692,
stim/posf.jpg,stim/negf.jpg,stim/1.jpg,stim/3.jpg,stim/latef.jpg,CD,2,4,,,,,,,,,,,,,0,6,6,36,,,,,,4,1,0.499772158961,,,,,,2016_Okt_05_1505,P6,PLC_L_D1S1,NHGY,60.0186992692,
stim/posf.jpg,stim/negf.jpg,stim/6.jpg,stim/4.jpg,stim/latef.jpg,AB,2,4,,,,,,,,,,,,,0,7,7,14,,,,,,4,1,0.51645904144,,,,,,2016_Okt_05_1505,P6,PLC_L_D1S1,NHGY,60.0186992692,
stim/posf.jpg,stim/negf.jpg,stim/1.jpg,stim/3.jpg,stim/latef.jpg,CD,2,4,,,,,,,,,,,,,0,8,8,31,,,,,,4,1,0.549822117795,,,,,,2016_Okt_05_1505,P6,PLC_L_D1S1,NHGY,60.0186992692,
stim/posf.jpg,stim/negf.jpg,stim/6.jpg,stim/4.jpg,stim/latef.jpg,AB,2,4,,,,,,,,,,,,,0,9,9,17,,,,,,4,1,0.583135630801,,,,,,2016_Okt_05_1505,P6,PLC_L_D1S1,NHGY,60.0186992692,
stim/posf.jpg,stim/negf.jpg,stim/6.jpg,stim/4.jpg,stim/latef.jpg,AB,2,4,,,,,,,,,,,,,0,10,10,11,,,,,,4,1,0.483177176197,,,,,,2016_Okt_05_1505,P6,PLC_L_D1S1,NHGY,60.0186992692,
stim/posf.jpg,stim/negf.jpg,stim/3.jpg,stim/1.jpg,stim/latef.jpg,CD,1,2,,,,,,,,,,,,,0,11,11,25,,,,,,2,1,1.16627856077,,,,,,2016_Okt_05_1505,P6,PLC_L_D1S1,NHGY,60.0186992692,
stim/posf.jpg,stim/negf.jpg,stim/1.jpg,stim/3.jpg,stim/latef.jpg,CD,2,4,,,,,,,,,,,,,0,12,12,30,,,,,,4,1,0.599789647486,,,,,,2016_Okt_05_1505,P6,PLC_L_D1S1,NHGY,60.0186992692,
stim/posf.jpg,stim/negf.jpg,stim/5.jpg,stim/2.jpg,stim/latef.jpg,EF,2,4,,,,,,,,,,,,,0,13,13,50,,,,,,4,1,0.733007477359,,,,,,2016_Okt_05_1505,P6,PLC_L_D1S1,NHGY,60.0186992692,
stim/posf.jpg,stim/negf.jpg,stim/4.jpg,stim/6.jpg,stim/latef.jpg,AB,1,2,,,,,,,,,,,,,0,14,14,0,,,,,,2,1,0.68307382398,,,,,,2016_Okt_05_1505,P6,PLC_L_D1S1,NHGY,60.0186992692,
stim/posf.jpg,stim/negf.jpg,stim/5.jpg,stim/2.jpg,stim/latef.jpg,EF,2,4,,,,,,,,,,,,,0,15,15,52,,,,,,4,1,0.566475908919,,,,,,2016_Okt_05_1505,P6,PLC_L_D1S1,NHGY,60.0186992692,
stim/posf.jpg,stim/negf.jpg,stim/1.jpg,stim/3.jpg,stim/latef.jpg,CD,2,4,,,,,,,,,,,,,0,16,16,34,,,,,,4,1,0.533145857753,,,,,,2016_Okt_05_1505,P6,PLC_L_D1S1,NHGY,60.0186992692,
stim/posf.jpg,stim/negf.jpg,stim/3.jpg,stim/1.jpg,stim/latef.jpg,CD,1,2,,,,,,,,,,,,,0,17,17,20,,,,,,2,1,0.583149492299,,,,,,2016_Okt_05_1505,P6,PLC_L_D1S1,NHGY,60.0186992692,
stim/negf.jpg,stim/posf.jpg,stim/3.jpg,stim/1.jpg,stim/latef.jpg,CD,1,2,,,,,,,,,,,,,0,18,18,27,,,,,,2,1,0.733089701996,,,,,,2016_Okt_05_1505,P6,PLC_L_D1S1,NHGY,60.0186992692,
stim/posf.jpg,stim/negf.jpg,stim/2.jpg,stim/5.jpg,stim/latef.jpg,EF,1,2,,,,,,,,,,,,,0,19,19,42,,,,,,2,1,0.749752404296,,,,,,2016_Okt_05_1505,P6,PLC_L_D1S1,NHGY,60.0186992692,
stim/posf.jpg,stim/negf.jpg,stim/2.jpg,stim/5.jpg,stim/latef.jpg,EF,1,2,,,,,,,,,,,,,0,20,20,40,,,,,,2,1,0.533156486204,,,,,,2016_Okt_05_1505,P6,PLC_L_D1S1,NHGY,60.0186992692,
stim/negf.jpg,stim/posf.jpg,stim/2.jpg,stim/5.jpg,stim/latef.jpg,EF,1,2,,,,,,,,,,,,,0,21,21,46,,,,,,2,1,0.449832057534,,,,,,2016_Okt_05_1505,P6,PLC_L_D1S1,NHGY,60.0186992692,
stim/negf.jpg,stim/posf.jpg,stim/4.jpg,stim/6.jpg,stim/latef.jpg,AB,1,2,,,,,,,,,,,,,0,22,22,9,,,,,,2,1,0.533133214287,,,,,,2016_Okt_05_1505,P6,PLC_L_D1S1,NHGY,60.0186992692,
stim/negf.jpg,stim/posf.jpg,stim/2.jpg,stim/5.jpg,stim/latef.jpg,EF,1,2,,,,,,,,,,,,,0,23,23,47,,,,,,2,1,0.466508119081,,,,,,2016_Okt_05_1505,P6,PLC_L_D1S1,NHGY,60.0186992692,
stim/negf.jpg,stim/posf.jpg,stim/1.jpg,stim/3.jpg,stim/latef.jpg,CD,2,4,,,,,,,,,,,,,0,24,24,38,,,,,,4,1,0.883033183836,,,,,,2016_Okt_05_1505,P6,PLC_L_D1S1,NHGY,60.0186992692,
stim/posf.jpg,stim/negf.jpg,stim/2.jpg,stim/5.jpg,stim/latef.jpg,EF,1,2,,,,,,,,,,,,,0,25,25,43,,,,,,2,1,0.583192123398,,,,,,2016_Okt_05_1505,P6,PLC_L_D1S1,NHGY,60.0186992692,
stim/posf.jpg,stim/negf.jpg,stim/3.jpg,stim/1.jpg,stim/latef.jpg,CD,1,2,,,,,,,,,,,,,0,26,26,24,,,,,,2,1,0.56651736409,,,,,,2016_Okt_05_1505,P6,PLC_L_D1S1,NHGY,60.0186992692,
stim/negf.jpg,stim/posf.jpg,stim/1.jpg,stim/3.jpg,stim/latef.jpg,CD,2,4,,,,,,,,,,,,,0,27,27,37,,,,,,4,1,0.683042461927,,,,,,2016_Okt_05_1505,P6,PLC_L_D1S1,NHGY,60.0186992692,
stim/posf.jpg,stim/negf.jpg,stim/3.jpg,stim/1.jpg,stim/latef.jpg,CD,1,2,,,,,,,,,,,,,0,28,28,26,,,,,,2,1,0.566473557065,,,,,,2016_Okt_05_1505,P6,PLC_L_D1S1,NHGY,60.0186992692,
stim/posf.jpg,stim/negf.jpg,stim/4.jpg,stim/6.jpg,stim/latef.jpg,AB,1,2,,,,,,,,,,,,,0,29,29,2,,,,,,2,1,0.583207563825,,,,,,2016_Okt_05_1505,P6,PLC_L_D1S1,NHGY,60.0186992692,
stim/negf.jpg,stim/posf.jpg,stim/2.jpg,stim/5.jpg,stim/latef.jpg,EF,1,2,,,,,,,,,,,,,0,30,30,48,,,,,,2,1,0.617498187615,,,,,,2016_Okt_05_1505,P6,PLC_L_D1S1,NHGY,60.0186992692,
stim/negf.jpg,stim/posf.jpg,stim/2.jpg,stim/5.jpg,stim/latef.jpg,EF,1,2,,,,,,,,,,,,,0,31,31,49,,,,,,4,0,0.583140157067,,,,,,2016_Okt_05_1505,P6,PLC_L_D1S1,NHGY,60.0186992692,
stim/posf.jpg,stim/negf.jpg,stim/6.jpg,stim/4.jpg,stim/latef.jpg,AB,2,4,,,,,,,,,,,,,0,32,32,13,,,,,,4,1,0.849701607876,,,,,,2016_Okt_05_1505,P6,PLC_L_D1S1,NHGY,60.0186992692,
stim/posf.jpg,stim/negf.jpg,stim/5.jpg,stim/2.jpg,stim/latef.jpg,EF,2,4,,,,,,,,,,,,,0,33,33,53,,,,,,2,0,0.999719049785,,,,,,2016_Okt_05_1505,P6,PLC_L_D1S1,NHGY,60.0186992692,
stim/posf.jpg,stim/negf.jpg,stim/4.jpg,stim/6.jpg,stim/latef.jpg,AB,1,2,,,,,,,,,,,,,0,34,34,3,,,,,,2,1,0.683050531009,,,,,,2016_Okt_05_1505,P6,PLC_L_D1S1,NHGY,60.0186992692,
stim/posf.jpg,stim/negf.jpg,stim/2.jpg,stim/5.jpg,stim/latef.jpg,EF,1,2,,,,,,,,,,,,,0,35,35,45,,,,,,4,0,0.733067777431,,,,,,2016_Okt_05_1505,P6,PLC_L_D1S1,NHGY,60.0186992692,
stim/posf.jpg,stim/negf.jpg,stim/2.jpg,stim/5.jpg,stim/latef.jpg,EF,1,2,,,,,,,,,,,,,0,36,36,44,,,,,,2,1,0.4664869915,,,,,,2016_Okt_05_1505,P6,PLC_L_D1S1,NHGY,60.0186992692,
stim/negf.jpg,stim/posf.jpg,stim/4.jpg,stim/6.jpg,stim/latef.jpg,AB,1,2,,,,,,,,,,,,,0,37,37,8,,,,,,2,1,0.616427595178,,,,,,2016_Okt_05_1505,P6,PLC_L_D1S1,NHGY,60.0186992692,
stim/posf.jpg,stim/negf.jpg,stim/4.jpg,stim/6.jpg,stim/latef.jpg,AB,1,2,,,,,,,,,,,,,0,38,38,6,,,,,,2,1,0.499838498063,,,,,,2016_Okt_05_1505,P6,PLC_L_D1S1,NHGY,60.0186992692,
stim/negf.jpg,stim/posf.jpg,stim/3.jpg,stim/1.jpg,stim/latef.jpg,CD,1,2,,,,,,,,,,,,,0,39,39,29,,,,,,2,1,0.983001160137,,,,,,2016_Okt_05_1505,P6,PLC_L_D1S1,NHGY,60.0186992692,
stim/posf.jpg,stim/negf.jpg,stim/6.jpg,stim/4.jpg,stim/latef.jpg,AB,2,4,,,,,,,,,,,,,0,40,40,15,,,,,,4,1,0.749761922986,,,,,,2016_Okt_05_1505,P6,PLC_L_D1S1,NHGY,60.0186992692,
stim/posf.jpg,stim/negf.jpg,stim/3.jpg,stim/1.jpg,stim/latef.jpg,CD,1,2,,,,,,,,,,,,,0,41,41,23,,,,,,2,1,0.599725759484,,,,,,2016_Okt_05_1505,P6,PLC_L_D1S1,NHGY,60.0186992692,
stim/posf.jpg,stim/negf.jpg,stim/1.jpg,stim/3.jpg,stim/latef.jpg,CD,2,4,,,,,,,,,,,,,0,42,42,32,,,,,,4,1,0.76641333218,,,,,,2016_Okt_05_1505,P6,PLC_L_D1S1,NHGY,60.0186992692,
stim/posf.jpg,stim/negf.jpg,stim/4.jpg,stim/6.jpg,stim/latef.jpg,AB,1,2,,,,,,,,,,,,,0,43,43,7,,,,,,2,1,0.566478176562,,,,,,2016_Okt_05_1505,P6,PLC_L_D1S1,NHGY,60.0186992692,
stim/posf.jpg,stim/negf.jpg,stim/1.jpg,stim/3.jpg,stim/latef.jpg,CD,2,4,,,,,,,,,,,,,0,44,44,35,,,,,,4,1,0.666442555911,,,,,,2016_Okt_05_1505,P6,PLC_L_D1S1,NHGY,60.0186992692,
stim/negf.jpg,stim/posf.jpg,stim/5.jpg,stim/2.jpg,stim/latef.jpg,EF,2,4,,,,,,,,,,,,,0,45,45,58,,,,,,4,1,0.599807427736,,,,,,2016_Okt_05_1505,P6,PLC_L_D1S1,NHGY,60.0186992692,
stim/negf.jpg,stim/posf.jpg,stim/6.jpg,stim/4.jpg,stim/latef.jpg,AB,2,4,,,,,,,,,,,,,0,46,46,18,,,,,,4,1,0.716427685402,,,,,,2016_Okt_05_1505,P6,PLC_L_D1S1,NHGY,60.0186992692,
stim/posf.jpg,stim/negf.jpg,stim/6.jpg,stim/4.jpg,stim/latef.jpg,AB,2,4,,,,,,,,,,,,,0,47,47,16,,,,,,4,1,0.599817803559,,,,,,2016_Okt_05_1505,P6,PLC_L_D1S1,NHGY,60.0186992692,
stim/posf.jpg,stim/negf.jpg,stim/6.jpg,stim/4.jpg,stim/latef.jpg,AB,2,4,,,,,,,,,,,,,0,48,48,10,,,,,,4,1,0.53315117198,,,,,,2016_Okt_05_1505,P6,PLC_L_D1S1,NHGY,60.0186992692,
stim/posf.jpg,stim/negf.jpg,stim/3.jpg,stim/1.jpg,stim/latef.jpg,CD,1,2,,,,,,,,,,,,,0,49,49,21,,,,,,2,1,0.949635046221,,,,,,2016_Okt_05_1505,P6,PLC_L_D1S1,NHGY,60.0186992692,
stim/negf.jpg,stim/posf.jpg,stim/5.jpg,stim/2.jpg,stim/latef.jpg,EF,2,4,,,,,,,,,,,,,0,50,50,57,,,,,,4,1,0.49983044101,,,,,,2016_Okt_05_1505,P6,PLC_L_D1S1,NHGY,60.0186992692,
stim/negf.jpg,stim/posf.jpg,stim/1.jpg,stim/3.jpg,stim/latef.jpg,CD,2,4,,,,,,,,,,,,,0,51,51,39,,,,,,4,1,0.583137032289,,,,,,2016_Okt_05_1505,P6,PLC_L_D1S1,NHGY,60.0186992692,
stim/posf.jpg,stim/negf.jpg,stim/4.jpg,stim/6.jpg,stim/latef.jpg,AB,1,2,,,,,,,,,,,,,0,52,52,1,,,,,,2,1,0.716480848711,,,,,,2016_Okt_05_1505,P6,PLC_L_D1S1,NHGY,60.0186992692,
stim/posf.jpg,stim/negf.jpg,stim/5.jpg,stim/2.jpg,stim/latef.jpg,EF,2,4,,,,,,,,,,,,,0,53,53,51,,,,,,2,0,0.899702207869,,,,,,2016_Okt_05_1505,P6,PLC_L_D1S1,NHGY,60.0186992692,
stim/posf.jpg,stim/negf.jpg,stim/6.jpg,stim/4.jpg,stim/latef.jpg,AB,2,4,,,,,,,,,,,,,0,54,54,12,,,,,,4,1,0.61646735112,,,,,,2016_Okt_05_1505,P6,PLC_L_D1S1,NHGY,60.0186992692,
stim/posf.jpg,stim/negf.jpg,stim/5.jpg,stim/2.jpg,stim/latef.jpg,EF,2,4,,,,,,,,,,,,,0,55,55,55,,,,,,4,1,0.849688774939,,,,,,2016_Okt_05_1505,P6,PLC_L_D1S1,NHGY,60.0186992692,
stim/negf.jpg,stim/posf.jpg,stim/3.jpg,stim/1.jpg,stim/latef.jpg,CD,1,2,,,,,,,,,,,,,0,56,56,28,,,,,,2,1,0.63312276027,,,,,,2016_Okt_05_1505,P6,PLC_L_D1S1,NHGY,60.0186992692,
stim/posf.jpg,stim/negf.jpg,stim/4.jpg,stim/6.jpg,stim/latef.jpg,AB,1,2,,,,,,,,,,,,,0,57,57,4,,,,,,2,1,0.533154068187,,,,,,2016_Okt_05_1505,P6,PLC_L_D1S1,NHGY,60.0186992692,
stim/posf.jpg,stim/negf.jpg,stim/1.jpg,stim/3.jpg,stim/latef.jpg,CD,2,4,,,,,,,,,,,,,0,58,58,33,,,,,,4,1,0.549789751243,,,,,,2016_Okt_05_1505,P6,PLC_L_D1S1,NHGY,60.0186992692,
stim/negf.jpg,stim/posf.jpg,stim/5.jpg,stim/2.jpg,stim/latef.jpg,EF,2,4,,,,,,,,,,,,,0,59,59,59,,,,,,4,1,0.699757729048,,,,,,2016_Okt_05_1505,P6,PLC_L_D1S1,NHGY,60.0186992692,
