fb_corr,fb_incorr,symbol2,symbol1,fb_late,pair,position,correct,block_01.thisRepN,block_01.thisTrialN,block_01.thisN,block_01.thisIndex,block_02.thisRepN,block_02.thisTrialN,block_02.thisN,block_02.thisIndex,block_03.thisRepN,block_03.thisTrialN,block_03.thisN,block_03.thisIndex,block_04.thisRepN,block_04.thisTrialN,block_04.thisN,block_04.thisIndex,mouse.x,mouse.y,mouse.leftButton,mouse.midButton,mouse.rightButton,buttonBox_2.keys,buttonBox_2.corr,buttonBox_2.rt,mouse_2.x,mouse_2.y,mouse_2.leftButton,mouse_2.midButton,mouse_2.rightButton,date,Participant,expName,Group,frameRate,
,,,,,,,,,,,,,,,,,,,,,,,,0.9984375,0.65625,1,0,0,,,,,,,,,2016_Jan_18_1215,P7,PLC_L_D1S1,NHGY,60.028910428,
stim/negf.jpg,stim/posf.jpg,stim/2.jpg,stim/1.jpg,stim/latef.jpg,CD,2,4,0,0,0,39,,,,,,,,,,,,,,,,,,None,0,,,,,,,2016_Jan_18_1215,P7,PLC_L_D1S1,NHGY,60.028910428,
stim/posf.jpg,stim/negf.jpg,stim/1.jpg,stim/2.jpg,stim/latef.jpg,CD,1,2,0,1,1,22,,,,,,,,,,,,,,,,,,4,0,1.18298641364,,,,,,2016_Jan_18_1215,P7,PLC_L_D1S1,NHGY,60.028910428,
stim/posf.jpg,stim/negf.jpg,stim/3.jpg,stim/6.jpg,stim/latef.jpg,AB,1,2,0,2,2,1,,,,,,,,,,,,,,,,,,2,1,1.18292833588,,,,,,2016_Jan_18_1215,P7,PLC_L_D1S1,NHGY,60.028910428,
stim/posf.jpg,stim/negf.jpg,stim/6.jpg,stim/3.jpg,stim/latef.jpg,AB,2,4,0,3,3,11,,,,,,,,,,,,,,,,,,2,0,1.16623952903,,,,,,2016_Jan_18_1215,P7,PLC_L_D1S1,NHGY,60.028910428,
stim/negf.jpg,stim/posf.jpg,stim/1.jpg,stim/2.jpg,stim/latef.jpg,CD,1,2,0,4,4,29,,,,,,,,,,,,,,,,,,4,0,1.26619422711,,,,,,2016_Jan_18_1215,P7,PLC_L_D1S1,NHGY,60.028910428,
stim/posf.jpg,stim/negf.jpg,stim/4.jpg,stim/5.jpg,stim/latef.jpg,EF,1,2,0,5,5,45,,,,,,,,,,,,,,,,,,4,0,1.39953858392,,,,,,2016_Jan_18_1215,P7,PLC_L_D1S1,NHGY,60.028910428,
stim/posf.jpg,stim/negf.jpg,stim/2.jpg,stim/1.jpg,stim/latef.jpg,CD,2,4,0,6,6,35,,,,,,,,,,,,,,,,,,4,1,1.39952746821,,,,,,2016_Jan_18_1215,P7,PLC_L_D1S1,NHGY,60.028910428,
stim/posf.jpg,stim/negf.jpg,stim/6.jpg,stim/3.jpg,stim/latef.jpg,AB,2,4,0,7,7,17,,,,,,,,,,,,,,,,,,2,0,1.38295132518,,,,,,2016_Jan_18_1215,P7,PLC_L_D1S1,NHGY,60.028910428,
stim/negf.jpg,stim/posf.jpg,stim/3.jpg,stim/6.jpg,stim/latef.jpg,AB,1,2,0,8,8,8,,,,,,,,,,,,,,,,,,4,0,1.56614699739,,,,,,2016_Jan_18_1215,P7,PLC_L_D1S1,NHGY,60.028910428,
stim/posf.jpg,stim/negf.jpg,stim/1.jpg,stim/2.jpg,stim/latef.jpg,CD,1,2,0,9,9,23,,,,,,,,,,,,,,,,,,2,1,1.51618591138,,,,,,2016_Jan_18_1215,P7,PLC_L_D1S1,NHGY,60.028910428,
stim/posf.jpg,stim/negf.jpg,stim/2.jpg,stim/1.jpg,stim/latef.jpg,CD,2,4,0,10,10,30,,,,,,,,,,,,,,,,,,None,0,,,,,,,2016_Jan_18_1215,P7,PLC_L_D1S1,NHGY,60.028910428,
stim/negf.jpg,stim/posf.jpg,stim/2.jpg,stim/1.jpg,stim/latef.jpg,CD,2,4,0,11,11,37,,,,,,,,,,,,,,,,,,4,1,1.48277477914,,,,,,2016_Jan_18_1215,P7,PLC_L_D1S1,NHGY,60.028910428,
stim/posf.jpg,stim/negf.jpg,stim/5.jpg,stim/4.jpg,stim/latef.jpg,EF,2,4,0,12,12,51,,,,,,,,,,,,,,,,,,2,0,1.31623427493,,,,,,2016_Jan_18_1215,P7,PLC_L_D1S1,NHGY,60.028910428,
stim/negf.jpg,stim/posf.jpg,stim/4.jpg,stim/5.jpg,stim/latef.jpg,EF,1,2,0,13,13,47,,,,,,,,,,,,,,,,,,4,0,1.332911936,,,,,,2016_Jan_18_1215,P7,PLC_L_D1S1,NHGY,60.028910428,
stim/posf.jpg,stim/negf.jpg,stim/2.jpg,stim/1.jpg,stim/latef.jpg,CD,2,4,0,14,14,34,,,,,,,,,,,,,,,,,,4,1,1.1162998985,,,,,,2016_Jan_18_1215,P7,PLC_L_D1S1,NHGY,60.028910428,
stim/posf.jpg,stim/negf.jpg,stim/6.jpg,stim/3.jpg,stim/latef.jpg,AB,2,4,0,15,15,15,,,,,,,,,,,,,,,,,,4,1,1.34958446929,,,,,,2016_Jan_18_1215,P7,PLC_L_D1S1,NHGY,60.028910428,
stim/posf.jpg,stim/negf.jpg,stim/5.jpg,stim/4.jpg,stim/latef.jpg,EF,2,4,0,16,16,50,,,,,,,,,,,,,,,,,,4,1,0.982982263291,,,,,,2016_Jan_18_1215,P7,PLC_L_D1S1,NHGY,60.028910428,
stim/posf.jpg,stim/negf.jpg,stim/1.jpg,stim/2.jpg,stim/latef.jpg,CD,1,2,0,17,17,26,,,,,,,,,,,,,,,,,,4,0,0.999711499913,,,,,,2016_Jan_18_1215,P7,PLC_L_D1S1,NHGY,60.028910428,
stim/posf.jpg,stim/negf.jpg,stim/3.jpg,stim/6.jpg,stim/latef.jpg,AB,1,2,0,18,18,6,,,,,,,,,,,,,,,,,,4,0,1.13292229983,,,,,,2016_Jan_18_1215,P7,PLC_L_D1S1,NHGY,60.028910428,
stim/posf.jpg,stim/negf.jpg,stim/2.jpg,stim/1.jpg,stim/latef.jpg,CD,2,4,0,19,19,33,,,,,,,,,,,,,,,,,,2,0,1.01632243367,,,,,,2016_Jan_18_1215,P7,PLC_L_D1S1,NHGY,60.028910428,
stim/posf.jpg,stim/negf.jpg,stim/4.jpg,stim/5.jpg,stim/latef.jpg,EF,1,2,0,20,20,43,,,,,,,,,,,,,,,,,,4,0,1.01633721852,,,,,,2016_Jan_18_1215,P7,PLC_L_D1S1,NHGY,60.028910428,
stim/posf.jpg,stim/negf.jpg,stim/5.jpg,stim/4.jpg,stim/latef.jpg,EF,2,4,0,21,21,53,,,,,,,,,,,,,,,,,,2,0,1.41620514733,,,,,,2016_Jan_18_1215,P7,PLC_L_D1S1,NHGY,60.028910428,
stim/negf.jpg,stim/posf.jpg,stim/5.jpg,stim/4.jpg,stim/latef.jpg,EF,2,4,0,22,22,56,,,,,,,,,,,,,,,,,,4,1,0.816451831189,,,,,,2016_Jan_18_1215,P7,PLC_L_D1S1,NHGY,60.028910428,
stim/posf.jpg,stim/negf.jpg,stim/6.jpg,stim/3.jpg,stim/latef.jpg,AB,2,4,0,23,23,12,,,,,,,,,,,,,,,,,,2,0,1.09964190946,,,,,,2016_Jan_18_1215,P7,PLC_L_D1S1,NHGY,60.028910428,
stim/posf.jpg,stim/negf.jpg,stim/6.jpg,stim/3.jpg,stim/latef.jpg,AB,2,4,0,24,24,10,,,,,,,,,,,,,,,,,,4,1,1.34957618364,,,,,,2016_Jan_18_1215,P7,PLC_L_D1S1,NHGY,60.028910428,
stim/negf.jpg,stim/posf.jpg,stim/6.jpg,stim/3.jpg,stim/latef.jpg,AB,2,4,0,25,25,19,,,,,,,,,,,,,,,,,,4,1,1.58272431636,,,,,,2016_Jan_18_1215,P7,PLC_L_D1S1,NHGY,60.028910428,
stim/posf.jpg,stim/negf.jpg,stim/4.jpg,stim/5.jpg,stim/latef.jpg,EF,1,2,0,26,26,42,,,,,,,,,,,,,,,,,,4,0,1.46618476854,,,,,,2016_Jan_18_1215,P7,PLC_L_D1S1,NHGY,60.028910428,
stim/posf.jpg,stim/negf.jpg,stim/1.jpg,stim/2.jpg,stim/latef.jpg,CD,1,2,0,27,27,21,,,,,,,,,,,,,,,,,,2,1,0.916374012226,,,,,,2016_Jan_18_1215,P7,PLC_L_D1S1,NHGY,60.028910428,
stim/posf.jpg,stim/negf.jpg,stim/1.jpg,stim/2.jpg,stim/latef.jpg,CD,1,2,0,28,28,25,,,,,,,,,,,,,,,,,,4,0,1.51618097308,,,,,,2016_Jan_18_1215,P7,PLC_L_D1S1,NHGY,60.028910428,
stim/posf.jpg,stim/negf.jpg,stim/3.jpg,stim/6.jpg,stim/latef.jpg,AB,1,2,0,29,29,2,,,,,,,,,,,,,,,,,,4,0,1.03297226637,,,,,,2016_Jan_18_1215,P7,PLC_L_D1S1,NHGY,60.028910428,
stim/posf.jpg,stim/negf.jpg,stim/2.jpg,stim/1.jpg,stim/latef.jpg,CD,2,4,0,30,30,31,,,,,,,,,,,,,,,,,,2,0,1.08298047383,,,,,,2016_Jan_18_1215,P7,PLC_L_D1S1,NHGY,60.028910428,
stim/posf.jpg,stim/negf.jpg,stim/6.jpg,stim/3.jpg,stim/latef.jpg,AB,2,4,0,31,31,16,,,,,,,,,,,,,,,,,,None,0,,,,,,,2016_Jan_18_1215,P7,PLC_L_D1S1,NHGY,60.028910428,
stim/negf.jpg,stim/posf.jpg,stim/5.jpg,stim/4.jpg,stim/latef.jpg,EF,2,4,0,32,32,59,,,,,,,,,,,,,,,,,,4,1,0.882999078202,,,,,,2016_Jan_18_1215,P7,PLC_L_D1S1,NHGY,60.028910428,
stim/posf.jpg,stim/negf.jpg,stim/6.jpg,stim/3.jpg,stim/latef.jpg,AB,2,4,0,33,33,14,,,,,,,,,,,,,,,,,,4,1,1.08299424215,,,,,,2016_Jan_18_1215,P7,PLC_L_D1S1,NHGY,60.028910428,
stim/posf.jpg,stim/negf.jpg,stim/3.jpg,stim/6.jpg,stim/latef.jpg,AB,1,2,0,34,34,7,,,,,,,,,,,,,,,,,,2,1,1.03299694589,,,,,,2016_Jan_18_1215,P7,PLC_L_D1S1,NHGY,60.028910428,
stim/posf.jpg,stim/negf.jpg,stim/3.jpg,stim/6.jpg,stim/latef.jpg,AB,1,2,0,35,35,3,,,,,,,,,,,,,,,,,,2,1,1.29956384689,,,,,,2016_Jan_18_1215,P7,PLC_L_D1S1,NHGY,60.028910428,
stim/negf.jpg,stim/posf.jpg,stim/1.jpg,stim/2.jpg,stim/latef.jpg,CD,1,2,0,36,36,27,,,,,,,,,,,,,,,,,,2,1,1.33289786693,,,,,,2016_Jan_18_1215,P7,PLC_L_D1S1,NHGY,60.028910428,
stim/posf.jpg,stim/negf.jpg,stim/5.jpg,stim/4.jpg,stim/latef.jpg,EF,2,4,0,37,37,52,,,,,,,,,,,,,,,,,,None,0,,,,,,,2016_Jan_18_1215,P7,PLC_L_D1S1,NHGY,60.028910428,
stim/posf.jpg,stim/negf.jpg,stim/2.jpg,stim/1.jpg,stim/latef.jpg,CD,2,4,0,38,38,36,,,,,,,,,,,,,,,,,,4,1,1.34955112518,,,,,,2016_Jan_18_1215,P7,PLC_L_D1S1,NHGY,60.028910428,
stim/posf.jpg,stim/negf.jpg,stim/3.jpg,stim/6.jpg,stim/latef.jpg,AB,1,2,0,39,39,4,,,,,,,,,,,,,,,,,,4,0,0.966353236442,,,,,,2016_Jan_18_1215,P7,PLC_L_D1S1,NHGY,60.028910428,
stim/posf.jpg,stim/negf.jpg,stim/4.jpg,stim/5.jpg,stim/latef.jpg,EF,1,2,0,40,40,41,,,,,,,,,,,,,,,,,,4,0,0.982991715852,,,,,,2016_Jan_18_1215,P7,PLC_L_D1S1,NHGY,60.028910428,
stim/negf.jpg,stim/posf.jpg,stim/1.jpg,stim/2.jpg,stim/latef.jpg,CD,1,2,0,41,41,28,,,,,,,,,,,,,,,,,,2,1,0.816394147413,,,,,,2016_Jan_18_1215,P7,PLC_L_D1S1,NHGY,60.028910428,
stim/negf.jpg,stim/posf.jpg,stim/4.jpg,stim/5.jpg,stim/latef.jpg,EF,1,2,0,42,42,48,,,,,,,,,,,,,,,,,,4,0,0.816399753386,,,,,,2016_Jan_18_1215,P7,PLC_L_D1S1,NHGY,60.028910428,
stim/posf.jpg,stim/negf.jpg,stim/2.jpg,stim/1.jpg,stim/latef.jpg,CD,2,4,0,43,43,32,,,,,,,,,,,,,,,,,,4,1,1.14968237231,,,,,,2016_Jan_18_1215,P7,PLC_L_D1S1,NHGY,60.028910428,
stim/posf.jpg,stim/negf.jpg,stim/4.jpg,stim/5.jpg,stim/latef.jpg,EF,1,2,0,44,44,44,,,,,,,,,,,,,,,,,,2,1,1.03298664221,,,,,,2016_Jan_18_1215,P7,PLC_L_D1S1,NHGY,60.028910428,
stim/negf.jpg,stim/posf.jpg,stim/2.jpg,stim/1.jpg,stim/latef.jpg,CD,2,4,0,45,45,38,,,,,,,,,,,,,,,,,,4,1,0.999680041503,,,,,,2016_Jan_18_1215,P7,PLC_L_D1S1,NHGY,60.028910428,
stim/posf.jpg,stim/negf.jpg,stim/6.jpg,stim/3.jpg,stim/latef.jpg,AB,2,4,0,46,46,13,,,,,,,,,,,,,,,,,,4,1,1.13289299178,,,,,,2016_Jan_18_1215,P7,PLC_L_D1S1,NHGY,60.028910428,
stim/negf.jpg,stim/posf.jpg,stim/5.jpg,stim/4.jpg,stim/latef.jpg,EF,2,4,0,47,47,57,,,,,,,,,,,,,,,,,,4,1,1.06627613326,,,,,,2016_Jan_18_1215,P7,PLC_L_D1S1,NHGY,60.028910428,
stim/negf.jpg,stim/posf.jpg,stim/4.jpg,stim/5.jpg,stim/latef.jpg,EF,1,2,0,48,48,46,,,,,,,,,,,,,,,,,,2,1,0.749743776362,,,,,,2016_Jan_18_1215,P7,PLC_L_D1S1,NHGY,60.028910428,
stim/negf.jpg,stim/posf.jpg,stim/3.jpg,stim/6.jpg,stim/latef.jpg,AB,1,2,0,49,49,9,,,,,,,,,,,,,,,,,,4,0,0.983002765392,,,,,,2016_Jan_18_1215,P7,PLC_L_D1S1,NHGY,60.028910428,
stim/posf.jpg,stim/negf.jpg,stim/1.jpg,stim/2.jpg,stim/latef.jpg,CD,1,2,0,50,50,20,,,,,,,,,,,,,,,,,,4,0,1.01633612379,,,,,,2016_Jan_18_1215,P7,PLC_L_D1S1,NHGY,60.028910428,
stim/posf.jpg,stim/negf.jpg,stim/1.jpg,stim/2.jpg,stim/latef.jpg,CD,1,2,0,51,51,24,,,,,,,,,,,,,,,,,,4,0,0.849729027601,,,,,,2016_Jan_18_1215,P7,PLC_L_D1S1,NHGY,60.028910428,
stim/posf.jpg,stim/negf.jpg,stim/3.jpg,stim/6.jpg,stim/latef.jpg,AB,1,2,0,52,52,5,,,,,,,,,,,,,,,,,,4,0,0.816388899332,,,,,,2016_Jan_18_1215,P7,PLC_L_D1S1,NHGY,60.028910428,
stim/posf.jpg,stim/negf.jpg,stim/4.jpg,stim/5.jpg,stim/latef.jpg,EF,1,2,0,53,53,40,,,,,,,,,,,,,,,,,,2,1,0.816354301096,,,,,,2016_Jan_18_1215,P7,PLC_L_D1S1,NHGY,60.028910428,
stim/negf.jpg,stim/posf.jpg,stim/6.jpg,stim/3.jpg,stim/latef.jpg,AB,2,4,0,54,54,18,,,,,,,,,,,,,,,,,,2,0,0.649781321945,,,,,,2016_Jan_18_1215,P7,PLC_L_D1S1,NHGY,60.028910428,
stim/posf.jpg,stim/negf.jpg,stim/5.jpg,stim/4.jpg,stim/latef.jpg,EF,2,4,0,55,55,54,,,,,,,,,,,,,,,,,,2,0,0.816382643739,,,,,,2016_Jan_18_1215,P7,PLC_L_D1S1,NHGY,60.028910428,
stim/negf.jpg,stim/posf.jpg,stim/5.jpg,stim/4.jpg,stim/latef.jpg,EF,2,4,0,56,56,58,,,,,,,,,,,,,,,,,,2,0,0.999688140691,,,,,,2016_Jan_18_1215,P7,PLC_L_D1S1,NHGY,60.028910428,
stim/posf.jpg,stim/negf.jpg,stim/5.jpg,stim/4.jpg,stim/latef.jpg,EF,2,4,0,57,57,55,,,,,,,,,,,,,,,,,,2,0,0.799746010932,,,,,,2016_Jan_18_1215,P7,PLC_L_D1S1,NHGY,60.028910428,
stim/negf.jpg,stim/posf.jpg,stim/4.jpg,stim/5.jpg,stim/latef.jpg,EF,1,2,0,58,58,49,,,,,,,,,,,,,,,,,,4,0,0.633109023241,,,,,,2016_Jan_18_1215,P7,PLC_L_D1S1,NHGY,60.028910428,
stim/posf.jpg,stim/negf.jpg,stim/3.jpg,stim/6.jpg,stim/latef.jpg,AB,1,2,0,59,59,0,,,,,,,,,,,,,,,,,,4,0,0.866382349005,,,,,,2016_Jan_18_1215,P7,PLC_L_D1S1,NHGY,60.028910428,
,,,,,,,,,,,,,,,,,,,,,,,,,,,,,,,,0.9984375,0.65625,1,0,0,2016_Jan_18_1215,P7,PLC_L_D1S1,NHGY,60.028910428,
stim/negf.jpg,stim/posf.jpg,stim/6.jpg,stim/3.jpg,stim/latef.jpg,AB,2,4,,,,,0,0,0,18,,,,,,,,,,,,,,2,0,0.883040542552,,,,,,2016_Jan_18_1215,P7,PLC_L_D1S1,NHGY,60.028910428,
stim/posf.jpg,stim/negf.jpg,stim/5.jpg,stim/4.jpg,stim/latef.jpg,EF,2,4,,,,,0,1,1,53,,,,,,,,,,,,,,4,1,0.933038452343,,,,,,2016_Jan_18_1215,P7,PLC_L_D1S1,NHGY,60.028910428,
stim/negf.jpg,stim/posf.jpg,stim/1.jpg,stim/2.jpg,stim/latef.jpg,CD,1,2,,,,,0,2,2,28,,,,,,,,,,,,,,2,1,0.933023772754,,,,,,2016_Jan_18_1215,P7,PLC_L_D1S1,NHGY,60.028910428,
stim/posf.jpg,stim/negf.jpg,stim/6.jpg,stim/3.jpg,stim/latef.jpg,AB,2,4,,,,,0,3,3,13,,,,,,,,,,,,,,4,1,1.0496466613,,,,,,2016_Jan_18_1215,P7,PLC_L_D1S1,NHGY,60.028910428,
stim/negf.jpg,stim/posf.jpg,stim/2.jpg,stim/1.jpg,stim/latef.jpg,CD,2,4,,,,,0,4,4,38,,,,,,,,,,,,,,4,1,1.29953125164,,,,,,2016_Jan_18_1215,P7,PLC_L_D1S1,NHGY,60.028910428,
stim/posf.jpg,stim/negf.jpg,stim/1.jpg,stim/2.jpg,stim/latef.jpg,CD,1,2,,,,,0,5,5,26,,,,,,,,,,,,,,2,1,1.06629455117,,,,,,2016_Jan_18_1215,P7,PLC_L_D1S1,NHGY,60.028910428,
stim/negf.jpg,stim/posf.jpg,stim/4.jpg,stim/5.jpg,stim/latef.jpg,EF,1,2,,,,,0,6,6,47,,,,,,,,,,,,,,2,1,1.1829471207,,,,,,2016_Jan_18_1215,P7,PLC_L_D1S1,NHGY,60.028910428,
stim/posf.jpg,stim/negf.jpg,stim/4.jpg,stim/5.jpg,stim/latef.jpg,EF,1,2,,,,,0,7,7,41,,,,,,,,,,,,,,4,0,1.18293842603,,,,,,2016_Jan_18_1215,P7,PLC_L_D1S1,NHGY,60.028910428,
stim/posf.jpg,stim/negf.jpg,stim/2.jpg,stim/1.jpg,stim/latef.jpg,CD,2,4,,,,,0,8,8,31,,,,,,,,,,,,,,4,1,1.0996325381,,,,,,2016_Jan_18_1215,P7,PLC_L_D1S1,NHGY,60.028910428,
stim/posf.jpg,stim/negf.jpg,stim/4.jpg,stim/5.jpg,stim/latef.jpg,EF,1,2,,,,,0,9,9,44,,,,,,,,,,,,,,4,0,1.19960753378,,,,,,2016_Jan_18_1215,P7,PLC_L_D1S1,NHGY,60.028910428,
stim/posf.jpg,stim/negf.jpg,stim/3.jpg,stim/6.jpg,stim/latef.jpg,AB,1,2,,,,,0,10,10,5,,,,,,,,,,,,,,2,1,0.783086073037,,,,,,2016_Jan_18_1215,P7,PLC_L_D1S1,NHGY,60.028910428,
stim/posf.jpg,stim/negf.jpg,stim/3.jpg,stim/6.jpg,stim/latef.jpg,AB,1,2,,,,,0,11,11,6,,,,,,,,,,,,,,4,0,1.36616903632,,,,,,2016_Jan_18_1215,P7,PLC_L_D1S1,NHGY,60.028910428,
stim/negf.jpg,stim/posf.jpg,stim/5.jpg,stim/4.jpg,stim/latef.jpg,EF,2,4,,,,,0,12,12,57,,,,,,,,,,,,,,2,0,0.683071029541,,,,,,2016_Jan_18_1215,P7,PLC_L_D1S1,NHGY,60.028910428,
stim/posf.jpg,stim/negf.jpg,stim/3.jpg,stim/6.jpg,stim/latef.jpg,AB,1,2,,,,,0,13,13,0,,,,,,,,,,,,,,2,1,0.883065411538,,,,,,2016_Jan_18_1215,P7,PLC_L_D1S1,NHGY,60.028910428,
stim/posf.jpg,stim/negf.jpg,stim/2.jpg,stim/1.jpg,stim/latef.jpg,CD,2,4,,,,,0,14,14,36,,,,,,,,,,,,,,4,1,0.799733147871,,,,,,2016_Jan_18_1215,P7,PLC_L_D1S1,NHGY,60.028910428,
stim/posf.jpg,stim/negf.jpg,stim/1.jpg,stim/2.jpg,stim/latef.jpg,CD,1,2,,,,,0,15,15,24,,,,,,,,,,,,,,2,1,0.983039745566,,,,,,2016_Jan_18_1215,P7,PLC_L_D1S1,NHGY,60.028910428,
stim/negf.jpg,stim/posf.jpg,stim/3.jpg,stim/6.jpg,stim/latef.jpg,AB,1,2,,,,,0,16,16,8,,,,,,,,,,,,,,4,0,0.966349916166,,,,,,2016_Jan_18_1215,P7,PLC_L_D1S1,NHGY,60.028910428,
stim/posf.jpg,stim/negf.jpg,stim/6.jpg,stim/3.jpg,stim/latef.jpg,AB,2,4,,,,,0,17,17,11,,,,,,,,,,,,,,4,1,1.11630743528,,,,,,2016_Jan_18_1215,P7,PLC_L_D1S1,NHGY,60.028910428,
stim/posf.jpg,stim/negf.jpg,stim/3.jpg,stim/6.jpg,stim/latef.jpg,AB,1,2,,,,,0,18,18,1,,,,,,,,,,,,,,4,0,1.19961166608,,,,,,2016_Jan_18_1215,P7,PLC_L_D1S1,NHGY,60.028910428,
stim/posf.jpg,stim/negf.jpg,stim/4.jpg,stim/5.jpg,stim/latef.jpg,EF,1,2,,,,,0,19,19,43,,,,,,,,,,,,,,2,1,0.583144989887,,,,,,2016_Jan_18_1215,P7,PLC_L_D1S1,NHGY,60.028910428,
stim/negf.jpg,stim/posf.jpg,stim/5.jpg,stim/4.jpg,stim/latef.jpg,EF,2,4,,,,,0,20,20,58,,,,,,,,,,,,,,4,1,1.01633694784,,,,,,2016_Jan_18_1215,P7,PLC_L_D1S1,NHGY,60.028910428,
stim/posf.jpg,stim/negf.jpg,stim/4.jpg,stim/5.jpg,stim/latef.jpg,EF,1,2,,,,,0,21,21,45,,,,,,,,,,,,,,4,0,0.799724651694,,,,,,2016_Jan_18_1215,P7,PLC_L_D1S1,NHGY,60.028910428,
stim/negf.jpg,stim/posf.jpg,stim/2.jpg,stim/1.jpg,stim/latef.jpg,CD,2,4,,,,,0,22,22,39,,,,,,,,,,,,,,2,0,1.31623542981,,,,,,2016_Jan_18_1215,P7,PLC_L_D1S1,NHGY,60.028910428,
stim/posf.jpg,stim/negf.jpg,stim/2.jpg,stim/1.jpg,stim/latef.jpg,CD,2,4,,,,,0,23,23,33,,,,,,,,,,,,,,2,0,1.03299399253,,,,,,2016_Jan_18_1215,P7,PLC_L_D1S1,NHGY,60.028910428,
stim/posf.jpg,stim/negf.jpg,stim/1.jpg,stim/2.jpg,stim/latef.jpg,CD,1,2,,,,,0,24,24,20,,,,,,,,,,,,,,4,0,0.849722209608,,,,,,2016_Jan_18_1215,P7,PLC_L_D1S1,NHGY,60.028910428,
stim/posf.jpg,stim/negf.jpg,stim/1.jpg,stim/2.jpg,stim/latef.jpg,CD,1,2,,,,,0,25,25,21,,,,,,,,,,,,,,2,1,0.966368851362,,,,,,2016_Jan_18_1215,P7,PLC_L_D1S1,NHGY,60.028910428,
stim/posf.jpg,stim/negf.jpg,stim/2.jpg,stim/1.jpg,stim/latef.jpg,CD,2,4,,,,,0,26,26,34,,,,,,,,,,,,,,2,0,0.916373413734,,,,,,2016_Jan_18_1215,P7,PLC_L_D1S1,NHGY,60.028910428,
stim/posf.jpg,stim/negf.jpg,stim/6.jpg,stim/3.jpg,stim/latef.jpg,AB,2,4,,,,,0,27,27,14,,,,,,,,,,,,,,4,1,0.766362289005,,,,,,2016_Jan_18_1215,P7,PLC_L_D1S1,NHGY,60.028910428,
stim/posf.jpg,stim/negf.jpg,stim/1.jpg,stim/2.jpg,stim/latef.jpg,CD,1,2,,,,,0,28,28,25,,,,,,,,,,,,,,2,1,0.883029144142,,,,,,2016_Jan_18_1215,P7,PLC_L_D1S1,NHGY,60.028910428,
stim/posf.jpg,stim/negf.jpg,stim/5.jpg,stim/4.jpg,stim/latef.jpg,EF,2,4,,,,,0,29,29,50,,,,,,,,,,,,,,4,1,0.866365137104,,,,,,2016_Jan_18_1215,P7,PLC_L_D1S1,NHGY,60.028910428,
stim/posf.jpg,stim/negf.jpg,stim/5.jpg,stim/4.jpg,stim/latef.jpg,EF,2,4,,,,,0,30,30,55,,,,,,,,,,,,,,2,0,0.982973216743,,,,,,2016_Jan_18_1215,P7,PLC_L_D1S1,NHGY,60.028910428,
stim/posf.jpg,stim/negf.jpg,stim/3.jpg,stim/6.jpg,stim/latef.jpg,AB,1,2,,,,,0,31,31,2,,,,,,,,,,,,,,4,0,1.01629261133,,,,,,2016_Jan_18_1215,P7,PLC_L_D1S1,NHGY,60.028910428,
stim/posf.jpg,stim/negf.jpg,stim/5.jpg,stim/4.jpg,stim/latef.jpg,EF,2,4,,,,,0,32,32,52,,,,,,,,,,,,,,4,1,0.816396270705,,,,,,2016_Jan_18_1215,P7,PLC_L_D1S1,NHGY,60.028910428,
stim/negf.jpg,stim/posf.jpg,stim/4.jpg,stim/5.jpg,stim/latef.jpg,EF,1,2,,,,,0,33,33,49,,,,,,,,,,,,,,2,1,0.749765057405,,,,,,2016_Jan_18_1215,P7,PLC_L_D1S1,NHGY,60.028910428,
stim/posf.jpg,stim/negf.jpg,stim/5.jpg,stim/4.jpg,stim/latef.jpg,EF,2,4,,,,,0,34,34,51,,,,,,,,,,,,,,2,0,0.883042984639,,,,,,2016_Jan_18_1215,P7,PLC_L_D1S1,NHGY,60.028910428,
stim/posf.jpg,stim/negf.jpg,stim/2.jpg,stim/1.jpg,stim/latef.jpg,CD,2,4,,,,,0,35,35,30,,,,,,,,,,,,,,2,0,1.34955877023,,,,,,2016_Jan_18_1215,P7,PLC_L_D1S1,NHGY,60.028910428,
stim/posf.jpg,stim/negf.jpg,stim/4.jpg,stim/5.jpg,stim/latef.jpg,EF,1,2,,,,,0,36,36,40,,,,,,,,,,,,,,4,0,0.966344680115,,,,,,2016_Jan_18_1215,P7,PLC_L_D1S1,NHGY,60.028910428,
stim/negf.jpg,stim/posf.jpg,stim/1.jpg,stim/2.jpg,stim/latef.jpg,CD,1,2,,,,,0,37,37,29,,,,,,,,,,,,,,4,0,0.91638276404,,,,,,2016_Jan_18_1215,P7,PLC_L_D1S1,NHGY,60.028910428,
stim/negf.jpg,stim/posf.jpg,stim/3.jpg,stim/6.jpg,stim/latef.jpg,AB,1,2,,,,,0,38,38,9,,,,,,,,,,,,,,4,0,1.31624496357,,,,,,2016_Jan_18_1215,P7,PLC_L_D1S1,NHGY,60.028910428,
stim/negf.jpg,stim/posf.jpg,stim/2.jpg,stim/1.jpg,stim/latef.jpg,CD,2,4,,,,,0,39,39,37,,,,,,,,,,,,,,4,1,1.41619369478,,,,,,2016_Jan_18_1215,P7,PLC_L_D1S1,NHGY,60.028910428,
stim/negf.jpg,stim/posf.jpg,stim/5.jpg,stim/4.jpg,stim/latef.jpg,EF,2,4,,,,,0,40,40,56,,,,,,,,,,,,,,2,0,1.06629241284,,,,,,2016_Jan_18_1215,P7,PLC_L_D1S1,NHGY,60.028910428,
stim/posf.jpg,stim/negf.jpg,stim/3.jpg,stim/6.jpg,stim/latef.jpg,AB,1,2,,,,,0,41,41,7,,,,,,,,,,,,,,4,0,1.28296035067,,,,,,2016_Jan_18_1215,P7,PLC_L_D1S1,NHGY,60.028910428,
stim/posf.jpg,stim/negf.jpg,stim/6.jpg,stim/3.jpg,stim/latef.jpg,AB,2,4,,,,,0,42,42,17,,,,,,,,,,,,,,2,0,1.08298666627,,,,,,2016_Jan_18_1215,P7,PLC_L_D1S1,NHGY,60.028910428,
stim/negf.jpg,stim/posf.jpg,stim/5.jpg,stim/4.jpg,stim/latef.jpg,EF,2,4,,,,,0,43,43,59,,,,,,,,,,,,,,4,1,0.866463001031,,,,,,2016_Jan_18_1215,P7,PLC_L_D1S1,NHGY,60.028910428,
stim/posf.jpg,stim/negf.jpg,stim/2.jpg,stim/1.jpg,stim/latef.jpg,CD,2,4,,,,,0,44,44,32,,,,,,,,,,,,,,4,1,0.999658781513,,,,,,2016_Jan_18_1215,P7,PLC_L_D1S1,NHGY,60.028910428,
stim/posf.jpg,stim/negf.jpg,stim/6.jpg,stim/3.jpg,stim/latef.jpg,AB,2,4,,,,,0,45,45,10,,,,,,,,,,,,,,2,0,0.916367317539,,,,,,2016_Jan_18_1215,P7,PLC_L_D1S1,NHGY,60.028910428,
stim/posf.jpg,stim/negf.jpg,stim/6.jpg,stim/3.jpg,stim/latef.jpg,AB,2,4,,,,,0,46,46,12,,,,,,,,,,,,,,4,1,1.24964445079,,,,,,2016_Jan_18_1215,P7,PLC_L_D1S1,NHGY,60.028910428,
stim/posf.jpg,stim/negf.jpg,stim/2.jpg,stim/1.jpg,stim/latef.jpg,CD,2,4,,,,,0,47,47,35,,,,,,,,,,,,,,2,0,1.06632335998,,,,,,2016_Jan_18_1215,P7,PLC_L_D1S1,NHGY,60.028910428,
stim/posf.jpg,stim/negf.jpg,stim/4.jpg,stim/5.jpg,stim/latef.jpg,EF,1,2,,,,,0,48,48,42,,,,,,,,,,,,,,2,1,1.18295042894,,,,,,2016_Jan_18_1215,P7,PLC_L_D1S1,NHGY,60.028910428,
stim/posf.jpg,stim/negf.jpg,stim/5.jpg,stim/4.jpg,stim/latef.jpg,EF,2,4,,,,,0,49,49,54,,,,,,,,,,,,,,2,0,1.03305002218,,,,,,2016_Jan_18_1215,P7,PLC_L_D1S1,NHGY,60.028910428,
stim/negf.jpg,stim/posf.jpg,stim/4.jpg,stim/5.jpg,stim/latef.jpg,EF,1,2,,,,,0,50,50,46,,,,,,,,,,,,,,4,0,0.683127227614,,,,,,2016_Jan_18_1215,P7,PLC_L_D1S1,NHGY,60.028910428,
stim/posf.jpg,stim/negf.jpg,stim/6.jpg,stim/3.jpg,stim/latef.jpg,AB,2,4,,,,,0,51,51,15,,,,,,,,,,,,,,4,1,0.849717286336,,,,,,2016_Jan_18_1215,P7,PLC_L_D1S1,NHGY,60.028910428,
stim/negf.jpg,stim/posf.jpg,stim/6.jpg,stim/3.jpg,stim/latef.jpg,AB,2,4,,,,,0,52,52,19,,,,,,,,,,,,,,2,0,1.11632836144,,,,,,2016_Jan_18_1215,P7,PLC_L_D1S1,NHGY,60.028910428,
stim/negf.jpg,stim/posf.jpg,stim/4.jpg,stim/5.jpg,stim/latef.jpg,EF,1,2,,,,,0,53,53,48,,,,,,,,,,,,,,2,1,0.949673758843,,,,,,2016_Jan_18_1215,P7,PLC_L_D1S1,NHGY,60.028910428,
stim/posf.jpg,stim/negf.jpg,stim/1.jpg,stim/2.jpg,stim/latef.jpg,CD,1,2,,,,,0,54,54,22,,,,,,,,,,,,,,4,0,1.03297285584,,,,,,2016_Jan_18_1215,P7,PLC_L_D1S1,NHGY,60.028910428,
stim/posf.jpg,stim/negf.jpg,stim/3.jpg,stim/6.jpg,stim/latef.jpg,AB,1,2,,,,,0,55,55,4,,,,,,,,,,,,,,2,1,0.59980118345,,,,,,2016_Jan_18_1215,P7,PLC_L_D1S1,NHGY,60.028910428,
stim/posf.jpg,stim/negf.jpg,stim/1.jpg,stim/2.jpg,stim/latef.jpg,CD,1,2,,,,,0,56,56,23,,,,,,,,,,,,,,2,1,1.41618438658,,,,,,2016_Jan_18_1215,P7,PLC_L_D1S1,NHGY,60.028910428,
stim/posf.jpg,stim/negf.jpg,stim/6.jpg,stim/3.jpg,stim/latef.jpg,AB,2,4,,,,,0,57,57,16,,,,,,,,,,,,,,2,0,1.06631306832,,,,,,2016_Jan_18_1215,P7,PLC_L_D1S1,NHGY,60.028910428,
stim/posf.jpg,stim/negf.jpg,stim/3.jpg,stim/6.jpg,stim/latef.jpg,AB,1,2,,,,,0,58,58,3,,,,,,,,,,,,,,4,0,0.966352015399,,,,,,2016_Jan_18_1215,P7,PLC_L_D1S1,NHGY,60.028910428,
stim/negf.jpg,stim/posf.jpg,stim/1.jpg,stim/2.jpg,stim/latef.jpg,CD,1,2,,,,,0,59,59,27,,,,,,,,,,,,,,4,0,1.23293568018,,,,,,2016_Jan_18_1215,P7,PLC_L_D1S1,NHGY,60.028910428,
,,,,,,,,,,,,,,,,,,,,,,,,,,,,,,,,0.9984375,0.65625,1,0,0,2016_Jan_18_1215,P7,PLC_L_D1S1,NHGY,60.028910428,
stim/negf.jpg,stim/posf.jpg,stim/4.jpg,stim/5.jpg,stim/latef.jpg,EF,1,2,,,,,,,,,0,0,0,49,,,,,,,,,,2,1,0.916358141668,,,,,,2016_Jan_18_1215,P7,PLC_L_D1S1,NHGY,60.028910428,
stim/posf.jpg,stim/negf.jpg,stim/1.jpg,stim/2.jpg,stim/latef.jpg,CD,1,2,,,,,,,,,0,1,1,20,,,,,,,,,,2,1,1.18292519605,,,,,,2016_Jan_18_1215,P7,PLC_L_D1S1,NHGY,60.028910428,
stim/negf.jpg,stim/posf.jpg,stim/4.jpg,stim/5.jpg,stim/latef.jpg,EF,1,2,,,,,,,,,0,2,2,47,,,,,,,,,,2,1,1.03297671145,,,,,,2016_Jan_18_1215,P7,PLC_L_D1S1,NHGY,60.028910428,
stim/posf.jpg,stim/negf.jpg,stim/2.jpg,stim/1.jpg,stim/latef.jpg,CD,2,4,,,,,,,,,0,3,3,31,,,,,,,,,,4,1,1.34953356441,,,,,,2016_Jan_18_1215,P7,PLC_L_D1S1,NHGY,60.028910428,
stim/posf.jpg,stim/negf.jpg,stim/5.jpg,stim/4.jpg,stim/latef.jpg,EF,2,4,,,,,,,,,0,4,4,51,,,,,,,,,,2,0,1.26623557718,,,,,,2016_Jan_18_1215,P7,PLC_L_D1S1,NHGY,60.028910428,
stim/posf.jpg,stim/negf.jpg,stim/2.jpg,stim/1.jpg,stim/latef.jpg,CD,2,4,,,,,,,,,0,5,5,35,,,,,,,,,,4,1,1.13298812791,,,,,,2016_Jan_18_1215,P7,PLC_L_D1S1,NHGY,60.028910428,
stim/posf.jpg,stim/negf.jpg,stim/4.jpg,stim/5.jpg,stim/latef.jpg,EF,1,2,,,,,,,,,0,6,6,43,,,,,,,,,,2,1,1.36624231998,,,,,,2016_Jan_18_1215,P7,PLC_L_D1S1,NHGY,60.028910428,
stim/negf.jpg,stim/posf.jpg,stim/3.jpg,stim/6.jpg,stim/latef.jpg,AB,1,2,,,,,,,,,0,7,7,9,,,,,,,,,,4,0,1.33287912121,,,,,,2016_Jan_18_1215,P7,PLC_L_D1S1,NHGY,60.028910428,
stim/negf.jpg,stim/posf.jpg,stim/2.jpg,stim/1.jpg,stim/latef.jpg,CD,2,4,,,,,,,,,0,8,8,39,,,,,,,,,,4,1,1.29958159412,,,,,,2016_Jan_18_1215,P7,PLC_L_D1S1,NHGY,60.028910428,
stim/negf.jpg,stim/posf.jpg,stim/1.jpg,stim/2.jpg,stim/latef.jpg,CD,1,2,,,,,,,,,0,9,9,28,,,,,,,,,,4,0,1.48282794866,,,,,,2016_Jan_18_1215,P7,PLC_L_D1S1,NHGY,60.028910428,
stim/posf.jpg,stim/negf.jpg,stim/3.jpg,stim/6.jpg,stim/latef.jpg,AB,1,2,,,,,,,,,0,10,10,1,,,,,,,,,,2,1,1.18286723859,,,,,,2016_Jan_18_1215,P7,PLC_L_D1S1,NHGY,60.028910428,
stim/posf.jpg,stim/negf.jpg,stim/3.jpg,stim/6.jpg,stim/latef.jpg,AB,1,2,,,,,,,,,0,11,11,2,,,,,,,,,,2,1,1.18294149668,,,,,,2016_Jan_18_1215,P7,PLC_L_D1S1,NHGY,60.028910428,
stim/posf.jpg,stim/negf.jpg,stim/6.jpg,stim/3.jpg,stim/latef.jpg,AB,2,4,,,,,,,,,0,12,12,12,,,,,,,,,,4,1,1.03300217592,,,,,,2016_Jan_18_1215,P7,PLC_L_D1S1,NHGY,60.028910428,
stim/posf.jpg,stim/negf.jpg,stim/3.jpg,stim/6.jpg,stim/latef.jpg,AB,1,2,,,,,,,,,0,13,13,6,,,,,,,,,,2,1,1.24959315795,,,,,,2016_Jan_18_1215,P7,PLC_L_D1S1,NHGY,60.028910428,
stim/posf.jpg,stim/negf.jpg,stim/6.jpg,stim/3.jpg,stim/latef.jpg,AB,2,4,,,,,,,,,0,14,14,11,,,,,,,,,,2,0,1.24947788362,,,,,,2016_Jan_18_1215,P7,PLC_L_D1S1,NHGY,60.028910428,
stim/posf.jpg,stim/negf.jpg,stim/2.jpg,stim/1.jpg,stim/latef.jpg,CD,2,4,,,,,,,,,0,15,15,30,,,,,,,,,,4,1,1.38289130157,,,,,,2016_Jan_18_1215,P7,PLC_L_D1S1,NHGY,60.028910428,
stim/posf.jpg,stim/negf.jpg,stim/5.jpg,stim/4.jpg,stim/latef.jpg,EF,2,4,,,,,,,,,0,16,16,53,,,,,,,,,,4,1,1.18292440809,,,,,,2016_Jan_18_1215,P7,PLC_L_D1S1,NHGY,60.028910428,
stim/posf.jpg,stim/negf.jpg,stim/2.jpg,stim/1.jpg,stim/latef.jpg,CD,2,4,,,,,,,,,0,17,17,34,,,,,,,,,,2,0,1.48290119623,,,,,,2016_Jan_18_1215,P7,PLC_L_D1S1,NHGY,60.028910428,
stim/posf.jpg,stim/negf.jpg,stim/4.jpg,stim/5.jpg,stim/latef.jpg,EF,1,2,,,,,,,,,0,18,18,41,,,,,,,,,,2,1,1.38287905505,,,,,,2016_Jan_18_1215,P7,PLC_L_D1S1,NHGY,60.028910428,
stim/posf.jpg,stim/negf.jpg,stim/5.jpg,stim/4.jpg,stim/latef.jpg,EF,2,4,,,,,,,,,0,19,19,50,,,,,,,,,,4,1,0.666447304908,,,,,,2016_Jan_18_1215,P7,PLC_L_D1S1,NHGY,60.028910428,
stim/posf.jpg,stim/negf.jpg,stim/3.jpg,stim/6.jpg,stim/latef.jpg,AB,1,2,,,,,,,,,0,20,20,7,,,,,,,,,,4,0,1.16631318261,,,,,,2016_Jan_18_1215,P7,PLC_L_D1S1,NHGY,60.028910428,
stim/posf.jpg,stim/negf.jpg,stim/6.jpg,stim/3.jpg,stim/latef.jpg,AB,2,4,,,,,,,,,0,21,21,13,,,,,,,,,,4,1,1.33290160525,,,,,,2016_Jan_18_1215,P7,PLC_L_D1S1,NHGY,60.028910428,
stim/posf.jpg,stim/negf.jpg,stim/2.jpg,stim/1.jpg,stim/latef.jpg,CD,2,4,,,,,,,,,0,22,22,32,,,,,,,,,,2,0,1.51616949046,,,,,,2016_Jan_18_1215,P7,PLC_L_D1S1,NHGY,60.028910428,
stim/negf.jpg,stim/posf.jpg,stim/6.jpg,stim/3.jpg,stim/latef.jpg,AB,2,4,,,,,,,,,0,23,23,18,,,,,,,,,,4,1,1.01631235855,,,,,,2016_Jan_18_1215,P7,PLC_L_D1S1,NHGY,60.028910428,
stim/negf.jpg,stim/posf.jpg,stim/1.jpg,stim/2.jpg,stim/latef.jpg,CD,1,2,,,,,,,,,0,24,24,29,,,,,,,,,,4,0,1.24958882414,,,,,,2016_Jan_18_1215,P7,PLC_L_D1S1,NHGY,60.028910428,
stim/negf.jpg,stim/posf.jpg,stim/4.jpg,stim/5.jpg,stim/latef.jpg,EF,1,2,,,,,,,,,0,25,25,48,,,,,,,,,,2,1,1.03303090353,,,,,,2016_Jan_18_1215,P7,PLC_L_D1S1,NHGY,60.028910428,
stim/negf.jpg,stim/posf.jpg,stim/5.jpg,stim/4.jpg,stim/latef.jpg,EF,2,4,,,,,,,,,0,26,26,56,,,,,,,,,,2,0,1.28290329847,,,,,,2016_Jan_18_1215,P7,PLC_L_D1S1,NHGY,60.028910428,
stim/negf.jpg,stim/posf.jpg,stim/3.jpg,stim/6.jpg,stim/latef.jpg,AB,1,2,,,,,,,,,0,27,27,8,,,,,,,,,,4,0,1.5495651371,,,,,,2016_Jan_18_1215,P7,PLC_L_D1S1,NHGY,60.028910428,
stim/posf.jpg,stim/negf.jpg,stim/4.jpg,stim/5.jpg,stim/latef.jpg,EF,1,2,,,,,,,,,0,28,28,44,,,,,,,,,,4,0,1.31617785731,,,,,,2016_Jan_18_1215,P7,PLC_L_D1S1,NHGY,60.028910428,
stim/posf.jpg,stim/negf.jpg,stim/6.jpg,stim/3.jpg,stim/latef.jpg,AB,2,4,,,,,,,,,0,29,29,10,,,,,,,,,,2,0,1.19959303464,,,,,,2016_Jan_18_1215,P7,PLC_L_D1S1,NHGY,60.028910428,
stim/negf.jpg,stim/posf.jpg,stim/6.jpg,stim/3.jpg,stim/latef.jpg,AB,2,4,,,,,,,,,0,30,30,19,,,,,,,,,,4,1,1.28294275682,,,,,,2016_Jan_18_1215,P7,PLC_L_D1S1,NHGY,60.028910428,
stim/posf.jpg,stim/negf.jpg,stim/6.jpg,stim/3.jpg,stim/latef.jpg,AB,2,4,,,,,,,,,0,31,31,15,,,,,,,,,,2,0,0.916372442312,,,,,,2016_Jan_18_1215,P7,PLC_L_D1S1,NHGY,60.028910428,
stim/posf.jpg,stim/negf.jpg,stim/3.jpg,stim/6.jpg,stim/latef.jpg,AB,1,2,,,,,,,,,0,32,32,5,,,,,,,,,,4,0,1.01631299915,,,,,,2016_Jan_18_1215,P7,PLC_L_D1S1,NHGY,60.028910428,
stim/posf.jpg,stim/negf.jpg,stim/2.jpg,stim/1.jpg,stim/latef.jpg,CD,2,4,,,,,,,,,0,33,33,36,,,,,,,,,,4,1,0.817396028601,,,,,,2016_Jan_18_1215,P7,PLC_L_D1S1,NHGY,60.028910428,
stim/negf.jpg,stim/posf.jpg,stim/5.jpg,stim/4.jpg,stim/latef.jpg,EF,2,4,,,,,,,,,0,34,34,58,,,,,,,,,,2,0,1.08296795062,,,,,,2016_Jan_18_1215,P7,PLC_L_D1S1,NHGY,60.028910428,
stim/negf.jpg,stim/posf.jpg,stim/2.jpg,stim/1.jpg,stim/latef.jpg,CD,2,4,,,,,,,,,0,35,35,37,,,,,,,,,,4,1,1.34952036451,,,,,,2016_Jan_18_1215,P7,PLC_L_D1S1,NHGY,60.028910428,
stim/posf.jpg,stim/negf.jpg,stim/1.jpg,stim/2.jpg,stim/latef.jpg,CD,1,2,,,,,,,,,0,36,36,24,,,,,,,,,,2,1,1.19959961504,,,,,,2016_Jan_18_1215,P7,PLC_L_D1S1,NHGY,60.028910428,
stim/posf.jpg,stim/negf.jpg,stim/1.jpg,stim/2.jpg,stim/latef.jpg,CD,1,2,,,,,,,,,0,37,37,22,,,,,,,,,,4,0,0.966337098217,,,,,,2016_Jan_18_1215,P7,PLC_L_D1S1,NHGY,60.028910428,
stim/posf.jpg,stim/negf.jpg,stim/4.jpg,stim/5.jpg,stim/latef.jpg,EF,1,2,,,,,,,,,0,38,38,45,,,,,,,,,,4,0,0.949685623416,,,,,,2016_Jan_18_1215,P7,PLC_L_D1S1,NHGY,60.028910428,
stim/posf.jpg,stim/negf.jpg,stim/6.jpg,stim/3.jpg,stim/latef.jpg,AB,2,4,,,,,,,,,0,39,39,14,,,,,,,,,,4,1,1.43291110292,,,,,,2016_Jan_18_1215,P7,PLC_L_D1S1,NHGY,60.028910428,
stim/negf.jpg,stim/posf.jpg,stim/1.jpg,stim/2.jpg,stim/latef.jpg,CD,1,2,,,,,,,,,0,40,40,27,,,,,,,,,,2,1,1.08294910565,,,,,,2016_Jan_18_1215,P7,PLC_L_D1S1,NHGY,60.028910428,
stim/negf.jpg,stim/posf.jpg,stim/5.jpg,stim/4.jpg,stim/latef.jpg,EF,2,4,,,,,,,,,0,41,41,57,,,,,,,,,,2,0,1.09965196352,,,,,,2016_Jan_18_1215,P7,PLC_L_D1S1,NHGY,60.028910428,
stim/posf.jpg,stim/negf.jpg,stim/5.jpg,stim/4.jpg,stim/latef.jpg,EF,2,4,,,,,,,,,0,42,42,52,,,,,,,,,,4,1,0.966288921136,,,,,,2016_Jan_18_1215,P7,PLC_L_D1S1,NHGY,60.028910428,
stim/negf.jpg,stim/posf.jpg,stim/2.jpg,stim/1.jpg,stim/latef.jpg,CD,2,4,,,,,,,,,0,43,43,38,,,,,,,,,,4,1,1.51618328885,,,,,,2016_Jan_18_1215,P7,PLC_L_D1S1,NHGY,60.028910428,
stim/posf.jpg,stim/negf.jpg,stim/5.jpg,stim/4.jpg,stim/latef.jpg,EF,2,4,,,,,,,,,0,44,44,54,,,,,,,,,,2,0,1.46622926143,,,,,,2016_Jan_18_1215,P7,PLC_L_D1S1,NHGY,60.028910428,
stim/posf.jpg,stim/negf.jpg,stim/1.jpg,stim/2.jpg,stim/latef.jpg,CD,1,2,,,,,,,,,0,45,45,25,,,,,,,,,,4,0,0.733098169187,,,,,,2016_Jan_18_1215,P7,PLC_L_D1S1,NHGY,60.028910428,
stim/posf.jpg,stim/negf.jpg,stim/6.jpg,stim/3.jpg,stim/latef.jpg,AB,2,4,,,,,,,,,0,46,46,17,,,,,,,,,,2,0,0.849730895256,,,,,,2016_Jan_18_1215,P7,PLC_L_D1S1,NHGY,60.028910428,
stim/posf.jpg,stim/negf.jpg,stim/1.jpg,stim/2.jpg,stim/latef.jpg,CD,1,2,,,,,,,,,0,47,47,21,,,,,,,,,,4,0,0.583160316088,,,,,,2016_Jan_18_1215,P7,PLC_L_D1S1,NHGY,60.028910428,
stim/posf.jpg,stim/negf.jpg,stim/1.jpg,stim/2.jpg,stim/latef.jpg,CD,1,2,,,,,,,,,0,48,48,23,,,,,,,,,,4,0,0.766411058564,,,,,,2016_Jan_18_1215,P7,PLC_L_D1S1,NHGY,60.028910428,
stim/posf.jpg,stim/negf.jpg,stim/1.jpg,stim/2.jpg,stim/latef.jpg,CD,1,2,,,,,,,,,0,49,49,26,,,,,,,,,,2,1,0.749766946113,,,,,,2016_Jan_18_1215,P7,PLC_L_D1S1,NHGY,60.028910428,
stim/posf.jpg,stim/negf.jpg,stim/3.jpg,stim/6.jpg,stim/latef.jpg,AB,1,2,,,,,,,,,0,50,50,4,,,,,,,,,,2,1,1.18295155375,,,,,,2016_Jan_18_1215,P7,PLC_L_D1S1,NHGY,60.028910428,
stim/posf.jpg,stim/negf.jpg,stim/4.jpg,stim/5.jpg,stim/latef.jpg,EF,1,2,,,,,,,,,0,51,51,42,,,,,,,,,,4,0,1.24959057451,,,,,,2016_Jan_18_1215,P7,PLC_L_D1S1,NHGY,60.028910428,
stim/posf.jpg,stim/negf.jpg,stim/3.jpg,stim/6.jpg,stim/latef.jpg,AB,1,2,,,,,,,,,0,52,52,3,,,,,,,,,,2,1,1.13294475981,,,,,,2016_Jan_18_1215,P7,PLC_L_D1S1,NHGY,60.028910428,
stim/posf.jpg,stim/negf.jpg,stim/5.jpg,stim/4.jpg,stim/latef.jpg,EF,2,4,,,,,,,,,0,53,53,55,,,,,,,,,,2,0,1.11628590462,,,,,,2016_Jan_18_1215,P7,PLC_L_D1S1,NHGY,60.028910428,
stim/negf.jpg,stim/posf.jpg,stim/5.jpg,stim/4.jpg,stim/latef.jpg,EF,2,4,,,,,,,,,0,54,54,59,,,,,,,,,,4,1,1.29955495372,,,,,,2016_Jan_18_1215,P7,PLC_L_D1S1,NHGY,60.028910428,
stim/negf.jpg,stim/posf.jpg,stim/4.jpg,stim/5.jpg,stim/latef.jpg,EF,1,2,,,,,,,,,0,55,55,46,,,,,,,,,,4,0,0.883052831182,,,,,,2016_Jan_18_1215,P7,PLC_L_D1S1,NHGY,60.028910428,
stim/posf.jpg,stim/negf.jpg,stim/4.jpg,stim/5.jpg,stim/latef.jpg,EF,1,2,,,,,,,,,0,56,56,40,,,,,,,,,,2,1,0.99963091706,,,,,,2016_Jan_18_1215,P7,PLC_L_D1S1,NHGY,60.028910428,
stim/posf.jpg,stim/negf.jpg,stim/6.jpg,stim/3.jpg,stim/latef.jpg,AB,2,4,,,,,,,,,0,57,57,16,,,,,,,,,,2,0,0.916373134037,,,,,,2016_Jan_18_1215,P7,PLC_L_D1S1,NHGY,60.028910428,
stim/posf.jpg,stim/negf.jpg,stim/3.jpg,stim/6.jpg,stim/latef.jpg,AB,1,2,,,,,,,,,0,58,58,0,,,,,,,,,,4,0,0.98302345396,,,,,,2016_Jan_18_1215,P7,PLC_L_D1S1,NHGY,60.028910428,
stim/posf.jpg,stim/negf.jpg,stim/2.jpg,stim/1.jpg,stim/latef.jpg,CD,2,4,,,,,,,,,0,59,59,33,,,,,,,,,,4,1,0.899702709002,,,,,,2016_Jan_18_1215,P7,PLC_L_D1S1,NHGY,60.028910428,
,,,,,,,,,,,,,,,,,,,,,,,,,,,,,,,,0.9984375,0.65625,1,0,0,2016_Jan_18_1215,P7,PLC_L_D1S1,NHGY,60.028910428,
stim/posf.jpg,stim/negf.jpg,stim/6.jpg,stim/3.jpg,stim/latef.jpg,AB,2,4,,,,,,,,,,,,,0,0,0,17,,,,,,2,0,0.883043754558,,,,,,2016_Jan_18_1215,P7,PLC_L_D1S1,NHGY,60.028910428,
stim/posf.jpg,stim/negf.jpg,stim/2.jpg,stim/1.jpg,stim/latef.jpg,CD,2,4,,,,,,,,,,,,,0,1,1,31,,,,,,4,1,1.09961426756,,,,,,2016_Jan_18_1215,P7,PLC_L_D1S1,NHGY,60.028910428,
stim/posf.jpg,stim/negf.jpg,stim/5.jpg,stim/4.jpg,stim/latef.jpg,EF,2,4,,,,,,,,,,,,,0,2,2,53,,,,,,4,1,0.9996946038,,,,,,2016_Jan_18_1215,P7,PLC_L_D1S1,NHGY,60.028910428,
stim/posf.jpg,stim/negf.jpg,stim/3.jpg,stim/6.jpg,stim/latef.jpg,AB,1,2,,,,,,,,,,,,,0,3,3,2,,,,,,2,1,1.24956506492,,,,,,2016_Jan_18_1215,P7,PLC_L_D1S1,NHGY,60.028910428,
stim/negf.jpg,stim/posf.jpg,stim/2.jpg,stim/1.jpg,stim/latef.jpg,CD,2,4,,,,,,,,,,,,,0,4,4,37,,,,,,4,1,0.916358556702,,,,,,2016_Jan_18_1215,P7,PLC_L_D1S1,NHGY,60.028910428,
stim/posf.jpg,stim/negf.jpg,stim/5.jpg,stim/4.jpg,stim/latef.jpg,EF,2,4,,,,,,,,,,,,,0,5,5,54,,,,,,4,1,1.04967778889,,,,,,2016_Jan_18_1215,P7,PLC_L_D1S1,NHGY,60.028910428,
stim/posf.jpg,stim/negf.jpg,stim/1.jpg,stim/2.jpg,stim/latef.jpg,CD,1,2,,,,,,,,,,,,,0,6,6,20,,,,,,2,1,1.09963890196,,,,,,2016_Jan_18_1215,P7,PLC_L_D1S1,NHGY,60.028910428,
stim/posf.jpg,stim/negf.jpg,stim/6.jpg,stim/3.jpg,stim/latef.jpg,AB,2,4,,,,,,,,,,,,,0,7,7,13,,,,,,4,1,1.24959135646,,,,,,2016_Jan_18_1215,P7,PLC_L_D1S1,NHGY,60.028910428,
stim/negf.jpg,stim/posf.jpg,stim/1.jpg,stim/2.jpg,stim/latef.jpg,CD,1,2,,,,,,,,,,,,,0,8,8,27,,,,,,4,0,1.48293407117,,,,,,2016_Jan_18_1215,P7,PLC_L_D1S1,NHGY,60.028910428,
stim/posf.jpg,stim/negf.jpg,stim/1.jpg,stim/2.jpg,stim/latef.jpg,CD,1,2,,,,,,,,,,,,,0,9,9,25,,,,,,4,0,0.999662029609,,,,,,2016_Jan_18_1215,P7,PLC_L_D1S1,NHGY,60.028910428,
stim/posf.jpg,stim/negf.jpg,stim/4.jpg,stim/5.jpg,stim/latef.jpg,EF,1,2,,,,,,,,,,,,,0,10,10,42,,,,,,2,1,0.849689758723,,,,,,2016_Jan_18_1215,P7,PLC_L_D1S1,NHGY,60.028910428,
stim/negf.jpg,stim/posf.jpg,stim/4.jpg,stim/5.jpg,stim/latef.jpg,EF,1,2,,,,,,,,,,,,,0,11,11,46,,,,,,4,0,0.949652005624,,,,,,2016_Jan_18_1215,P7,PLC_L_D1S1,NHGY,60.028910428,
stim/posf.jpg,stim/negf.jpg,stim/1.jpg,stim/2.jpg,stim/latef.jpg,CD,1,2,,,,,,,,,,,,,0,12,12,26,,,,,,2,1,1.39952503816,,,,,,2016_Jan_18_1215,P7,PLC_L_D1S1,NHGY,60.028910428,
stim/negf.jpg,stim/posf.jpg,stim/5.jpg,stim/4.jpg,stim/latef.jpg,EF,2,4,,,,,,,,,,,,,0,13,13,58,,,,,,2,0,1.0496700897,,,,,,2016_Jan_18_1215,P7,PLC_L_D1S1,NHGY,60.028910428,
stim/posf.jpg,stim/negf.jpg,stim/6.jpg,stim/3.jpg,stim/latef.jpg,AB,2,4,,,,,,,,,,,,,0,14,14,11,,,,,,4,1,0.866398697754,,,,,,2016_Jan_18_1215,P7,PLC_L_D1S1,NHGY,60.028910428,
stim/posf.jpg,stim/negf.jpg,stim/5.jpg,stim/4.jpg,stim/latef.jpg,EF,2,4,,,,,,,,,,,,,0,15,15,51,,,,,,2,0,0.883032831332,,,,,,2016_Jan_18_1215,P7,PLC_L_D1S1,NHGY,60.028910428,
stim/posf.jpg,stim/negf.jpg,stim/2.jpg,stim/1.jpg,stim/latef.jpg,CD,2,4,,,,,,,,,,,,,0,16,16,32,,,,,,4,1,0.916374484402,,,,,,2016_Jan_18_1215,P7,PLC_L_D1S1,NHGY,60.028910428,
stim/posf.jpg,stim/negf.jpg,stim/4.jpg,stim/5.jpg,stim/latef.jpg,EF,1,2,,,,,,,,,,,,,0,17,17,43,,,,,,4,0,0.86636478222,,,,,,2016_Jan_18_1215,P7,PLC_L_D1S1,NHGY,60.028910428,
stim/posf.jpg,stim/negf.jpg,stim/3.jpg,stim/6.jpg,stim/latef.jpg,AB,1,2,,,,,,,,,,,,,0,18,18,5,,,,,,4,0,0.766397052654,,,,,,2016_Jan_18_1215,P7,PLC_L_D1S1,NHGY,60.028910428,
stim/negf.jpg,stim/posf.jpg,stim/2.jpg,stim/1.jpg,stim/latef.jpg,CD,2,4,,,,,,,,,,,,,0,19,19,39,,,,,,4,1,0.666438889933,,,,,,2016_Jan_18_1215,P7,PLC_L_D1S1,NHGY,60.028910428,
stim/posf.jpg,stim/negf.jpg,stim/6.jpg,stim/3.jpg,stim/latef.jpg,AB,2,4,,,,,,,,,,,,,0,20,20,15,,,,,,2,0,1.14964349742,,,,,,2016_Jan_18_1215,P7,PLC_L_D1S1,NHGY,60.028910428,
stim/negf.jpg,stim/posf.jpg,stim/1.jpg,stim/2.jpg,stim/latef.jpg,CD,1,2,,,,,,,,,,,,,0,21,21,29,,,,,,2,1,0.616459395043,,,,,,2016_Jan_18_1215,P7,PLC_L_D1S1,NHGY,60.028910428,
stim/negf.jpg,stim/posf.jpg,stim/1.jpg,stim/2.jpg,stim/latef.jpg,CD,1,2,,,,,,,,,,,,,0,22,22,28,,,,,,4,0,0.983025535146,,,,,,2016_Jan_18_1215,P7,PLC_L_D1S1,NHGY,60.028910428,
stim/negf.jpg,stim/posf.jpg,stim/3.jpg,stim/6.jpg,stim/latef.jpg,AB,1,2,,,,,,,,,,,,,0,23,23,8,,,,,,4,0,0.849703412756,,,,,,2016_Jan_18_1215,P7,PLC_L_D1S1,NHGY,60.028910428,
stim/posf.jpg,stim/negf.jpg,stim/4.jpg,stim/5.jpg,stim/latef.jpg,EF,1,2,,,,,,,,,,,,,0,24,24,40,,,,,,4,0,1.03297035361,,,,,,2016_Jan_18_1215,P7,PLC_L_D1S1,NHGY,60.028910428,
stim/posf.jpg,stim/negf.jpg,stim/6.jpg,stim/3.jpg,stim/latef.jpg,AB,2,4,,,,,,,,,,,,,0,25,25,16,,,,,,4,1,0.916360983752,,,,,,2016_Jan_18_1215,P7,PLC_L_D1S1,NHGY,60.028910428,
stim/negf.jpg,stim/posf.jpg,stim/3.jpg,stim/6.jpg,stim/latef.jpg,AB,1,2,,,,,,,,,,,,,0,26,26,9,,,,,,4,0,0.866392186525,,,,,,2016_Jan_18_1215,P7,PLC_L_D1S1,NHGY,60.028910428,
stim/negf.jpg,stim/posf.jpg,stim/6.jpg,stim/3.jpg,stim/latef.jpg,AB,2,4,,,,,,,,,,,,,0,27,27,18,,,,,,2,0,1.26625604619,,,,,,2016_Jan_18_1215,P7,PLC_L_D1S1,NHGY,60.028910428,
stim/posf.jpg,stim/negf.jpg,stim/1.jpg,stim/2.jpg,stim/latef.jpg,CD,1,2,,,,,,,,,,,,,0,28,28,21,,,,,,4,0,0.8664,,,,,,2016_Jan_18_1215,P7,PLC_L_D1S1,NHGY,60.028910428,
stim/posf.jpg,stim/negf.jpg,stim/2.jpg,stim/1.jpg,stim/latef.jpg,CD,2,4,,,,,,,,,,,,,0,29,29,33,,,,,,2,0,1.08299040759,,,,,,2016_Jan_18_1215,P7,PLC_L_D1S1,NHGY,60.028910428,
stim/posf.jpg,stim/negf.jpg,stim/3.jpg,stim/6.jpg,stim/latef.jpg,AB,1,2,,,,,,,,,,,,,0,30,30,4,,,,,,4,0,1.11631379914,,,,,,2016_Jan_18_1215,P7,PLC_L_D1S1,NHGY,60.028910428,
stim/posf.jpg,stim/negf.jpg,stim/5.jpg,stim/4.jpg,stim/latef.jpg,EF,2,4,,,,,,,,,,,,,0,31,31,55,,,,,,2,0,0.799729238126,,,,,,2016_Jan_18_1215,P7,PLC_L_D1S1,NHGY,60.028910428,
stim/posf.jpg,stim/negf.jpg,stim/4.jpg,stim/5.jpg,stim/latef.jpg,EF,1,2,,,,,,,,,,,,,0,32,32,41,,,,,,2,1,1.08296456418,,,,,,2016_Jan_18_1215,P7,PLC_L_D1S1,NHGY,60.028910428,
stim/negf.jpg,stim/posf.jpg,stim/5.jpg,stim/4.jpg,stim/latef.jpg,EF,2,4,,,,,,,,,,,,,0,33,33,57,,,,,,4,1,1.13294624852,,,,,,2016_Jan_18_1215,P7,PLC_L_D1S1,NHGY,60.028910428,
stim/posf.jpg,stim/negf.jpg,stim/4.jpg,stim/5.jpg,stim/latef.jpg,EF,1,2,,,,,,,,,,,,,0,34,34,44,,,,,,2,1,0.966341958331,,,,,,2016_Jan_18_1215,P7,PLC_L_D1S1,NHGY,60.028910428,
stim/posf.jpg,stim/negf.jpg,stim/5.jpg,stim/4.jpg,stim/latef.jpg,EF,2,4,,,,,,,,,,,,,0,35,35,50,,,,,,4,1,1.13294824851,,,,,,2016_Jan_18_1215,P7,PLC_L_D1S1,NHGY,60.028910428,
stim/posf.jpg,stim/negf.jpg,stim/3.jpg,stim/6.jpg,stim/latef.jpg,AB,1,2,,,,,,,,,,,,,0,36,36,0,,,,,,4,0,1.04962592161,,,,,,2016_Jan_18_1215,P7,PLC_L_D1S1,NHGY,60.028910428,
stim/negf.jpg,stim/posf.jpg,stim/5.jpg,stim/4.jpg,stim/latef.jpg,EF,2,4,,,,,,,,,,,,,0,37,37,59,,,,,,4,1,1.09969550605,,,,,,2016_Jan_18_1215,P7,PLC_L_D1S1,NHGY,60.028910428,
stim/posf.jpg,stim/negf.jpg,stim/6.jpg,stim/3.jpg,stim/latef.jpg,AB,2,4,,,,,,,,,,,,,0,38,38,12,,,,,,4,1,0.883066503259,,,,,,2016_Jan_18_1215,P7,PLC_L_D1S1,NHGY,60.028910428,
stim/posf.jpg,stim/negf.jpg,stim/3.jpg,stim/6.jpg,stim/latef.jpg,AB,1,2,,,,,,,,,,,,,0,39,39,3,,,,,,2,1,0.916350457515,,,,,,2016_Jan_18_1215,P7,PLC_L_D1S1,NHGY,60.028910428,
stim/negf.jpg,stim/posf.jpg,stim/4.jpg,stim/5.jpg,stim/latef.jpg,EF,1,2,,,,,,,,,,,,,0,40,40,47,,,,,,4,0,0.949724378012,,,,,,2016_Jan_18_1215,P7,PLC_L_D1S1,NHGY,60.028910428,
stim/negf.jpg,stim/posf.jpg,stim/4.jpg,stim/5.jpg,stim/latef.jpg,EF,1,2,,,,,,,,,,,,,0,41,41,48,,,,,,4,0,1.066303309,,,,,,2016_Jan_18_1215,P7,PLC_L_D1S1,NHGY,60.028910428,
stim/posf.jpg,stim/negf.jpg,stim/3.jpg,stim/6.jpg,stim/latef.jpg,AB,1,2,,,,,,,,,,,,,0,42,42,1,,,,,,4,0,1.21627502951,,,,,,2016_Jan_18_1215,P7,PLC_L_D1S1,NHGY,60.028910428,
stim/negf.jpg,stim/posf.jpg,stim/2.jpg,stim/1.jpg,stim/latef.jpg,CD,2,4,,,,,,,,,,,,,0,43,43,38,,,,,,2,0,0.916355564244,,,,,,2016_Jan_18_1215,P7,PLC_L_D1S1,NHGY,60.028910428,
stim/negf.jpg,stim/posf.jpg,stim/4.jpg,stim/5.jpg,stim/latef.jpg,EF,1,2,,,,,,,,,,,,,0,44,44,49,,,,,,4,0,1.53284737107,,,,,,2016_Jan_18_1215,P7,PLC_L_D1S1,NHGY,60.028910428,
stim/posf.jpg,stim/negf.jpg,stim/1.jpg,stim/2.jpg,stim/latef.jpg,CD,1,2,,,,,,,,,,,,,0,45,45,24,,,,,,4,0,1.48280189172,,,,,,2016_Jan_18_1215,P7,PLC_L_D1S1,NHGY,60.028910428,
stim/posf.jpg,stim/negf.jpg,stim/1.jpg,stim/2.jpg,stim/latef.jpg,CD,1,2,,,,,,,,,,,,,0,46,46,22,,,,,,2,1,1.44950450297,,,,,,2016_Jan_18_1215,P7,PLC_L_D1S1,NHGY,60.028910428,
stim/posf.jpg,stim/negf.jpg,stim/4.jpg,stim/5.jpg,stim/latef.jpg,EF,1,2,,,,,,,,,,,,,0,47,47,45,,,,,,2,1,1.1829319569,,,,,,2016_Jan_18_1215,P7,PLC_L_D1S1,NHGY,60.028910428,
stim/posf.jpg,stim/negf.jpg,stim/2.jpg,stim/1.jpg,stim/latef.jpg,CD,2,4,,,,,,,,,,,,,0,48,48,30,,,,,,4,1,1.01626700551,,,,,,2016_Jan_18_1215,P7,PLC_L_D1S1,NHGY,60.028910428,
stim/posf.jpg,stim/negf.jpg,stim/6.jpg,stim/3.jpg,stim/latef.jpg,AB,2,4,,,,,,,,,,,,,0,49,49,14,,,,,,4,1,1.14964451094,,,,,,2016_Jan_18_1215,P7,PLC_L_D1S1,NHGY,60.028910428,
stim/posf.jpg,stim/negf.jpg,stim/2.jpg,stim/1.jpg,stim/latef.jpg,CD,2,4,,,,,,,,,,,,,0,50,50,35,,,,,,4,1,1.0829617672,,,,,,2016_Jan_18_1215,P7,PLC_L_D1S1,NHGY,60.028910428,
stim/posf.jpg,stim/negf.jpg,stim/2.jpg,stim/1.jpg,stim/latef.jpg,CD,2,4,,,,,,,,,,,,,0,51,51,36,,,,,,4,1,1.43286078451,,,,,,2016_Jan_18_1215,P7,PLC_L_D1S1,NHGY,60.028910428,
stim/posf.jpg,stim/negf.jpg,stim/3.jpg,stim/6.jpg,stim/latef.jpg,AB,1,2,,,,,,,,,,,,,0,52,52,7,,,,,,2,1,1.16624133052,,,,,,2016_Jan_18_1215,P7,PLC_L_D1S1,NHGY,60.028910428,
stim/negf.jpg,stim/posf.jpg,stim/5.jpg,stim/4.jpg,stim/latef.jpg,EF,2,4,,,,,,,,,,,,,0,53,53,56,,,,,,4,1,1.09964873347,,,,,,2016_Jan_18_1215,P7,PLC_L_D1S1,NHGY,60.028910428,
stim/posf.jpg,stim/negf.jpg,stim/6.jpg,stim/3.jpg,stim/latef.jpg,AB,2,4,,,,,,,,,,,,,0,54,54,10,,,,,,4,1,1.19960448418,,,,,,2016_Jan_18_1215,P7,PLC_L_D1S1,NHGY,60.028910428,
stim/posf.jpg,stim/negf.jpg,stim/1.jpg,stim/2.jpg,stim/latef.jpg,CD,1,2,,,,,,,,,,,,,0,55,55,23,,,,,,2,1,1.01631712844,,,,,,2016_Jan_18_1215,P7,PLC_L_D1S1,NHGY,60.028910428,
stim/posf.jpg,stim/negf.jpg,stim/5.jpg,stim/4.jpg,stim/latef.jpg,EF,2,4,,,,,,,,,,,,,0,56,56,52,,,,,,2,0,1.18295764092,,,,,,2016_Jan_18_1215,P7,PLC_L_D1S1,NHGY,60.028910428,
stim/posf.jpg,stim/negf.jpg,stim/3.jpg,stim/6.jpg,stim/latef.jpg,AB,1,2,,,,,,,,,,,,,0,57,57,6,,,,,,2,1,1.3329156262,,,,,,2016_Jan_18_1215,P7,PLC_L_D1S1,NHGY,60.028910428,
stim/posf.jpg,stim/negf.jpg,stim/2.jpg,stim/1.jpg,stim/latef.jpg,CD,2,4,,,,,,,,,,,,,0,58,58,34,,,,,,4,1,0.816391720363,,,,,,2016_Jan_18_1215,P7,PLC_L_D1S1,NHGY,60.028910428,
stim/negf.jpg,stim/posf.jpg,stim/6.jpg,stim/3.jpg,stim/latef.jpg,AB,2,4,,,,,,,,,,,,,0,59,59,19,,,,,,4,1,1.01633957339,,,,,,2016_Jan_18_1215,P7,PLC_L_D1S1,NHGY,60.028910428,
