fb_corr,fb_incorr,symbol2,symbol1,fb_late,pair,position,correct,block_01.thisRepN,block_01.thisTrialN,block_01.thisN,block_01.thisIndex,block_02.thisRepN,block_02.thisTrialN,block_02.thisN,block_02.thisIndex,block_03.thisRepN,block_03.thisTrialN,block_03.thisN,block_03.thisIndex,block_04.thisRepN,block_04.thisTrialN,block_04.thisN,block_04.thisIndex,mouse.x,mouse.y,mouse.leftButton,mouse.midButton,mouse.rightButton,buttonBox_2.keys,buttonBox_2.corr,buttonBox_2.rt,mouse_2.x,mouse_2.y,mouse_2.leftButton,mouse_2.midButton,mouse_2.rightButton,date,Participant,expName,Group,frameRate,
,,,,,,,,,,,,,,,,,,,,,,,,0.9984375,0.94140625,1,0,0,,,,,,,,,2016_Okt_05_0836,P8,PLC_L_D1S1,NHGY,60.0226267409,
stim/posf.jpg,stim/negf.jpg,stim/1.jpg,stim/4.jpg,stim/latef.jpg,EF,1,2,0,0,0,43,,,,,,,,,,,,,,,,,,4,0,1.24962965982,,,,,,2016_Okt_05_0836,P8,PLC_L_D1S1,NHGY,60.0226267409,
stim/posf.jpg,stim/negf.jpg,stim/3.jpg,stim/5.jpg,stim/latef.jpg,AB,1,2,0,1,1,0,,,,,,,,,,,,,,,,,,4,0,1.33289232377,,,,,,2016_Okt_05_0836,P8,PLC_L_D1S1,NHGY,60.0226267409,
stim/posf.jpg,stim/negf.jpg,stim/3.jpg,stim/5.jpg,stim/latef.jpg,AB,1,2,0,2,2,4,,,,,,,,,,,,,,,,,,4,0,1.49944174163,,,,,,2016_Okt_05_0836,P8,PLC_L_D1S1,NHGY,60.0226267409,
stim/posf.jpg,stim/negf.jpg,stim/2.jpg,stim/6.jpg,stim/latef.jpg,CD,1,2,0,3,3,23,,,,,,,,,,,,,,,,,,None,0,,,,,,,2016_Okt_05_0836,P8,PLC_L_D1S1,NHGY,60.0226267409,
stim/posf.jpg,stim/negf.jpg,stim/5.jpg,stim/3.jpg,stim/latef.jpg,AB,2,4,0,4,4,12,,,,,,,,,,,,,,,,,,4,1,1.59945654448,,,,,,2016_Okt_05_0836,P8,PLC_L_D1S1,NHGY,60.0226267409,
stim/posf.jpg,stim/negf.jpg,stim/3.jpg,stim/5.jpg,stim/latef.jpg,AB,1,2,0,5,5,5,,,,,,,,,,,,,,,,,,2,1,1.31621197054,,,,,,2016_Okt_05_0836,P8,PLC_L_D1S1,NHGY,60.0226267409,
stim/negf.jpg,stim/posf.jpg,stim/4.jpg,stim/1.jpg,stim/latef.jpg,EF,2,4,0,6,6,56,,,,,,,,,,,,,,,,,,4,1,1.24963381917,,,,,,2016_Okt_05_0836,P8,PLC_L_D1S1,NHGY,60.0226267409,
stim/posf.jpg,stim/negf.jpg,stim/2.jpg,stim/6.jpg,stim/latef.jpg,CD,1,2,0,7,7,21,,,,,,,,,,,,,,,,,,2,1,1.266208336,,,,,,2016_Okt_05_0836,P8,PLC_L_D1S1,NHGY,60.0226267409,
stim/negf.jpg,stim/posf.jpg,stim/4.jpg,stim/1.jpg,stim/latef.jpg,EF,2,4,0,8,8,59,,,,,,,,,,,,,,,,,,4,1,1.34954093901,,,,,,2016_Okt_05_0836,P8,PLC_L_D1S1,NHGY,60.0226267409,
stim/negf.jpg,stim/posf.jpg,stim/4.jpg,stim/1.jpg,stim/latef.jpg,EF,2,4,0,9,9,58,,,,,,,,,,,,,,,,,,4,1,1.21626990372,,,,,,2016_Okt_05_0836,P8,PLC_L_D1S1,NHGY,60.0226267409,
stim/negf.jpg,stim/posf.jpg,stim/6.jpg,stim/2.jpg,stim/latef.jpg,CD,2,4,0,10,10,37,,,,,,,,,,,,,,,,,,4,1,1.18292984365,,,,,,2016_Okt_05_0836,P8,PLC_L_D1S1,NHGY,60.0226267409,
stim/posf.jpg,stim/negf.jpg,stim/4.jpg,stim/1.jpg,stim/latef.jpg,EF,2,4,0,11,11,54,,,,,,,,,,,,,,,,,,4,1,1.09958656406,,,,,,2016_Okt_05_0836,P8,PLC_L_D1S1,NHGY,60.0226267409,
stim/posf.jpg,stim/negf.jpg,stim/6.jpg,stim/2.jpg,stim/latef.jpg,CD,2,4,0,12,12,31,,,,,,,,,,,,,,,,,,4,1,1.19957353263,,,,,,2016_Okt_05_0836,P8,PLC_L_D1S1,NHGY,60.0226267409,
stim/posf.jpg,stim/negf.jpg,stim/2.jpg,stim/6.jpg,stim/latef.jpg,CD,1,2,0,13,13,22,,,,,,,,,,,,,,,,,,2,1,1.09970117029,,,,,,2016_Okt_05_0836,P8,PLC_L_D1S1,NHGY,60.0226267409,
stim/negf.jpg,stim/posf.jpg,stim/4.jpg,stim/1.jpg,stim/latef.jpg,EF,2,4,0,14,14,57,,,,,,,,,,,,,,,,,,4,1,1.11629248392,,,,,,2016_Okt_05_0836,P8,PLC_L_D1S1,NHGY,60.0226267409,
stim/posf.jpg,stim/negf.jpg,stim/5.jpg,stim/3.jpg,stim/latef.jpg,AB,2,4,0,15,15,11,,,,,,,,,,,,,,,,,,4,1,1.09960376687,,,,,,2016_Okt_05_0836,P8,PLC_L_D1S1,NHGY,60.0226267409,
stim/posf.jpg,stim/negf.jpg,stim/5.jpg,stim/3.jpg,stim/latef.jpg,AB,2,4,0,16,16,13,,,,,,,,,,,,,,,,,,4,1,1.099618284,,,,,,2016_Okt_05_0836,P8,PLC_L_D1S1,NHGY,60.0226267409,
stim/posf.jpg,stim/negf.jpg,stim/3.jpg,stim/5.jpg,stim/latef.jpg,AB,1,2,0,17,17,2,,,,,,,,,,,,,,,,,,2,1,1.36625101221,,,,,,2016_Okt_05_0836,P8,PLC_L_D1S1,NHGY,60.0226267409,
stim/negf.jpg,stim/posf.jpg,stim/1.jpg,stim/4.jpg,stim/latef.jpg,EF,1,2,0,18,18,46,,,,,,,,,,,,,,,,,,2,1,1.39954257659,,,,,,2016_Okt_05_0836,P8,PLC_L_D1S1,NHGY,60.0226267409,
stim/posf.jpg,stim/negf.jpg,stim/5.jpg,stim/3.jpg,stim/latef.jpg,AB,2,4,0,19,19,10,,,,,,,,,,,,,,,,,,4,1,1.21619569103,,,,,,2016_Okt_05_0836,P8,PLC_L_D1S1,NHGY,60.0226267409,
stim/posf.jpg,stim/negf.jpg,stim/1.jpg,stim/4.jpg,stim/latef.jpg,EF,1,2,0,20,20,40,,,,,,,,,,,,,,,,,,4,0,1.0829726552,,,,,,2016_Okt_05_0836,P8,PLC_L_D1S1,NHGY,60.0226267409,
stim/negf.jpg,stim/posf.jpg,stim/5.jpg,stim/3.jpg,stim/latef.jpg,AB,2,4,0,21,21,19,,,,,,,,,,,,,,,,,,4,1,1.28286176923,,,,,,2016_Okt_05_0836,P8,PLC_L_D1S1,NHGY,60.0226267409,
stim/posf.jpg,stim/negf.jpg,stim/2.jpg,stim/6.jpg,stim/latef.jpg,CD,1,2,0,22,22,24,,,,,,,,,,,,,,,,,,2,1,1.14960623752,,,,,,2016_Okt_05_0836,P8,PLC_L_D1S1,NHGY,60.0226267409,
stim/posf.jpg,stim/negf.jpg,stim/5.jpg,stim/3.jpg,stim/latef.jpg,AB,2,4,0,23,23,15,,,,,,,,,,,,,,,,,,4,1,1.06626936087,,,,,,2016_Okt_05_0836,P8,PLC_L_D1S1,NHGY,60.0226267409,
stim/posf.jpg,stim/negf.jpg,stim/5.jpg,stim/3.jpg,stim/latef.jpg,AB,2,4,0,24,24,16,,,,,,,,,,,,,,,,,,4,1,1.03299577524,,,,,,2016_Okt_05_0836,P8,PLC_L_D1S1,NHGY,60.0226267409,
stim/negf.jpg,stim/posf.jpg,stim/2.jpg,stim/6.jpg,stim/latef.jpg,CD,1,2,0,25,25,29,,,,,,,,,,,,,,,,,,2,1,1.21629506735,,,,,,2016_Okt_05_0836,P8,PLC_L_D1S1,NHGY,60.0226267409,
stim/negf.jpg,stim/posf.jpg,stim/1.jpg,stim/4.jpg,stim/latef.jpg,EF,1,2,0,26,26,47,,,,,,,,,,,,,,,,,,4,0,1.39953858866,,,,,,2016_Okt_05_0836,P8,PLC_L_D1S1,NHGY,60.0226267409,
stim/posf.jpg,stim/negf.jpg,stim/3.jpg,stim/5.jpg,stim/latef.jpg,AB,1,2,0,27,27,1,,,,,,,,,,,,,,,,,,2,1,0.916358293703,,,,,,2016_Okt_05_0836,P8,PLC_L_D1S1,NHGY,60.0226267409,
stim/posf.jpg,stim/negf.jpg,stim/2.jpg,stim/6.jpg,stim/latef.jpg,CD,1,2,0,28,28,26,,,,,,,,,,,,,,,,,,2,1,1.43280194584,,,,,,2016_Okt_05_0836,P8,PLC_L_D1S1,NHGY,60.0226267409,
stim/negf.jpg,stim/posf.jpg,stim/2.jpg,stim/6.jpg,stim/latef.jpg,CD,1,2,0,29,29,28,,,,,,,,,,,,,,,,,,2,1,1.09961790807,,,,,,2016_Okt_05_0836,P8,PLC_L_D1S1,NHGY,60.0226267409,
stim/posf.jpg,stim/negf.jpg,stim/6.jpg,stim/2.jpg,stim/latef.jpg,CD,2,4,0,30,30,34,,,,,,,,,,,,,,,,,,4,1,1.13195131183,,,,,,2016_Okt_05_0836,P8,PLC_L_D1S1,NHGY,60.0226267409,
stim/posf.jpg,stim/negf.jpg,stim/4.jpg,stim/1.jpg,stim/latef.jpg,EF,2,4,0,31,31,50,,,,,,,,,,,,,,,,,,2,0,1.18293341353,,,,,,2016_Okt_05_0836,P8,PLC_L_D1S1,NHGY,60.0226267409,
stim/posf.jpg,stim/negf.jpg,stim/1.jpg,stim/4.jpg,stim/latef.jpg,EF,1,2,0,32,32,44,,,,,,,,,,,,,,,,,,2,1,1.16630405221,,,,,,2016_Okt_05_0836,P8,PLC_L_D1S1,NHGY,60.0226267409,
stim/negf.jpg,stim/posf.jpg,stim/2.jpg,stim/6.jpg,stim/latef.jpg,CD,1,2,0,33,33,27,,,,,,,,,,,,,,,,,,2,1,0.833081407352,,,,,,2016_Okt_05_0836,P8,PLC_L_D1S1,NHGY,60.0226267409,
stim/posf.jpg,stim/negf.jpg,stim/3.jpg,stim/5.jpg,stim/latef.jpg,AB,1,2,0,34,34,3,,,,,,,,,,,,,,,,,,2,1,0.699742793879,,,,,,2016_Okt_05_0836,P8,PLC_L_D1S1,NHGY,60.0226267409,
stim/posf.jpg,stim/negf.jpg,stim/1.jpg,stim/4.jpg,stim/latef.jpg,EF,1,2,0,35,35,41,,,,,,,,,,,,,,,,,,4,0,1.31618779638,,,,,,2016_Okt_05_0836,P8,PLC_L_D1S1,NHGY,60.0226267409,
stim/negf.jpg,stim/posf.jpg,stim/6.jpg,stim/2.jpg,stim/latef.jpg,CD,2,4,0,36,36,38,,,,,,,,,,,,,,,,,,4,1,0.766416252448,,,,,,2016_Okt_05_0836,P8,PLC_L_D1S1,NHGY,60.0226267409,
stim/negf.jpg,stim/posf.jpg,stim/3.jpg,stim/5.jpg,stim/latef.jpg,AB,1,2,0,37,37,9,,,,,,,,,,,,,,,,,,2,1,1.08295391857,,,,,,2016_Okt_05_0836,P8,PLC_L_D1S1,NHGY,60.0226267409,
stim/negf.jpg,stim/posf.jpg,stim/5.jpg,stim/3.jpg,stim/latef.jpg,AB,2,4,0,38,38,18,,,,,,,,,,,,,,,,,,4,1,0.816395132386,,,,,,2016_Okt_05_0836,P8,PLC_L_D1S1,NHGY,60.0226267409,
stim/negf.jpg,stim/posf.jpg,stim/1.jpg,stim/4.jpg,stim/latef.jpg,EF,1,2,0,39,39,48,,,,,,,,,,,,,,,,,,4,0,1.01633380977,,,,,,2016_Okt_05_0836,P8,PLC_L_D1S1,NHGY,60.0226267409,
stim/posf.jpg,stim/negf.jpg,stim/4.jpg,stim/1.jpg,stim/latef.jpg,EF,2,4,0,40,40,51,,,,,,,,,,,,,,,,,,2,0,1.14962052909,,,,,,2016_Okt_05_0836,P8,PLC_L_D1S1,NHGY,60.0226267409,
stim/posf.jpg,stim/negf.jpg,stim/6.jpg,stim/2.jpg,stim/latef.jpg,CD,2,4,0,41,41,35,,,,,,,,,,,,,,,,,,4,1,0.966348514867,,,,,,2016_Okt_05_0836,P8,PLC_L_D1S1,NHGY,60.0226267409,
stim/posf.jpg,stim/negf.jpg,stim/1.jpg,stim/4.jpg,stim/latef.jpg,EF,1,2,0,42,42,45,,,,,,,,,,,,,,,,,,4,0,1.14956122751,,,,,,2016_Okt_05_0836,P8,PLC_L_D1S1,NHGY,60.0226267409,
stim/posf.jpg,stim/negf.jpg,stim/3.jpg,stim/5.jpg,stim/latef.jpg,AB,1,2,0,43,43,6,,,,,,,,,,,,,,,,,,2,1,0.983018377989,,,,,,2016_Okt_05_0836,P8,PLC_L_D1S1,NHGY,60.0226267409,
stim/posf.jpg,stim/negf.jpg,stim/5.jpg,stim/3.jpg,stim/latef.jpg,AB,2,4,0,44,44,14,,,,,,,,,,,,,,,,,,4,1,0.916368137201,,,,,,2016_Okt_05_0836,P8,PLC_L_D1S1,NHGY,60.0226267409,
stim/posf.jpg,stim/negf.jpg,stim/3.jpg,stim/5.jpg,stim/latef.jpg,AB,1,2,0,45,45,7,,,,,,,,,,,,,,,,,,2,1,1.0496609136,,,,,,2016_Okt_05_0836,P8,PLC_L_D1S1,NHGY,60.0226267409,
stim/posf.jpg,stim/negf.jpg,stim/2.jpg,stim/6.jpg,stim/latef.jpg,CD,1,2,0,46,46,20,,,,,,,,,,,,,,,,,,2,1,1.18291073409,,,,,,2016_Okt_05_0836,P8,PLC_L_D1S1,NHGY,60.0226267409,
stim/posf.jpg,stim/negf.jpg,stim/2.jpg,stim/6.jpg,stim/latef.jpg,CD,1,2,0,47,47,25,,,,,,,,,,,,,,,,,,2,1,1.11629041176,,,,,,2016_Okt_05_0836,P8,PLC_L_D1S1,NHGY,60.0226267409,
stim/posf.jpg,stim/negf.jpg,stim/6.jpg,stim/2.jpg,stim/latef.jpg,CD,2,4,0,48,48,30,,,,,,,,,,,,,,,,,,4,1,1.03299805792,,,,,,2016_Okt_05_0836,P8,PLC_L_D1S1,NHGY,60.0226267409,
stim/negf.jpg,stim/posf.jpg,stim/6.jpg,stim/2.jpg,stim/latef.jpg,CD,2,4,0,49,49,39,,,,,,,,,,,,,,,,,,4,1,1.04959823761,,,,,,2016_Okt_05_0836,P8,PLC_L_D1S1,NHGY,60.0226267409,
stim/negf.jpg,stim/posf.jpg,stim/1.jpg,stim/4.jpg,stim/latef.jpg,EF,1,2,0,50,50,49,,,,,,,,,,,,,,,,,,2,1,0.966391007621,,,,,,2016_Okt_05_0836,P8,PLC_L_D1S1,NHGY,60.0226267409,
stim/posf.jpg,stim/negf.jpg,stim/6.jpg,stim/2.jpg,stim/latef.jpg,CD,2,4,0,51,51,36,,,,,,,,,,,,,,,,,,4,1,0.749698498137,,,,,,2016_Okt_05_0836,P8,PLC_L_D1S1,NHGY,60.0226267409,
stim/posf.jpg,stim/negf.jpg,stim/5.jpg,stim/3.jpg,stim/latef.jpg,AB,2,4,0,52,52,17,,,,,,,,,,,,,,,,,,4,1,0.766402402981,,,,,,2016_Okt_05_0836,P8,PLC_L_D1S1,NHGY,60.0226267409,
stim/posf.jpg,stim/negf.jpg,stim/6.jpg,stim/2.jpg,stim/latef.jpg,CD,2,4,0,53,53,32,,,,,,,,,,,,,,,,,,4,1,0.816379788198,,,,,,2016_Okt_05_0836,P8,PLC_L_D1S1,NHGY,60.0226267409,
stim/posf.jpg,stim/negf.jpg,stim/1.jpg,stim/4.jpg,stim/latef.jpg,EF,1,2,0,54,54,42,,,,,,,,,,,,,,,,,,2,1,1.01632313019,,,,,,2016_Okt_05_0836,P8,PLC_L_D1S1,NHGY,60.0226267409,
stim/posf.jpg,stim/negf.jpg,stim/4.jpg,stim/1.jpg,stim/latef.jpg,EF,2,4,0,55,55,53,,,,,,,,,,,,,,,,,,4,1,1.06625689184,,,,,,2016_Okt_05_0836,P8,PLC_L_D1S1,NHGY,60.0226267409,
stim/negf.jpg,stim/posf.jpg,stim/3.jpg,stim/5.jpg,stim/latef.jpg,AB,1,2,0,56,56,8,,,,,,,,,,,,,,,,,,2,1,1.04959477901,,,,,,2016_Okt_05_0836,P8,PLC_L_D1S1,NHGY,60.0226267409,
stim/posf.jpg,stim/negf.jpg,stim/4.jpg,stim/1.jpg,stim/latef.jpg,EF,2,4,0,57,57,55,,,,,,,,,,,,,,,,,,4,1,1.21625482119,,,,,,2016_Okt_05_0836,P8,PLC_L_D1S1,NHGY,60.0226267409,
stim/posf.jpg,stim/negf.jpg,stim/6.jpg,stim/2.jpg,stim/latef.jpg,CD,2,4,0,58,58,33,,,,,,,,,,,,,,,,,,4,1,0.883064777465,,,,,,2016_Okt_05_0836,P8,PLC_L_D1S1,NHGY,60.0226267409,
stim/posf.jpg,stim/negf.jpg,stim/4.jpg,stim/1.jpg,stim/latef.jpg,EF,2,4,0,59,59,52,,,,,,,,,,,,,,,,,,4,1,1.33303027109,,,,,,2016_Okt_05_0836,P8,PLC_L_D1S1,NHGY,60.0226267409,
,,,,,,,,,,,,,,,,,,,,,,,,,,,,,,,,0.9984375,0.94140625,0,0,1,2016_Okt_05_0836,P8,PLC_L_D1S1,NHGY,60.0226267409,
stim/posf.jpg,stim/negf.jpg,stim/1.jpg,stim/4.jpg,stim/latef.jpg,EF,1,2,,,,,0,0,0,41,,,,,,,,,,,,,,4,0,1.18295897715,,,,,,2016_Okt_05_0836,P8,PLC_L_D1S1,NHGY,60.0226267409,
stim/posf.jpg,stim/negf.jpg,stim/4.jpg,stim/1.jpg,stim/latef.jpg,EF,2,4,,,,,0,1,1,52,,,,,,,,,,,,,,4,1,0.966328060962,,,,,,2016_Okt_05_0836,P8,PLC_L_D1S1,NHGY,60.0226267409,
stim/posf.jpg,stim/negf.jpg,stim/5.jpg,stim/3.jpg,stim/latef.jpg,AB,2,4,,,,,0,2,2,10,,,,,,,,,,,,,,4,1,1.18292052345,,,,,,2016_Okt_05_0836,P8,PLC_L_D1S1,NHGY,60.0226267409,
stim/posf.jpg,stim/negf.jpg,stim/4.jpg,stim/1.jpg,stim/latef.jpg,EF,2,4,,,,,0,3,3,54,,,,,,,,,,,,,,4,1,1.01635488622,,,,,,2016_Okt_05_0836,P8,PLC_L_D1S1,NHGY,60.0226267409,
stim/negf.jpg,stim/posf.jpg,stim/2.jpg,stim/6.jpg,stim/latef.jpg,CD,1,2,,,,,0,4,4,27,,,,,,,,,,,,,,2,1,0.999615502081,,,,,,2016_Okt_05_0836,P8,PLC_L_D1S1,NHGY,60.0226267409,
stim/negf.jpg,stim/posf.jpg,stim/5.jpg,stim/3.jpg,stim/latef.jpg,AB,2,4,,,,,0,5,5,19,,,,,,,,,,,,,,4,1,0.949661358706,,,,,,2016_Okt_05_0836,P8,PLC_L_D1S1,NHGY,60.0226267409,
stim/posf.jpg,stim/negf.jpg,stim/6.jpg,stim/2.jpg,stim/latef.jpg,CD,2,4,,,,,0,6,6,34,,,,,,,,,,,,,,4,1,0.766398833096,,,,,,2016_Okt_05_0836,P8,PLC_L_D1S1,NHGY,60.0226267409,
stim/posf.jpg,stim/negf.jpg,stim/6.jpg,stim/2.jpg,stim/latef.jpg,CD,2,4,,,,,0,7,7,33,,,,,,,,,,,,,,4,1,0.699761987647,,,,,,2016_Okt_05_0836,P8,PLC_L_D1S1,NHGY,60.0226267409,
stim/negf.jpg,stim/posf.jpg,stim/4.jpg,stim/1.jpg,stim/latef.jpg,EF,2,4,,,,,0,8,8,59,,,,,,,,,,,,,,4,1,0.849711403255,,,,,,2016_Okt_05_0836,P8,PLC_L_D1S1,NHGY,60.0226267409,
stim/posf.jpg,stim/negf.jpg,stim/5.jpg,stim/3.jpg,stim/latef.jpg,AB,2,4,,,,,0,9,9,17,,,,,,,,,,,,,,4,1,0.866373149175,,,,,,2016_Okt_05_0836,P8,PLC_L_D1S1,NHGY,60.0226267409,
stim/negf.jpg,stim/posf.jpg,stim/2.jpg,stim/6.jpg,stim/latef.jpg,CD,1,2,,,,,0,10,10,29,,,,,,,,,,,,,,2,1,0.783093544058,,,,,,2016_Okt_05_0836,P8,PLC_L_D1S1,NHGY,60.0226267409,
stim/negf.jpg,stim/posf.jpg,stim/1.jpg,stim/4.jpg,stim/latef.jpg,EF,1,2,,,,,0,11,11,48,,,,,,,,,,,,,,2,1,0.966355176445,,,,,,2016_Okt_05_0836,P8,PLC_L_D1S1,NHGY,60.0226267409,
stim/posf.jpg,stim/negf.jpg,stim/3.jpg,stim/5.jpg,stim/latef.jpg,AB,1,2,,,,,0,12,12,4,,,,,,,,,,,,,,2,1,1.11630144021,,,,,,2016_Okt_05_0836,P8,PLC_L_D1S1,NHGY,60.0226267409,
stim/posf.jpg,stim/negf.jpg,stim/6.jpg,stim/2.jpg,stim/latef.jpg,CD,2,4,,,,,0,13,13,36,,,,,,,,,,,,,,4,1,0.799726559475,,,,,,2016_Okt_05_0836,P8,PLC_L_D1S1,NHGY,60.0226267409,
stim/posf.jpg,stim/negf.jpg,stim/5.jpg,stim/3.jpg,stim/latef.jpg,AB,2,4,,,,,0,14,14,12,,,,,,,,,,,,,,4,1,0.883027168867,,,,,,2016_Okt_05_0836,P8,PLC_L_D1S1,NHGY,60.0226267409,
stim/posf.jpg,stim/negf.jpg,stim/2.jpg,stim/6.jpg,stim/latef.jpg,CD,1,2,,,,,0,15,15,22,,,,,,,,,,,,,,2,1,0.8830307989,,,,,,2016_Okt_05_0836,P8,PLC_L_D1S1,NHGY,60.0226267409,
stim/negf.jpg,stim/posf.jpg,stim/1.jpg,stim/4.jpg,stim/latef.jpg,EF,1,2,,,,,0,16,16,49,,,,,,,,,,,,,,2,1,1.1662314395,,,,,,2016_Okt_05_0836,P8,PLC_L_D1S1,NHGY,60.0226267409,
stim/negf.jpg,stim/posf.jpg,stim/1.jpg,stim/4.jpg,stim/latef.jpg,EF,1,2,,,,,0,17,17,47,,,,,,,,,,,,,,2,1,0.583142836736,,,,,,2016_Okt_05_0836,P8,PLC_L_D1S1,NHGY,60.0226267409,
stim/posf.jpg,stim/negf.jpg,stim/4.jpg,stim/1.jpg,stim/latef.jpg,EF,2,4,,,,,0,18,18,53,,,,,,,,,,,,,,4,1,1.3162062473,,,,,,2016_Okt_05_0836,P8,PLC_L_D1S1,NHGY,60.0226267409,
stim/negf.jpg,stim/posf.jpg,stim/5.jpg,stim/3.jpg,stim/latef.jpg,AB,2,4,,,,,0,19,19,18,,,,,,,,,,,,,,4,1,1.09961070213,,,,,,2016_Okt_05_0836,P8,PLC_L_D1S1,NHGY,60.0226267409,
stim/posf.jpg,stim/negf.jpg,stim/5.jpg,stim/3.jpg,stim/latef.jpg,AB,2,4,,,,,0,20,20,13,,,,,,,,,,,,,,4,1,0.633111924301,,,,,,2016_Okt_05_0836,P8,PLC_L_D1S1,NHGY,60.0226267409,
stim/posf.jpg,stim/negf.jpg,stim/6.jpg,stim/2.jpg,stim/latef.jpg,CD,2,4,,,,,0,21,21,32,,,,,,,,,,,,,,4,1,0.849730512813,,,,,,2016_Okt_05_0836,P8,PLC_L_D1S1,NHGY,60.0226267409,
stim/negf.jpg,stim/posf.jpg,stim/6.jpg,stim/2.jpg,stim/latef.jpg,CD,2,4,,,,,0,22,22,39,,,,,,,,,,,,,,4,1,0.799617685515,,,,,,2016_Okt_05_0836,P8,PLC_L_D1S1,NHGY,60.0226267409,
stim/posf.jpg,stim/negf.jpg,stim/5.jpg,stim/3.jpg,stim/latef.jpg,AB,2,4,,,,,0,23,23,14,,,,,,,,,,,,,,4,1,0.933027639538,,,,,,2016_Okt_05_0836,P8,PLC_L_D1S1,NHGY,60.0226267409,
stim/posf.jpg,stim/negf.jpg,stim/3.jpg,stim/5.jpg,stim/latef.jpg,AB,1,2,,,,,0,24,24,3,,,,,,,,,,,,,,2,1,0.649763092897,,,,,,2016_Okt_05_0836,P8,PLC_L_D1S1,NHGY,60.0226267409,
stim/posf.jpg,stim/negf.jpg,stim/2.jpg,stim/6.jpg,stim/latef.jpg,CD,1,2,,,,,0,25,25,25,,,,,,,,,,,,,,2,1,0.633115470127,,,,,,2016_Okt_05_0836,P8,PLC_L_D1S1,NHGY,60.0226267409,
stim/posf.jpg,stim/negf.jpg,stim/2.jpg,stim/6.jpg,stim/latef.jpg,CD,1,2,,,,,0,26,26,21,,,,,,,,,,,,,,2,1,0.599783289663,,,,,,2016_Okt_05_0836,P8,PLC_L_D1S1,NHGY,60.0226267409,
stim/posf.jpg,stim/negf.jpg,stim/2.jpg,stim/6.jpg,stim/latef.jpg,CD,1,2,,,,,0,27,27,20,,,,,,,,,,,,,,2,1,0.683093324511,,,,,,2016_Okt_05_0836,P8,PLC_L_D1S1,NHGY,60.0226267409,
stim/posf.jpg,stim/negf.jpg,stim/6.jpg,stim/2.jpg,stim/latef.jpg,CD,2,4,,,,,0,28,28,35,,,,,,,,,,,,,,4,1,0.533096992139,,,,,,2016_Okt_05_0836,P8,PLC_L_D1S1,NHGY,60.0226267409,
stim/posf.jpg,stim/negf.jpg,stim/1.jpg,stim/4.jpg,stim/latef.jpg,EF,1,2,,,,,0,29,29,44,,,,,,,,,,,,,,2,1,0.96635513434,,,,,,2016_Okt_05_0836,P8,PLC_L_D1S1,NHGY,60.0226267409,
stim/negf.jpg,stim/posf.jpg,stim/1.jpg,stim/4.jpg,stim/latef.jpg,EF,1,2,,,,,0,30,30,46,,,,,,,,,,,,,,2,1,0.466506311583,,,,,,2016_Okt_05_0836,P8,PLC_L_D1S1,NHGY,60.0226267409,
stim/posf.jpg,stim/negf.jpg,stim/4.jpg,stim/1.jpg,stim/latef.jpg,EF,2,4,,,,,0,31,31,51,,,,,,,,,,,,,,4,1,0.932991276039,,,,,,2016_Okt_05_0836,P8,PLC_L_D1S1,NHGY,60.0226267409,
stim/posf.jpg,stim/negf.jpg,stim/5.jpg,stim/3.jpg,stim/latef.jpg,AB,2,4,,,,,0,32,32,11,,,,,,,,,,,,,,4,1,0.749750954688,,,,,,2016_Okt_05_0836,P8,PLC_L_D1S1,NHGY,60.0226267409,
stim/posf.jpg,stim/negf.jpg,stim/2.jpg,stim/6.jpg,stim/latef.jpg,CD,1,2,,,,,0,33,33,23,,,,,,,,,,,,,,2,1,0.73309939512,,,,,,2016_Okt_05_0836,P8,PLC_L_D1S1,NHGY,60.0226267409,
stim/posf.jpg,stim/negf.jpg,stim/5.jpg,stim/3.jpg,stim/latef.jpg,AB,2,4,,,,,0,34,34,15,,,,,,,,,,,,,,4,1,0.849711129574,,,,,,2016_Okt_05_0836,P8,PLC_L_D1S1,NHGY,60.0226267409,
stim/posf.jpg,stim/negf.jpg,stim/5.jpg,stim/3.jpg,stim/latef.jpg,AB,2,4,,,,,0,35,35,16,,,,,,,,,,,,,,4,1,0.816398082728,,,,,,2016_Okt_05_0836,P8,PLC_L_D1S1,NHGY,60.0226267409,
stim/negf.jpg,stim/posf.jpg,stim/4.jpg,stim/1.jpg,stim/latef.jpg,EF,2,4,,,,,0,36,36,58,,,,,,,,,,,,,,4,1,0.966264756413,,,,,,2016_Okt_05_0836,P8,PLC_L_D1S1,NHGY,60.0226267409,
stim/posf.jpg,stim/negf.jpg,stim/3.jpg,stim/5.jpg,stim/latef.jpg,AB,1,2,,,,,0,37,37,5,,,,,,,,,,,,,,2,1,0.899675850272,,,,,,2016_Okt_05_0836,P8,PLC_L_D1S1,NHGY,60.0226267409,
stim/posf.jpg,stim/negf.jpg,stim/3.jpg,stim/5.jpg,stim/latef.jpg,AB,1,2,,,,,0,38,38,1,,,,,,,,,,,,,,2,1,0.733074192397,,,,,,2016_Okt_05_0836,P8,PLC_L_D1S1,NHGY,60.0226267409,
stim/negf.jpg,stim/posf.jpg,stim/2.jpg,stim/6.jpg,stim/latef.jpg,CD,1,2,,,,,0,39,39,28,,,,,,,,,,,,,,2,1,0.94966451055,,,,,,2016_Okt_05_0836,P8,PLC_L_D1S1,NHGY,60.0226267409,
stim/posf.jpg,stim/negf.jpg,stim/3.jpg,stim/5.jpg,stim/latef.jpg,AB,1,2,,,,,0,40,40,7,,,,,,,,,,,,,,2,1,1.0329839468,,,,,,2016_Okt_05_0836,P8,PLC_L_D1S1,NHGY,60.0226267409,
stim/posf.jpg,stim/negf.jpg,stim/2.jpg,stim/6.jpg,stim/latef.jpg,CD,1,2,,,,,0,41,41,24,,,,,,,,,,,,,,2,1,1.23291580922,,,,,,2016_Okt_05_0836,P8,PLC_L_D1S1,NHGY,60.0226267409,
stim/posf.jpg,stim/negf.jpg,stim/4.jpg,stim/1.jpg,stim/latef.jpg,EF,2,4,,,,,0,42,42,55,,,,,,,,,,,,,,4,1,1.3495607854,,,,,,2016_Okt_05_0836,P8,PLC_L_D1S1,NHGY,60.0226267409,
stim/negf.jpg,stim/posf.jpg,stim/6.jpg,stim/2.jpg,stim/latef.jpg,CD,2,4,,,,,0,43,43,37,,,,,,,,,,,,,,4,1,0.983010817171,,,,,,2016_Okt_05_0836,P8,PLC_L_D1S1,NHGY,60.0226267409,
stim/negf.jpg,stim/posf.jpg,stim/4.jpg,stim/1.jpg,stim/latef.jpg,EF,2,4,,,,,0,44,44,57,,,,,,,,,,,,,,4,1,0.99965534524,,,,,,2016_Okt_05_0836,P8,PLC_L_D1S1,NHGY,60.0226267409,
stim/negf.jpg,stim/posf.jpg,stim/4.jpg,stim/1.jpg,stim/latef.jpg,EF,2,4,,,,,0,45,45,56,,,,,,,,,,,,,,4,1,0.749774367959,,,,,,2016_Okt_05_0836,P8,PLC_L_D1S1,NHGY,60.0226267409,
stim/posf.jpg,stim/negf.jpg,stim/1.jpg,stim/4.jpg,stim/latef.jpg,EF,1,2,,,,,0,46,46,42,,,,,,,,,,,,,,4,0,1.0329866806,,,,,,2016_Okt_05_0836,P8,PLC_L_D1S1,NHGY,60.0226267409,
stim/negf.jpg,stim/posf.jpg,stim/3.jpg,stim/5.jpg,stim/latef.jpg,AB,1,2,,,,,0,47,47,9,,,,,,,,,,,,,,2,1,0.88302007421,,,,,,2016_Okt_05_0836,P8,PLC_L_D1S1,NHGY,60.0226267409,
stim/posf.jpg,stim/negf.jpg,stim/3.jpg,stim/5.jpg,stim/latef.jpg,AB,1,2,,,,,0,48,48,6,,,,,,,,,,,,,,2,1,0.849675722455,,,,,,2016_Okt_05_0836,P8,PLC_L_D1S1,NHGY,60.0226267409,
stim/posf.jpg,stim/negf.jpg,stim/3.jpg,stim/5.jpg,stim/latef.jpg,AB,1,2,,,,,0,49,49,0,,,,,,,,,,,,,,2,1,0.6831025214,,,,,,2016_Okt_05_0836,P8,PLC_L_D1S1,NHGY,60.0226267409,
stim/posf.jpg,stim/negf.jpg,stim/6.jpg,stim/2.jpg,stim/latef.jpg,CD,2,4,,,,,0,50,50,30,,,,,,,,,,,,,,4,1,0.982985698658,,,,,,2016_Okt_05_0836,P8,PLC_L_D1S1,NHGY,60.0226267409,
stim/posf.jpg,stim/negf.jpg,stim/3.jpg,stim/5.jpg,stim/latef.jpg,AB,1,2,,,,,0,51,51,2,,,,,,,,,,,,,,2,1,0.699772053698,,,,,,2016_Okt_05_0836,P8,PLC_L_D1S1,NHGY,60.0226267409,
stim/negf.jpg,stim/posf.jpg,stim/3.jpg,stim/5.jpg,stim/latef.jpg,AB,1,2,,,,,0,52,52,8,,,,,,,,,,,,,,2,1,0.599796411319,,,,,,2016_Okt_05_0836,P8,PLC_L_D1S1,NHGY,60.0226267409,
stim/posf.jpg,stim/negf.jpg,stim/6.jpg,stim/2.jpg,stim/latef.jpg,CD,2,4,,,,,0,53,53,31,,,,,,,,,,,,,,4,1,0.716408022466,,,,,,2016_Okt_05_0836,P8,PLC_L_D1S1,NHGY,60.0226267409,
stim/posf.jpg,stim/negf.jpg,stim/1.jpg,stim/4.jpg,stim/latef.jpg,EF,1,2,,,,,0,54,54,40,,,,,,,,,,,,,,4,0,1.13290721383,,,,,,2016_Okt_05_0836,P8,PLC_L_D1S1,NHGY,60.0226267409,
stim/posf.jpg,stim/negf.jpg,stim/2.jpg,stim/6.jpg,stim/latef.jpg,CD,1,2,,,,,0,55,55,26,,,,,,,,,,,,,,2,1,0.733043855897,,,,,,2016_Okt_05_0836,P8,PLC_L_D1S1,NHGY,60.0226267409,
stim/posf.jpg,stim/negf.jpg,stim/1.jpg,stim/4.jpg,stim/latef.jpg,EF,1,2,,,,,0,56,56,43,,,,,,,,,,,,,,4,0,0.816390951982,,,,,,2016_Okt_05_0836,P8,PLC_L_D1S1,NHGY,60.0226267409,
stim/posf.jpg,stim/negf.jpg,stim/1.jpg,stim/4.jpg,stim/latef.jpg,EF,1,2,,,,,0,57,57,45,,,,,,,,,,,,,,4,0,0.94961440886,,,,,,2016_Okt_05_0836,P8,PLC_L_D1S1,NHGY,60.0226267409,
stim/posf.jpg,stim/negf.jpg,stim/4.jpg,stim/1.jpg,stim/latef.jpg,EF,2,4,,,,,0,58,58,50,,,,,,,,,,,,,,2,0,0.766431768063,,,,,,2016_Okt_05_0836,P8,PLC_L_D1S1,NHGY,60.0226267409,
stim/negf.jpg,stim/posf.jpg,stim/6.jpg,stim/2.jpg,stim/latef.jpg,CD,2,4,,,,,0,59,59,38,,,,,,,,,,,,,,4,1,0.783084488521,,,,,,2016_Okt_05_0836,P8,PLC_L_D1S1,NHGY,60.0226267409,
,,,,,,,,,,,,,,,,,,,,,,,,,,,,,,,,0.9984375,0.951171875,0,0,1,2016_Okt_05_0836,P8,PLC_L_D1S1,NHGY,60.0226267409,
stim/negf.jpg,stim/posf.jpg,stim/3.jpg,stim/5.jpg,stim/latef.jpg,AB,1,2,,,,,,,,,0,0,0,9,,,,,,,,,,2,1,0.783076127713,,,,,,2016_Okt_05_0836,P8,PLC_L_D1S1,NHGY,60.0226267409,
stim/posf.jpg,stim/negf.jpg,stim/2.jpg,stim/6.jpg,stim/latef.jpg,CD,1,2,,,,,,,,,0,1,1,20,,,,,,,,,,2,1,0.583054933966,,,,,,2016_Okt_05_0836,P8,PLC_L_D1S1,NHGY,60.0226267409,
stim/posf.jpg,stim/negf.jpg,stim/3.jpg,stim/5.jpg,stim/latef.jpg,AB,1,2,,,,,,,,,0,2,2,1,,,,,,,,,,2,1,0.716431462803,,,,,,2016_Okt_05_0836,P8,PLC_L_D1S1,NHGY,60.0226267409,
stim/posf.jpg,stim/negf.jpg,stim/1.jpg,stim/4.jpg,stim/latef.jpg,EF,1,2,,,,,,,,,0,3,3,45,,,,,,,,,,2,1,1.14959286023,,,,,,2016_Okt_05_0836,P8,PLC_L_D1S1,NHGY,60.0226267409,
stim/negf.jpg,stim/posf.jpg,stim/1.jpg,stim/4.jpg,stim/latef.jpg,EF,1,2,,,,,,,,,0,4,4,48,,,,,,,,,,2,1,0.533175761176,,,,,,2016_Okt_05_0836,P8,PLC_L_D1S1,NHGY,60.0226267409,
stim/posf.jpg,stim/negf.jpg,stim/3.jpg,stim/5.jpg,stim/latef.jpg,AB,1,2,,,,,,,,,0,5,5,7,,,,,,,,,,2,1,0.866370719127,,,,,,2016_Okt_05_0836,P8,PLC_L_D1S1,NHGY,60.0226267409,
stim/posf.jpg,stim/negf.jpg,stim/5.jpg,stim/3.jpg,stim/latef.jpg,AB,2,4,,,,,,,,,0,6,6,17,,,,,,,,,,2,0,1.06629711695,,,,,,2016_Okt_05_0836,P8,PLC_L_D1S1,NHGY,60.0226267409,
stim/posf.jpg,stim/negf.jpg,stim/2.jpg,stim/6.jpg,stim/latef.jpg,CD,1,2,,,,,,,,,0,7,7,22,,,,,,,,,,2,1,0.649782668616,,,,,,2016_Okt_05_0836,P8,PLC_L_D1S1,NHGY,60.0226267409,
stim/posf.jpg,stim/negf.jpg,stim/5.jpg,stim/3.jpg,stim/latef.jpg,AB,2,4,,,,,,,,,0,8,8,16,,,,,,,,,,4,1,0.899658737683,,,,,,2016_Okt_05_0836,P8,PLC_L_D1S1,NHGY,60.0226267409,
stim/negf.jpg,stim/posf.jpg,stim/1.jpg,stim/4.jpg,stim/latef.jpg,EF,1,2,,,,,,,,,0,9,9,47,,,,,,,,,,2,1,1.1829429623,,,,,,2016_Okt_05_0836,P8,PLC_L_D1S1,NHGY,60.0226267409,
stim/posf.jpg,stim/negf.jpg,stim/5.jpg,stim/3.jpg,stim/latef.jpg,AB,2,4,,,,,,,,,0,10,10,13,,,,,,,,,,4,1,0.849725048213,,,,,,2016_Okt_05_0836,P8,PLC_L_D1S1,NHGY,60.0226267409,
stim/negf.jpg,stim/posf.jpg,stim/4.jpg,stim/1.jpg,stim/latef.jpg,EF,2,4,,,,,,,,,0,11,11,58,,,,,,,,,,4,1,0.833089548614,,,,,,2016_Okt_05_0836,P8,PLC_L_D1S1,NHGY,60.0226267409,
stim/posf.jpg,stim/negf.jpg,stim/2.jpg,stim/6.jpg,stim/latef.jpg,CD,1,2,,,,,,,,,0,12,12,24,,,,,,,,,,2,1,0.683105616103,,,,,,2016_Okt_05_0836,P8,PLC_L_D1S1,NHGY,60.0226267409,
stim/posf.jpg,stim/negf.jpg,stim/3.jpg,stim/5.jpg,stim/latef.jpg,AB,1,2,,,,,,,,,0,13,13,0,,,,,,,,,,2,1,0.74974624196,,,,,,2016_Okt_05_0836,P8,PLC_L_D1S1,NHGY,60.0226267409,
stim/negf.jpg,stim/posf.jpg,stim/4.jpg,stim/1.jpg,stim/latef.jpg,EF,2,4,,,,,,,,,0,14,14,56,,,,,,,,,,4,1,0.749786497145,,,,,,2016_Okt_05_0836,P8,PLC_L_D1S1,NHGY,60.0226267409,
stim/negf.jpg,stim/posf.jpg,stim/6.jpg,stim/2.jpg,stim/latef.jpg,CD,2,4,,,,,,,,,0,15,15,39,,,,,,,,,,4,1,0.683059905339,,,,,,2016_Okt_05_0836,P8,PLC_L_D1S1,NHGY,60.0226267409,
stim/negf.jpg,stim/posf.jpg,stim/6.jpg,stim/2.jpg,stim/latef.jpg,CD,2,4,,,,,,,,,0,16,16,38,,,,,,,,,,4,1,0.633095500426,,,,,,2016_Okt_05_0836,P8,PLC_L_D1S1,NHGY,60.0226267409,
stim/negf.jpg,stim/posf.jpg,stim/2.jpg,stim/6.jpg,stim/latef.jpg,CD,1,2,,,,,,,,,0,17,17,29,,,,,,,,,,2,1,0.649787405405,,,,,,2016_Okt_05_0836,P8,PLC_L_D1S1,NHGY,60.0226267409,
stim/posf.jpg,stim/negf.jpg,stim/6.jpg,stim/2.jpg,stim/latef.jpg,CD,2,4,,,,,,,,,0,18,18,32,,,,,,,,,,4,1,0.599794534648,,,,,,2016_Okt_05_0836,P8,PLC_L_D1S1,NHGY,60.0226267409,
stim/posf.jpg,stim/negf.jpg,stim/6.jpg,stim/2.jpg,stim/latef.jpg,CD,2,4,,,,,,,,,0,19,19,30,,,,,,,,,,4,1,0.566467836829,,,,,,2016_Okt_05_0836,P8,PLC_L_D1S1,NHGY,60.0226267409,
stim/posf.jpg,stim/negf.jpg,stim/5.jpg,stim/3.jpg,stim/latef.jpg,AB,2,4,,,,,,,,,0,20,20,12,,,,,,,,,,4,1,0.76637767544,,,,,,2016_Okt_05_0836,P8,PLC_L_D1S1,NHGY,60.0226267409,
stim/posf.jpg,stim/negf.jpg,stim/1.jpg,stim/4.jpg,stim/latef.jpg,EF,1,2,,,,,,,,,0,21,21,44,,,,,,,,,,2,1,1.23292377003,,,,,,2016_Okt_05_0836,P8,PLC_L_D1S1,NHGY,60.0226267409,
stim/negf.jpg,stim/posf.jpg,stim/5.jpg,stim/3.jpg,stim/latef.jpg,AB,2,4,,,,,,,,,0,22,22,18,,,,,,,,,,4,1,0.633122101631,,,,,,2016_Okt_05_0836,P8,PLC_L_D1S1,NHGY,60.0226267409,
stim/posf.jpg,stim/negf.jpg,stim/3.jpg,stim/5.jpg,stim/latef.jpg,AB,1,2,,,,,,,,,0,23,23,5,,,,,,,,,,2,1,0.833040159698,,,,,,2016_Okt_05_0836,P8,PLC_L_D1S1,NHGY,60.0226267409,
stim/posf.jpg,stim/negf.jpg,stim/3.jpg,stim/5.jpg,stim/latef.jpg,AB,1,2,,,,,,,,,0,24,24,3,,,,,,,,,,2,1,0.999663724094,,,,,,2016_Okt_05_0836,P8,PLC_L_D1S1,NHGY,60.0226267409,
stim/negf.jpg,stim/posf.jpg,stim/5.jpg,stim/3.jpg,stim/latef.jpg,AB,2,4,,,,,,,,,0,25,25,19,,,,,,,,,,4,1,0.733097079356,,,,,,2016_Okt_05_0836,P8,PLC_L_D1S1,NHGY,60.0226267409,
stim/posf.jpg,stim/negf.jpg,stim/2.jpg,stim/6.jpg,stim/latef.jpg,CD,1,2,,,,,,,,,0,26,26,23,,,,,,,,,,2,1,0.566472299936,,,,,,2016_Okt_05_0836,P8,PLC_L_D1S1,NHGY,60.0226267409,
stim/posf.jpg,stim/negf.jpg,stim/2.jpg,stim/6.jpg,stim/latef.jpg,CD,1,2,,,,,,,,,0,27,27,21,,,,,,,,,,2,1,0.799740159321,,,,,,2016_Okt_05_0836,P8,PLC_L_D1S1,NHGY,60.0226267409,
stim/negf.jpg,stim/posf.jpg,stim/1.jpg,stim/4.jpg,stim/latef.jpg,EF,1,2,,,,,,,,,0,28,28,46,,,,,,,,,,2,1,1.03297199806,,,,,,2016_Okt_05_0836,P8,PLC_L_D1S1,NHGY,60.0226267409,
stim/negf.jpg,stim/posf.jpg,stim/4.jpg,stim/1.jpg,stim/latef.jpg,EF,2,4,,,,,,,,,0,29,29,57,,,,,,,,,,4,1,1.01625833092,,,,,,2016_Okt_05_0836,P8,PLC_L_D1S1,NHGY,60.0226267409,
stim/negf.jpg,stim/posf.jpg,stim/3.jpg,stim/5.jpg,stim/latef.jpg,AB,1,2,,,,,,,,,0,30,30,8,,,,,,,,,,2,1,0.583118406935,,,,,,2016_Okt_05_0836,P8,PLC_L_D1S1,NHGY,60.0226267409,
stim/negf.jpg,stim/posf.jpg,stim/2.jpg,stim/6.jpg,stim/latef.jpg,CD,1,2,,,,,,,,,0,31,31,28,,,,,,,,,,2,1,0.79971552802,,,,,,2016_Okt_05_0836,P8,PLC_L_D1S1,NHGY,60.0226267409,
stim/posf.jpg,stim/negf.jpg,stim/4.jpg,stim/1.jpg,stim/latef.jpg,EF,2,4,,,,,,,,,0,32,32,53,,,,,,,,,,2,0,1.26629007643,,,,,,2016_Okt_05_0836,P8,PLC_L_D1S1,NHGY,60.0226267409,
stim/posf.jpg,stim/negf.jpg,stim/6.jpg,stim/2.jpg,stim/latef.jpg,CD,2,4,,,,,,,,,0,33,33,31,,,,,,,,,,4,1,0.683075622455,,,,,,2016_Okt_05_0836,P8,PLC_L_D1S1,NHGY,60.0226267409,
stim/posf.jpg,stim/negf.jpg,stim/1.jpg,stim/4.jpg,stim/latef.jpg,EF,1,2,,,,,,,,,0,34,34,43,,,,,,,,,,4,0,1.08296236659,,,,,,2016_Okt_05_0836,P8,PLC_L_D1S1,NHGY,60.0226267409,
stim/posf.jpg,stim/negf.jpg,stim/4.jpg,stim/1.jpg,stim/latef.jpg,EF,2,4,,,,,,,,,0,35,35,50,,,,,,,,,,4,1,0.86639008733,,,,,,2016_Okt_05_0836,P8,PLC_L_D1S1,NHGY,60.0226267409,
stim/posf.jpg,stim/negf.jpg,stim/2.jpg,stim/6.jpg,stim/latef.jpg,CD,1,2,,,,,,,,,0,36,36,26,,,,,,,,,,2,1,0.599799193242,,,,,,2016_Okt_05_0836,P8,PLC_L_D1S1,NHGY,60.0226267409,
stim/posf.jpg,stim/negf.jpg,stim/1.jpg,stim/4.jpg,stim/latef.jpg,EF,1,2,,,,,,,,,0,37,37,41,,,,,,,,,,2,1,0.899745449487,,,,,,2016_Okt_05_0836,P8,PLC_L_D1S1,NHGY,60.0226267409,
stim/posf.jpg,stim/negf.jpg,stim/2.jpg,stim/6.jpg,stim/latef.jpg,CD,1,2,,,,,,,,,0,38,38,25,,,,,,,,,,2,1,0.816403165378,,,,,,2016_Okt_05_0836,P8,PLC_L_D1S1,NHGY,60.0226267409,
stim/posf.jpg,stim/negf.jpg,stim/6.jpg,stim/2.jpg,stim/latef.jpg,CD,2,4,,,,,,,,,0,39,39,36,,,,,,,,,,4,1,0.933002208245,,,,,,2016_Okt_05_0836,P8,PLC_L_D1S1,NHGY,60.0226267409,
stim/posf.jpg,stim/negf.jpg,stim/5.jpg,stim/3.jpg,stim/latef.jpg,AB,2,4,,,,,,,,,0,40,40,11,,,,,,,,,,4,1,1.08295603583,,,,,,2016_Okt_05_0836,P8,PLC_L_D1S1,NHGY,60.0226267409,
stim/posf.jpg,stim/negf.jpg,stim/3.jpg,stim/5.jpg,stim/latef.jpg,AB,1,2,,,,,,,,,0,41,41,6,,,,,,,,,,2,1,1.21625708281,,,,,,2016_Okt_05_0836,P8,PLC_L_D1S1,NHGY,60.0226267409,
stim/posf.jpg,stim/negf.jpg,stim/4.jpg,stim/1.jpg,stim/latef.jpg,EF,2,4,,,,,,,,,0,42,42,54,,,,,,,,,,4,1,1.48284515588,,,,,,2016_Okt_05_0836,P8,PLC_L_D1S1,NHGY,60.0226267409,
stim/posf.jpg,stim/negf.jpg,stim/5.jpg,stim/3.jpg,stim/latef.jpg,AB,2,4,,,,,,,,,0,43,43,10,,,,,,,,,,4,1,1.53281409909,,,,,,2016_Okt_05_0836,P8,PLC_L_D1S1,NHGY,60.0226267409,
stim/posf.jpg,stim/negf.jpg,stim/1.jpg,stim/4.jpg,stim/latef.jpg,EF,1,2,,,,,,,,,0,44,44,40,,,,,,,,,,2,1,1.28290074924,,,,,,2016_Okt_05_0836,P8,PLC_L_D1S1,NHGY,60.0226267409,
stim/posf.jpg,stim/negf.jpg,stim/5.jpg,stim/3.jpg,stim/latef.jpg,AB,2,4,,,,,,,,,0,45,45,14,,,,,,,,,,4,1,1.41617868671,,,,,,2016_Okt_05_0836,P8,PLC_L_D1S1,NHGY,60.0226267409,
stim/posf.jpg,stim/negf.jpg,stim/4.jpg,stim/1.jpg,stim/latef.jpg,EF,2,4,,,,,,,,,0,46,46,55,,,,,,,,,,4,1,1.14964724458,,,,,,2016_Okt_05_0836,P8,PLC_L_D1S1,NHGY,60.0226267409,
stim/posf.jpg,stim/negf.jpg,stim/3.jpg,stim/5.jpg,stim/latef.jpg,AB,1,2,,,,,,,,,0,47,47,2,,,,,,,,,,2,1,1.29957379729,,,,,,2016_Okt_05_0836,P8,PLC_L_D1S1,NHGY,60.0226267409,
stim/posf.jpg,stim/negf.jpg,stim/5.jpg,stim/3.jpg,stim/latef.jpg,AB,2,4,,,,,,,,,0,48,48,15,,,,,,,,,,4,1,1.44952351064,,,,,,2016_Okt_05_0836,P8,PLC_L_D1S1,NHGY,60.0226267409,
stim/posf.jpg,stim/negf.jpg,stim/3.jpg,stim/5.jpg,stim/latef.jpg,AB,1,2,,,,,,,,,0,49,49,4,,,,,,,,,,2,1,1.38286646391,,,,,,2016_Okt_05_0836,P8,PLC_L_D1S1,NHGY,60.0226267409,
stim/posf.jpg,stim/negf.jpg,stim/6.jpg,stim/2.jpg,stim/latef.jpg,CD,2,4,,,,,,,,,0,50,50,35,,,,,,,,,,4,1,1.36617039056,,,,,,2016_Okt_05_0836,P8,PLC_L_D1S1,NHGY,60.0226267409,
stim/posf.jpg,stim/negf.jpg,stim/6.jpg,stim/2.jpg,stim/latef.jpg,CD,2,4,,,,,,,,,0,51,51,33,,,,,,,,,,4,1,1.34952229261,,,,,,2016_Okt_05_0836,P8,PLC_L_D1S1,NHGY,60.0226267409,
stim/negf.jpg,stim/posf.jpg,stim/2.jpg,stim/6.jpg,stim/latef.jpg,CD,1,2,,,,,,,,,0,52,52,27,,,,,,,,,,2,1,1.23292260012,,,,,,2016_Okt_05_0836,P8,PLC_L_D1S1,NHGY,60.0226267409,
stim/negf.jpg,stim/posf.jpg,stim/1.jpg,stim/4.jpg,stim/latef.jpg,EF,1,2,,,,,,,,,0,53,53,49,,,,,,,,,,2,1,1.29955501254,,,,,,2016_Okt_05_0836,P8,PLC_L_D1S1,NHGY,60.0226267409,
stim/posf.jpg,stim/negf.jpg,stim/4.jpg,stim/1.jpg,stim/latef.jpg,EF,2,4,,,,,,,,,0,54,54,52,,,,,,,,,,4,1,1.51616670188,,,,,,2016_Okt_05_0836,P8,PLC_L_D1S1,NHGY,60.0226267409,
stim/posf.jpg,stim/negf.jpg,stim/6.jpg,stim/2.jpg,stim/latef.jpg,CD,2,4,,,,,,,,,0,55,55,34,,,,,,,,,,4,1,1.31622037345,,,,,,2016_Okt_05_0836,P8,PLC_L_D1S1,NHGY,60.0226267409,
stim/posf.jpg,stim/negf.jpg,stim/1.jpg,stim/4.jpg,stim/latef.jpg,EF,1,2,,,,,,,,,0,56,56,42,,,,,,,,,,2,1,1.44951759792,,,,,,2016_Okt_05_0836,P8,PLC_L_D1S1,NHGY,60.0226267409,
stim/posf.jpg,stim/negf.jpg,stim/4.jpg,stim/1.jpg,stim/latef.jpg,EF,2,4,,,,,,,,,0,57,57,51,,,,,,,,,,4,1,1.49945456856,,,,,,2016_Okt_05_0836,P8,PLC_L_D1S1,NHGY,60.0226267409,
stim/negf.jpg,stim/posf.jpg,stim/4.jpg,stim/1.jpg,stim/latef.jpg,EF,2,4,,,,,,,,,0,58,58,59,,,,,,,,,,4,1,1.39946573836,,,,,,2016_Okt_05_0836,P8,PLC_L_D1S1,NHGY,60.0226267409,
stim/negf.jpg,stim/posf.jpg,stim/6.jpg,stim/2.jpg,stim/latef.jpg,CD,2,4,,,,,,,,,0,59,59,37,,,,,,,,,,4,1,1.33286836615,,,,,,2016_Okt_05_0836,P8,PLC_L_D1S1,NHGY,60.0226267409,
,,,,,,,,,,,,,,,,,,,,,,,,,,,,,,,,0.9984375,0.951171875,0,0,1,2016_Okt_05_0836,P8,PLC_L_D1S1,NHGY,60.0226267409,
stim/posf.jpg,stim/negf.jpg,stim/5.jpg,stim/3.jpg,stim/latef.jpg,AB,2,4,,,,,,,,,,,,,0,0,0,10,,,,,,4,1,1.26622728616,,,,,,2016_Okt_05_0836,P8,PLC_L_D1S1,NHGY,60.0226267409,
stim/posf.jpg,stim/negf.jpg,stim/1.jpg,stim/4.jpg,stim/latef.jpg,EF,1,2,,,,,,,,,,,,,0,1,1,41,,,,,,2,1,1.34953368797,,,,,,2016_Okt_05_0836,P8,PLC_L_D1S1,NHGY,60.0226267409,
stim/posf.jpg,stim/negf.jpg,stim/5.jpg,stim/3.jpg,stim/latef.jpg,AB,2,4,,,,,,,,,,,,,0,2,2,11,,,,,,4,1,1.1996366056,,,,,,2016_Okt_05_0836,P8,PLC_L_D1S1,NHGY,60.0226267409,
stim/posf.jpg,stim/negf.jpg,stim/6.jpg,stim/2.jpg,stim/latef.jpg,CD,2,4,,,,,,,,,,,,,0,3,3,30,,,,,,4,1,0.849707376233,,,,,,2016_Okt_05_0836,P8,PLC_L_D1S1,NHGY,60.0226267409,
stim/posf.jpg,stim/negf.jpg,stim/2.jpg,stim/6.jpg,stim/latef.jpg,CD,1,2,,,,,,,,,,,,,0,4,4,25,,,,,,2,1,0.566448796442,,,,,,2016_Okt_05_0836,P8,PLC_L_D1S1,NHGY,60.0226267409,
stim/posf.jpg,stim/negf.jpg,stim/2.jpg,stim/6.jpg,stim/latef.jpg,CD,1,2,,,,,,,,,,,,,0,5,5,21,,,,,,2,1,0.54983928452,,,,,,2016_Okt_05_0836,P8,PLC_L_D1S1,NHGY,60.0226267409,
stim/posf.jpg,stim/negf.jpg,stim/5.jpg,stim/3.jpg,stim/latef.jpg,AB,2,4,,,,,,,,,,,,,0,6,6,17,,,,,,4,1,0.749734675172,,,,,,2016_Okt_05_0836,P8,PLC_L_D1S1,NHGY,60.0226267409,
stim/negf.jpg,stim/posf.jpg,stim/3.jpg,stim/5.jpg,stim/latef.jpg,AB,1,2,,,,,,,,,,,,,0,7,7,8,,,,,,2,1,0.616420235861,,,,,,2016_Okt_05_0836,P8,PLC_L_D1S1,NHGY,60.0226267409,
stim/posf.jpg,stim/negf.jpg,stim/6.jpg,stim/2.jpg,stim/latef.jpg,CD,2,4,,,,,,,,,,,,,0,8,8,36,,,,,,4,1,0.73306614136,,,,,,2016_Okt_05_0836,P8,PLC_L_D1S1,NHGY,60.0226267409,
stim/negf.jpg,stim/posf.jpg,stim/1.jpg,stim/4.jpg,stim/latef.jpg,EF,1,2,,,,,,,,,,,,,0,9,9,49,,,,,,2,1,0.88303358684,,,,,,2016_Okt_05_0836,P8,PLC_L_D1S1,NHGY,60.0226267409,
stim/posf.jpg,stim/negf.jpg,stim/4.jpg,stim/1.jpg,stim/latef.jpg,EF,2,4,,,,,,,,,,,,,0,10,10,55,,,,,,4,1,0.916386705413,,,,,,2016_Okt_05_0836,P8,PLC_L_D1S1,NHGY,60.0226267409,
stim/posf.jpg,stim/negf.jpg,stim/2.jpg,stim/6.jpg,stim/latef.jpg,CD,1,2,,,,,,,,,,,,,0,11,11,23,,,,,,2,1,0.633120733224,,,,,,2016_Okt_05_0836,P8,PLC_L_D1S1,NHGY,60.0226267409,
stim/posf.jpg,stim/negf.jpg,stim/1.jpg,stim/4.jpg,stim/latef.jpg,EF,1,2,,,,,,,,,,,,,0,12,12,40,,,,,,2,1,0.683102921395,,,,,,2016_Okt_05_0836,P8,PLC_L_D1S1,NHGY,60.0226267409,
stim/posf.jpg,stim/negf.jpg,stim/1.jpg,stim/4.jpg,stim/latef.jpg,EF,1,2,,,,,,,,,,,,,0,13,13,44,,,,,,2,1,0.616427216235,,,,,,2016_Okt_05_0836,P8,PLC_L_D1S1,NHGY,60.0226267409,
stim/negf.jpg,stim/posf.jpg,stim/2.jpg,stim/6.jpg,stim/latef.jpg,CD,1,2,,,,,,,,,,,,,0,14,14,27,,,,,,2,1,0.79964390176,,,,,,2016_Okt_05_0836,P8,PLC_L_D1S1,NHGY,60.0226267409,
stim/posf.jpg,stim/negf.jpg,stim/4.jpg,stim/1.jpg,stim/latef.jpg,EF,2,4,,,,,,,,,,,,,0,15,15,52,,,,,,4,1,0.966400592474,,,,,,2016_Okt_05_0836,P8,PLC_L_D1S1,NHGY,60.0226267409,
stim/negf.jpg,stim/posf.jpg,stim/1.jpg,stim/4.jpg,stim/latef.jpg,EF,1,2,,,,,,,,,,,,,0,16,16,48,,,,,,2,1,1.06632603091,,,,,,2016_Okt_05_0836,P8,PLC_L_D1S1,NHGY,60.0226267409,
stim/negf.jpg,stim/posf.jpg,stim/6.jpg,stim/2.jpg,stim/latef.jpg,CD,2,4,,,,,,,,,,,,,0,17,17,37,,,,,,4,1,1.03301703214,,,,,,2016_Okt_05_0836,P8,PLC_L_D1S1,NHGY,60.0226267409,
stim/posf.jpg,stim/negf.jpg,stim/5.jpg,stim/3.jpg,stim/latef.jpg,AB,2,4,,,,,,,,,,,,,0,18,18,15,,,,,,4,1,1.38297394841,,,,,,2016_Okt_05_0836,P8,PLC_L_D1S1,NHGY,60.0226267409,
stim/posf.jpg,stim/negf.jpg,stim/1.jpg,stim/4.jpg,stim/latef.jpg,EF,1,2,,,,,,,,,,,,,0,19,19,42,,,,,,2,1,1.19962564332,,,,,,2016_Okt_05_0836,P8,PLC_L_D1S1,NHGY,60.0226267409,
stim/negf.jpg,stim/posf.jpg,stim/4.jpg,stim/1.jpg,stim/latef.jpg,EF,2,4,,,,,,,,,,,,,0,20,20,59,,,,,,4,1,1.4162148487,,,,,,2016_Okt_05_0836,P8,PLC_L_D1S1,NHGY,60.0226267409,
stim/posf.jpg,stim/negf.jpg,stim/5.jpg,stim/3.jpg,stim/latef.jpg,AB,2,4,,,,,,,,,,,,,0,21,21,13,,,,,,4,1,1.39949415608,,,,,,2016_Okt_05_0836,P8,PLC_L_D1S1,NHGY,60.0226267409,
stim/negf.jpg,stim/posf.jpg,stim/5.jpg,stim/3.jpg,stim/latef.jpg,AB,2,4,,,,,,,,,,,,,0,22,22,19,,,,,,4,1,1.44951173633,,,,,,2016_Okt_05_0836,P8,PLC_L_D1S1,NHGY,60.0226267409,
stim/negf.jpg,stim/posf.jpg,stim/4.jpg,stim/1.jpg,stim/latef.jpg,EF,2,4,,,,,,,,,,,,,0,23,23,56,,,,,,4,1,1.46617622508,,,,,,2016_Okt_05_0836,P8,PLC_L_D1S1,NHGY,60.0226267409,
stim/posf.jpg,stim/negf.jpg,stim/5.jpg,stim/3.jpg,stim/latef.jpg,AB,2,4,,,,,,,,,,,,,0,24,24,14,,,,,,None,0,,,,,,,2016_Okt_05_0836,P8,PLC_L_D1S1,NHGY,60.0226267409,
stim/posf.jpg,stim/negf.jpg,stim/3.jpg,stim/5.jpg,stim/latef.jpg,AB,1,2,,,,,,,,,,,,,0,25,25,1,,,,,,2,1,1.63278618061,,,,,,2016_Okt_05_0836,P8,PLC_L_D1S1,NHGY,60.0226267409,
stim/posf.jpg,stim/negf.jpg,stim/5.jpg,stim/3.jpg,stim/latef.jpg,AB,2,4,,,,,,,,,,,,,0,26,26,16,,,,,,4,1,1.44955775987,,,,,,2016_Okt_05_0836,P8,PLC_L_D1S1,NHGY,60.0226267409,
stim/negf.jpg,stim/posf.jpg,stim/6.jpg,stim/2.jpg,stim/latef.jpg,CD,2,4,,,,,,,,,,,,,0,27,27,38,,,,,,4,1,1.28290127856,,,,,,2016_Okt_05_0836,P8,PLC_L_D1S1,NHGY,60.0226267409,
stim/posf.jpg,stim/negf.jpg,stim/4.jpg,stim/1.jpg,stim/latef.jpg,EF,2,4,,,,,,,,,,,,,0,28,28,53,,,,,,4,1,1.49945088439,,,,,,2016_Okt_05_0836,P8,PLC_L_D1S1,NHGY,60.0226267409,
stim/posf.jpg,stim/negf.jpg,stim/6.jpg,stim/2.jpg,stim/latef.jpg,CD,2,4,,,,,,,,,,,,,0,29,29,35,,,,,,4,1,1.61615696665,,,,,,2016_Okt_05_0836,P8,PLC_L_D1S1,NHGY,60.0226267409,
stim/posf.jpg,stim/negf.jpg,stim/1.jpg,stim/4.jpg,stim/latef.jpg,EF,1,2,,,,,,,,,,,,,0,30,30,43,,,,,,None,0,,,,,,,2016_Okt_05_0836,P8,PLC_L_D1S1,NHGY,60.0226267409,
stim/posf.jpg,stim/negf.jpg,stim/6.jpg,stim/2.jpg,stim/latef.jpg,CD,2,4,,,,,,,,,,,,,0,31,31,34,,,,,,None,0,,,,,,,2016_Okt_05_0836,P8,PLC_L_D1S1,NHGY,60.0226267409,
stim/posf.jpg,stim/negf.jpg,stim/4.jpg,stim/1.jpg,stim/latef.jpg,EF,2,4,,,,,,,,,,,,,0,32,32,54,,,,,,4,1,1.23292234448,,,,,,2016_Okt_05_0836,P8,PLC_L_D1S1,NHGY,60.0226267409,
stim/negf.jpg,stim/posf.jpg,stim/5.jpg,stim/3.jpg,stim/latef.jpg,AB,2,4,,,,,,,,,,,,,0,33,33,18,,,,,,4,1,1.26626711428,,,,,,2016_Okt_05_0836,P8,PLC_L_D1S1,NHGY,60.0226267409,
stim/negf.jpg,stim/posf.jpg,stim/2.jpg,stim/6.jpg,stim/latef.jpg,CD,1,2,,,,,,,,,,,,,0,34,34,29,,,,,,2,1,1.09962037421,,,,,,2016_Okt_05_0836,P8,PLC_L_D1S1,NHGY,60.0226267409,
stim/negf.jpg,stim/posf.jpg,stim/1.jpg,stim/4.jpg,stim/latef.jpg,EF,1,2,,,,,,,,,,,,,0,35,35,46,,,,,,2,1,1.39952559933,,,,,,2016_Okt_05_0836,P8,PLC_L_D1S1,NHGY,60.0226267409,
stim/posf.jpg,stim/negf.jpg,stim/3.jpg,stim/5.jpg,stim/latef.jpg,AB,1,2,,,,,,,,,,,,,0,36,36,4,,,,,,2,1,1.26623506351,,,,,,2016_Okt_05_0836,P8,PLC_L_D1S1,NHGY,60.0226267409,
stim/posf.jpg,stim/negf.jpg,stim/2.jpg,stim/6.jpg,stim/latef.jpg,CD,1,2,,,,,,,,,,,,,0,37,37,22,,,,,,2,1,1.01633137972,,,,,,2016_Okt_05_0836,P8,PLC_L_D1S1,NHGY,60.0226267409,
stim/negf.jpg,stim/posf.jpg,stim/4.jpg,stim/1.jpg,stim/latef.jpg,EF,2,4,,,,,,,,,,,,,0,38,38,58,,,,,,4,1,0.933021708777,,,,,,2016_Okt_05_0836,P8,PLC_L_D1S1,NHGY,60.0226267409,
stim/negf.jpg,stim/posf.jpg,stim/1.jpg,stim/4.jpg,stim/latef.jpg,EF,1,2,,,,,,,,,,,,,0,39,39,47,,,,,,2,1,1.19958002579,,,,,,2016_Okt_05_0836,P8,PLC_L_D1S1,NHGY,60.0226267409,
stim/posf.jpg,stim/negf.jpg,stim/3.jpg,stim/5.jpg,stim/latef.jpg,AB,1,2,,,,,,,,,,,,,0,40,40,7,,,,,,2,1,0.733089921542,,,,,,2016_Okt_05_0836,P8,PLC_L_D1S1,NHGY,60.0226267409,
stim/posf.jpg,stim/negf.jpg,stim/3.jpg,stim/5.jpg,stim/latef.jpg,AB,1,2,,,,,,,,,,,,,0,41,41,5,,,,,,2,1,0.41655135318,,,,,,2016_Okt_05_0836,P8,PLC_L_D1S1,NHGY,60.0226267409,
stim/posf.jpg,stim/negf.jpg,stim/6.jpg,stim/2.jpg,stim/latef.jpg,CD,2,4,,,,,,,,,,,,,0,42,42,32,,,,,,2,0,0.233248467122,,,,,,2016_Okt_05_0836,P8,PLC_L_D1S1,NHGY,60.0226267409,
stim/posf.jpg,stim/negf.jpg,stim/2.jpg,stim/6.jpg,stim/latef.jpg,CD,1,2,,,,,,,,,,,,,0,43,43,20,,,,,,2,1,0.28322931997,,,,,,2016_Okt_05_0836,P8,PLC_L_D1S1,NHGY,60.0226267409,
stim/posf.jpg,stim/negf.jpg,stim/3.jpg,stim/5.jpg,stim/latef.jpg,AB,1,2,,,,,,,,,,,,,0,44,44,3,,,,,,2,1,0.599806360078,,,,,,2016_Okt_05_0836,P8,PLC_L_D1S1,NHGY,60.0226267409,
stim/posf.jpg,stim/negf.jpg,stim/5.jpg,stim/3.jpg,stim/latef.jpg,AB,2,4,,,,,,,,,,,,,0,45,45,12,,,,,,2,0,0.283315709974,,,,,,2016_Okt_05_0836,P8,PLC_L_D1S1,NHGY,60.0226267409,
stim/negf.jpg,stim/posf.jpg,stim/6.jpg,stim/2.jpg,stim/latef.jpg,CD,2,4,,,,,,,,,,,,,0,46,46,39,,,,,,4,1,0.84971093108,,,,,,2016_Okt_05_0836,P8,PLC_L_D1S1,NHGY,60.0226267409,
stim/posf.jpg,stim/negf.jpg,stim/3.jpg,stim/5.jpg,stim/latef.jpg,AB,1,2,,,,,,,,,,,,,0,47,47,0,,,,,,2,1,0.849712275425,,,,,,2016_Okt_05_0836,P8,PLC_L_D1S1,NHGY,60.0226267409,
stim/negf.jpg,stim/posf.jpg,stim/4.jpg,stim/1.jpg,stim/latef.jpg,EF,2,4,,,,,,,,,,,,,0,48,48,57,,,,,,4,1,0.933018054684,,,,,,2016_Okt_05_0836,P8,PLC_L_D1S1,NHGY,60.0226267409,
stim/negf.jpg,stim/posf.jpg,stim/2.jpg,stim/6.jpg,stim/latef.jpg,CD,1,2,,,,,,,,,,,,,0,49,49,28,,,,,,2,1,0.683057093342,,,,,,2016_Okt_05_0836,P8,PLC_L_D1S1,NHGY,60.0226267409,
stim/posf.jpg,stim/negf.jpg,stim/2.jpg,stim/6.jpg,stim/latef.jpg,CD,1,2,,,,,,,,,,,,,0,50,50,24,,,,,,2,1,0.833041437879,,,,,,2016_Okt_05_0836,P8,PLC_L_D1S1,NHGY,60.0226267409,
stim/posf.jpg,stim/negf.jpg,stim/4.jpg,stim/1.jpg,stim/latef.jpg,EF,2,4,,,,,,,,,,,,,0,51,51,50,,,,,,4,1,0.733094577129,,,,,,2016_Okt_05_0836,P8,PLC_L_D1S1,NHGY,60.0226267409,
stim/posf.jpg,stim/negf.jpg,stim/1.jpg,stim/4.jpg,stim/latef.jpg,EF,1,2,,,,,,,,,,,,,0,52,52,45,,,,,,2,1,1.21626873983,,,,,,2016_Okt_05_0836,P8,PLC_L_D1S1,NHGY,60.0226267409,
stim/posf.jpg,stim/negf.jpg,stim/4.jpg,stim/1.jpg,stim/latef.jpg,EF,2,4,,,,,,,,,,,,,0,53,53,51,,,,,,4,1,1.23291579719,,,,,,2016_Okt_05_0836,P8,PLC_L_D1S1,NHGY,60.0226267409,
stim/negf.jpg,stim/posf.jpg,stim/3.jpg,stim/5.jpg,stim/latef.jpg,AB,1,2,,,,,,,,,,,,,0,54,54,9,,,,,,2,1,1.34956854171,,,,,,2016_Okt_05_0836,P8,PLC_L_D1S1,NHGY,60.0226267409,
stim/posf.jpg,stim/negf.jpg,stim/3.jpg,stim/5.jpg,stim/latef.jpg,AB,1,2,,,,,,,,,,,,,0,55,55,6,,,,,,2,1,1.38288952531,,,,,,2016_Okt_05_0836,P8,PLC_L_D1S1,NHGY,60.0226267409,
stim/posf.jpg,stim/negf.jpg,stim/6.jpg,stim/2.jpg,stim/latef.jpg,CD,2,4,,,,,,,,,,,,,0,56,56,33,,,,,,4,1,1.26623989955,,,,,,2016_Okt_05_0836,P8,PLC_L_D1S1,NHGY,60.0226267409,
stim/posf.jpg,stim/negf.jpg,stim/6.jpg,stim/2.jpg,stim/latef.jpg,CD,2,4,,,,,,,,,,,,,0,57,57,31,,,,,,4,1,1.54945621215,,,,,,2016_Okt_05_0836,P8,PLC_L_D1S1,NHGY,60.0226267409,
stim/posf.jpg,stim/negf.jpg,stim/2.jpg,stim/6.jpg,stim/latef.jpg,CD,1,2,,,,,,,,,,,,,0,58,58,26,,,,,,2,1,1.43285523547,,,,,,2016_Okt_05_0836,P8,PLC_L_D1S1,NHGY,60.0226267409,
stim/posf.jpg,stim/negf.jpg,stim/3.jpg,stim/5.jpg,stim/latef.jpg,AB,1,2,,,,,,,,,,,,,0,59,59,2,,,,,,2,1,1.54948425995,,,,,,2016_Okt_05_0836,P8,PLC_L_D1S1,NHGY,60.0226267409,
