symbol2,symbol1,decisionID,correct,block_01.thisRepN,block_01.thisTrialN,block_01.thisN,block_01.thisIndex,mouse.x,mouse.y,mouse.leftButton,mouse.midButton,mouse.rightButton,buttonBox_2.keys,buttonBox_2.corr,buttonBox_2.rt,expName,Participant,frameRate,SessionNumber,Version,date,Group,
,,,,,,,,0.9984375,1.0,1,0,0,,,,PLC_T_D2S1,P23,60.0200870976,02,A,2015_Mrz_05_1449,Y,
stim/3.jpg,stim/2.jpg,13,2,0,0,0,23,,,,,,2,1,1.0996712819,PLC_T_D2S1,P23,60.0200870976,02,A,2015_Mrz_05_1449,Y,
stim/1.jpg,stim/4.jpg,12,4,0,1,1,27,,,,,,4,1,0.983009692372,PLC_T_D2S1,P23,60.0200870976,02,A,2015_Mrz_05_1449,Y,
stim/6.jpg,stim/4.jpg,9,2,0,2,2,26,,,,,,4,0,1.21617367022,PLC_T_D2S1,P23,60.0200870976,02,A,2015_Mrz_05_1449,Y,
stim/5.jpg,stim/4.jpg,5,4,0,3,3,25,,,,,,4,1,0.749750699052,PLC_T_D2S1,P23,60.0200870976,02,A,2015_Mrz_05_1449,Y,
stim/2.jpg,stim/6.jpg,8,4,0,4,4,8,,,,,,2,0,1.11630084172,PLC_T_D2S1,P23,60.0200870976,02,A,2015_Mrz_05_1449,Y,
stim/6.jpg,stim/3.jpg,7,2,0,5,5,16,,,,,,4,0,1.48285343549,PLC_T_D2S1,P23,60.0200870976,02,A,2015_Mrz_05_1449,Y,
stim/5.jpg,stim/2.jpg,4,4,0,6,6,20,,,,,,2,0,1.03297163115,PLC_T_D2S1,P23,60.0200870976,02,A,2015_Mrz_05_1449,Y,
stim/4.jpg,stim/1.jpg,12,2,0,7,7,14,,,,,,2,1,1.39953442029,PLC_T_D2S1,P23,60.0200870976,02,A,2015_Mrz_05_1449,Y,
stim/4.jpg,stim/3.jpg,14,4,0,8,8,19,,,,,,4,1,1.06632028661,PLC_T_D2S1,P23,60.0200870976,02,A,2015_Mrz_05_1449,Y,
stim/6.jpg,stim/2.jpg,8,2,0,9,9,21,,,,,,4,0,1.1662550663,PLC_T_D2S1,P23,60.0200870976,02,A,2015_Mrz_05_1449,Y,
stim/5.jpg,stim/6.jpg,1,4,0,10,10,5,,,,,,4,1,0.899694595926,PLC_T_D2S1,P23,60.0200870976,02,A,2015_Mrz_05_1449,Y,
stim/3.jpg,stim/4.jpg,14,2,0,11,11,28,,,,,,2,1,0.899678767533,PLC_T_D2S1,P23,60.0200870976,02,A,2015_Mrz_05_1449,Y,
stim/1.jpg,stim/2.jpg,11,4,0,12,12,22,,,,,,4,1,1.13295672004,PLC_T_D2S1,P23,60.0200870976,02,A,2015_Mrz_05_1449,Y,
stim/2.jpg,stim/3.jpg,13,4,0,13,13,18,,,,,,4,1,0.982983103198,PLC_T_D2S1,P23,60.0200870976,02,A,2015_Mrz_05_1449,Y,
stim/2.jpg,stim/1.jpg,11,2,0,14,14,13,,,,,,2,1,1.23292858201,PLC_T_D2S1,P23,60.0200870976,02,A,2015_Mrz_05_1449,Y,
stim/3.jpg,stim/6.jpg,7,4,0,15,15,7,,,,,,2,0,1.18294964794,PLC_T_D2S1,P23,60.0200870976,02,A,2015_Mrz_05_1449,Y,
stim/2.jpg,stim/5.jpg,4,2,0,16,16,3,,,,,,2,1,1.06627312324,PLC_T_D2S1,P23,60.0200870976,02,A,2015_Mrz_05_1449,Y,
stim/3.jpg,stim/1.jpg,10,2,0,17,17,12,,,,,,2,1,1.16627799837,PLC_T_D2S1,P23,60.0200870976,02,A,2015_Mrz_05_1449,Y,
stim/1.jpg,stim/5.jpg,2,2,0,18,18,1,,,,,,2,1,0.999662566212,PLC_T_D2S1,P23,60.0200870976,02,A,2015_Mrz_05_1449,Y,
stim/6.jpg,stim/5.jpg,1,2,0,19,19,0,,,,,,2,1,1.18294203599,PLC_T_D2S1,P23,60.0200870976,02,A,2015_Mrz_05_1449,Y,
stim/3.jpg,stim/5.jpg,3,2,0,20,20,2,,,,,,2,1,0.916381550584,PLC_T_D2S1,P23,60.0200870976,02,A,2015_Mrz_05_1449,Y,
stim/1.jpg,stim/6.jpg,6,4,0,21,21,6,,,,,,4,1,1.19961217279,PLC_T_D2S1,P23,60.0200870976,02,A,2015_Mrz_05_1449,Y,
stim/1.jpg,stim/3.jpg,10,4,0,22,22,17,,,,,,4,1,0.783073445036,PLC_T_D2S1,P23,60.0200870976,02,A,2015_Mrz_05_1449,Y,
stim/4.jpg,stim/5.jpg,5,2,0,23,23,4,,,,,,2,1,1.16629093356,PLC_T_D2S1,P23,60.0200870976,02,A,2015_Mrz_05_1449,Y,
stim/4.jpg,stim/2.jpg,15,2,0,24,24,24,,,,,,4,0,1.06629314105,PLC_T_D2S1,P23,60.0200870976,02,A,2015_Mrz_05_1449,Y,
stim/6.jpg,stim/1.jpg,6,2,0,25,25,11,,,,,,2,1,1.23291075965,PLC_T_D2S1,P23,60.0200870976,02,A,2015_Mrz_05_1449,Y,
stim/5.jpg,stim/1.jpg,2,4,0,26,26,10,,,,,,4,1,0.749765017687,PLC_T_D2S1,P23,60.0200870976,02,A,2015_Mrz_05_1449,Y,
stim/5.jpg,stim/3.jpg,3,4,0,27,27,15,,,,,,4,1,0.549806704436,PLC_T_D2S1,P23,60.0200870976,02,A,2015_Mrz_05_1449,Y,
stim/4.jpg,stim/6.jpg,9,4,0,28,28,9,,,,,,2,0,0.78313001282,PLC_T_D2S1,P23,60.0200870976,02,A,2015_Mrz_05_1449,Y,
stim/2.jpg,stim/4.jpg,15,4,0,29,29,29,,,,,,2,0,1.28287404277,PLC_T_D2S1,P23,60.0200870976,02,A,2015_Mrz_05_1449,Y,
stim/5.jpg,stim/2.jpg,4,4,1,0,30,20,,,,,,4,1,1.18291485434,PLC_T_D2S1,P23,60.0200870976,02,A,2015_Mrz_05_1449,Y,
stim/6.jpg,stim/3.jpg,7,2,1,1,31,16,,,,,,4,0,1.61613093988,PLC_T_D2S1,P23,60.0200870976,02,A,2015_Mrz_05_1449,Y,
stim/4.jpg,stim/3.jpg,14,4,1,2,32,19,,,,,,4,1,1.01633302181,PLC_T_D2S1,P23,60.0200870976,02,A,2015_Mrz_05_1449,Y,
stim/1.jpg,stim/6.jpg,6,4,1,3,33,6,,,,,,4,1,1.13292525874,PLC_T_D2S1,P23,60.0200870976,02,A,2015_Mrz_05_1449,Y,
stim/1.jpg,stim/5.jpg,2,2,1,4,34,1,,,,,,2,1,1.16627463299,PLC_T_D2S1,P23,60.0200870976,02,A,2015_Mrz_05_1449,Y,
stim/2.jpg,stim/4.jpg,15,4,1,5,35,29,,,,,,4,1,1.16628779074,PLC_T_D2S1,P23,60.0200870976,02,A,2015_Mrz_05_1449,Y,
stim/3.jpg,stim/2.jpg,13,2,1,6,36,23,,,,,,2,1,0.949695704184,PLC_T_D2S1,P23,60.0200870976,02,A,2015_Mrz_05_1449,Y,
stim/3.jpg,stim/1.jpg,10,2,1,7,37,12,,,,,,2,1,1.06630681308,PLC_T_D2S1,P23,60.0200870976,02,A,2015_Mrz_05_1449,Y,
stim/6.jpg,stim/2.jpg,8,2,1,8,38,21,,,,,,4,0,1.44951315587,PLC_T_D2S1,P23,60.0200870976,02,A,2015_Mrz_05_1449,Y,
stim/3.jpg,stim/5.jpg,3,2,1,9,39,2,,,,,,2,1,0.733086514062,PLC_T_D2S1,P23,60.0200870976,02,A,2015_Mrz_05_1449,Y,
stim/5.jpg,stim/6.jpg,1,4,1,10,40,5,,,,,,4,1,0.849713550599,PLC_T_D2S1,P23,60.0200870976,02,A,2015_Mrz_05_1449,Y,
stim/4.jpg,stim/6.jpg,9,4,1,11,41,9,,,,,,2,0,1.1496121352,PLC_T_D2S1,P23,60.0200870976,02,A,2015_Mrz_05_1449,Y,
stim/2.jpg,stim/5.jpg,4,2,1,12,42,3,,,,,,2,1,1.29957578524,PLC_T_D2S1,P23,60.0200870976,02,A,2015_Mrz_05_1449,Y,
stim/1.jpg,stim/4.jpg,12,4,1,13,43,27,,,,,,4,1,0.949684612579,PLC_T_D2S1,P23,60.0200870976,02,A,2015_Mrz_05_1449,Y,
stim/2.jpg,stim/1.jpg,11,2,1,14,44,13,,,,,,2,1,1.23290439281,PLC_T_D2S1,P23,60.0200870976,02,A,2015_Mrz_05_1449,Y,
stim/2.jpg,stim/6.jpg,8,4,1,15,45,8,,,,,,4,1,1.01640694879,PLC_T_D2S1,P23,60.0200870976,02,A,2015_Mrz_05_1449,Y,
stim/4.jpg,stim/5.jpg,5,2,1,16,46,4,,,,,,2,1,0.633086517069,PLC_T_D2S1,P23,60.0200870976,02,A,2015_Mrz_05_1449,Y,
stim/5.jpg,stim/4.jpg,5,4,1,17,47,25,,,,,,4,1,0.866376403274,PLC_T_D2S1,P23,60.0200870976,02,A,2015_Mrz_05_1449,Y,
stim/5.jpg,stim/3.jpg,3,4,1,18,48,15,,,,,,4,1,0.566483147934,PLC_T_D2S1,P23,60.0200870976,02,A,2015_Mrz_05_1449,Y,
stim/6.jpg,stim/1.jpg,6,2,1,19,49,11,,,,,,4,0,1.64943851611,PLC_T_D2S1,P23,60.0200870976,02,A,2015_Mrz_05_1449,Y,
stim/4.jpg,stim/1.jpg,12,2,1,20,50,14,,,,,,2,1,0.9996519137,PLC_T_D2S1,P23,60.0200870976,02,A,2015_Mrz_05_1449,Y,
stim/2.jpg,stim/3.jpg,13,4,1,21,51,18,,,,,,4,1,0.88302392379,PLC_T_D2S1,P23,60.0200870976,02,A,2015_Mrz_05_1449,Y,
stim/1.jpg,stim/2.jpg,11,4,1,22,52,22,,,,,,4,1,1.04964525964,PLC_T_D2S1,P23,60.0200870976,02,A,2015_Mrz_05_1449,Y,
stim/6.jpg,stim/4.jpg,9,2,1,23,53,26,,,,,,2,1,1.19959752334,PLC_T_D2S1,P23,60.0200870976,02,A,2015_Mrz_05_1449,Y,
stim/3.jpg,stim/6.jpg,7,4,1,24,54,7,,,,,,4,1,0.899754068939,PLC_T_D2S1,P23,60.0200870976,02,A,2015_Mrz_05_1449,Y,
stim/1.jpg,stim/3.jpg,10,4,1,25,55,17,,,,,,4,1,0.649772963463,PLC_T_D2S1,P23,60.0200870976,02,A,2015_Mrz_05_1449,Y,
stim/6.jpg,stim/5.jpg,1,2,1,26,56,0,,,,,,2,1,0.633151977985,PLC_T_D2S1,P23,60.0200870976,02,A,2015_Mrz_05_1449,Y,
stim/4.jpg,stim/2.jpg,15,2,1,27,57,24,,,,,,2,1,0.899706866464,PLC_T_D2S1,P23,60.0200870976,02,A,2015_Mrz_05_1449,Y,
stim/3.jpg,stim/4.jpg,14,2,1,28,58,28,,,,,,2,1,0.99961806145,PLC_T_D2S1,P23,60.0200870976,02,A,2015_Mrz_05_1449,Y,
stim/5.jpg,stim/1.jpg,2,4,1,29,59,10,,,,,,4,1,0.633119361812,PLC_T_D2S1,P23,60.0200870976,02,A,2015_Mrz_05_1449,Y,
stim/6.jpg,stim/2.jpg,8,2,2,0,60,21,,,,,,2,1,1.36622365011,PLC_T_D2S1,P23,60.0200870976,02,A,2015_Mrz_05_1449,Y,
stim/3.jpg,stim/1.jpg,10,2,2,1,61,12,,,,,,2,1,1.23293414886,PLC_T_D2S1,P23,60.0200870976,02,A,2015_Mrz_05_1449,Y,
stim/3.jpg,stim/2.jpg,13,2,2,2,62,23,,,,,,2,1,1.0663292008,PLC_T_D2S1,P23,60.0200870976,02,A,2015_Mrz_05_1449,Y,
stim/3.jpg,stim/5.jpg,3,2,2,3,63,2,,,,,,2,1,0.933003330038,PLC_T_D2S1,P23,60.0200870976,02,A,2015_Mrz_05_1449,Y,
stim/4.jpg,stim/3.jpg,14,4,2,4,64,19,,,,,,4,1,0.916363995895,PLC_T_D2S1,P23,60.0200870976,02,A,2015_Mrz_05_1449,Y,
stim/2.jpg,stim/4.jpg,15,4,2,5,65,29,,,,,,4,1,1.03296749886,PLC_T_D2S1,P23,60.0200870976,02,A,2015_Mrz_05_1449,Y,
stim/4.jpg,stim/5.jpg,5,2,2,6,66,4,,,,,,2,1,0.816411835957,PLC_T_D2S1,P23,60.0200870976,02,A,2015_Mrz_05_1449,Y,
stim/1.jpg,stim/6.jpg,6,4,2,7,67,6,,,,,,4,1,0.932990292591,PLC_T_D2S1,P23,60.0200870976,02,A,2015_Mrz_05_1449,Y,
stim/6.jpg,stim/3.jpg,7,2,2,8,68,16,,,,,,4,0,0.949696025984,PLC_T_D2S1,P23,60.0200870976,02,A,2015_Mrz_05_1449,Y,
stim/1.jpg,stim/4.jpg,12,4,2,9,69,27,,,,,,4,1,0.983011674305,PLC_T_D2S1,P23,60.0200870976,02,A,2015_Mrz_05_1449,Y,
stim/2.jpg,stim/6.jpg,8,4,2,10,70,8,,,,,,4,1,1.03298051225,PLC_T_D2S1,P23,60.0200870976,02,A,2015_Mrz_05_1449,Y,
stim/5.jpg,stim/1.jpg,2,4,2,11,71,10,,,,,,4,1,1.09963787476,PLC_T_D2S1,P23,60.0200870976,02,A,2015_Mrz_05_1449,Y,
stim/6.jpg,stim/1.jpg,6,2,2,12,72,11,,,,,,2,1,1.2995815175,PLC_T_D2S1,P23,60.0200870976,02,A,2015_Mrz_05_1449,Y,
stim/4.jpg,stim/6.jpg,9,4,2,13,73,9,,,,,,4,1,1.59946234892,PLC_T_D2S1,P23,60.0200870976,02,A,2015_Mrz_05_1449,Y,
stim/5.jpg,stim/3.jpg,3,4,2,14,74,15,,,,,,None,0,,PLC_T_D2S1,P23,60.0200870976,02,A,2015_Mrz_05_1449,Y,
stim/1.jpg,stim/5.jpg,2,2,2,15,75,1,,,,,,2,1,0.566479364519,PLC_T_D2S1,P23,60.0200870976,02,A,2015_Mrz_05_1449,Y,
stim/4.jpg,stim/1.jpg,12,2,2,16,76,14,,,,,,2,1,0.816354510288,PLC_T_D2S1,P23,60.0200870976,02,A,2015_Mrz_05_1449,Y,
stim/3.jpg,stim/6.jpg,7,4,2,17,77,7,,,,,,2,0,1.06631937234,PLC_T_D2S1,P23,60.0200870976,02,A,2015_Mrz_05_1449,Y,
stim/1.jpg,stim/3.jpg,10,4,2,18,78,17,,,,,,4,1,0.766416673496,PLC_T_D2S1,P23,60.0200870976,02,A,2015_Mrz_05_1449,Y,
stim/5.jpg,stim/4.jpg,5,4,2,19,79,25,,,,,,4,1,1.03294298185,PLC_T_D2S1,P23,60.0200870976,02,A,2015_Mrz_05_1449,Y,
stim/5.jpg,stim/2.jpg,4,4,2,20,80,20,,,,,,4,1,0.833072024,PLC_T_D2S1,P23,60.0200870976,02,A,2015_Mrz_05_1449,Y,
stim/5.jpg,stim/6.jpg,1,4,2,21,81,5,,,,,,4,1,0.999651799416,PLC_T_D2S1,P23,60.0200870976,02,A,2015_Mrz_05_1449,Y,
stim/4.jpg,stim/2.jpg,15,2,2,22,82,24,,,,,,4,0,0.949675755537,PLC_T_D2S1,P23,60.0200870976,02,A,2015_Mrz_05_1449,Y,
stim/2.jpg,stim/3.jpg,13,4,2,23,83,18,,,,,,4,1,1.21622781397,PLC_T_D2S1,P23,60.0200870976,02,A,2015_Mrz_05_1449,Y,
stim/2.jpg,stim/5.jpg,4,2,2,24,84,3,,,,,,2,1,1.14962687789,PLC_T_D2S1,P23,60.0200870976,02,A,2015_Mrz_05_1449,Y,
stim/6.jpg,stim/4.jpg,9,2,2,25,85,26,,,,,,4,0,1.34954354049,PLC_T_D2S1,P23,60.0200870976,02,A,2015_Mrz_05_1449,Y,
stim/3.jpg,stim/4.jpg,14,2,2,26,86,28,,,,,,2,1,1.04964814382,PLC_T_D2S1,P23,60.0200870976,02,A,2015_Mrz_05_1449,Y,
stim/2.jpg,stim/1.jpg,11,2,2,27,87,13,,,,,,2,1,1.28290603038,PLC_T_D2S1,P23,60.0200870976,02,A,2015_Mrz_05_1449,Y,
stim/1.jpg,stim/2.jpg,11,4,2,28,88,22,,,,,,4,1,1.23291887084,PLC_T_D2S1,P23,60.0200870976,02,A,2015_Mrz_05_1449,Y,
stim/6.jpg,stim/5.jpg,1,2,2,29,89,0,,,,,,2,1,0.799746150231,PLC_T_D2S1,P23,60.0200870976,02,A,2015_Mrz_05_1449,Y,
stim/4.jpg,stim/2.jpg,15,2,3,0,90,24,,,,,,2,1,1.64943927399,PLC_T_D2S1,P23,60.0200870976,02,A,2015_Mrz_05_1449,Y,
stim/1.jpg,stim/3.jpg,10,4,3,1,91,17,,,,,,4,1,0.833064369951,PLC_T_D2S1,P23,60.0200870976,02,A,2015_Mrz_05_1449,Y,
stim/6.jpg,stim/2.jpg,8,2,3,2,92,21,,,,,,2,1,1.03298192577,PLC_T_D2S1,P23,60.0200870976,02,A,2015_Mrz_05_1449,Y,
stim/5.jpg,stim/1.jpg,2,4,3,3,93,10,,,,,,4,1,0.916355481705,PLC_T_D2S1,P23,60.0200870976,02,A,2015_Mrz_05_1449,Y,
stim/5.jpg,stim/6.jpg,1,4,3,4,94,5,,,,,,4,1,0.783079366774,PLC_T_D2S1,P23,60.0200870976,02,A,2015_Mrz_05_1449,Y,
stim/3.jpg,stim/5.jpg,3,2,3,5,95,2,,,,,,2,1,0.783061896294,PLC_T_D2S1,P23,60.0200870976,02,A,2015_Mrz_05_1449,Y,
stim/1.jpg,stim/4.jpg,12,4,3,6,96,27,,,,,,4,1,0.883043622816,PLC_T_D2S1,P23,60.0200870976,02,A,2015_Mrz_05_1449,Y,
stim/6.jpg,stim/4.jpg,9,2,3,7,97,26,,,,,,4,0,1.49952049563,PLC_T_D2S1,P23,60.0200870976,02,A,2015_Mrz_05_1449,Y,
stim/3.jpg,stim/2.jpg,13,2,3,8,98,23,,,,,,2,1,0.999660148194,PLC_T_D2S1,P23,60.0200870976,02,A,2015_Mrz_05_1449,Y,
stim/6.jpg,stim/5.jpg,1,2,3,9,99,0,,,,,,2,1,0.566472384146,PLC_T_D2S1,P23,60.0200870976,02,A,2015_Mrz_05_1449,Y,
stim/4.jpg,stim/3.jpg,14,4,3,10,100,19,,,,,,4,1,1.1329513607,PLC_T_D2S1,P23,60.0200870976,02,A,2015_Mrz_05_1449,Y,
stim/1.jpg,stim/6.jpg,6,4,3,11,101,6,,,,,,4,1,1.26623160791,PLC_T_D2S1,P23,60.0200870976,02,A,2015_Mrz_05_1449,Y,
stim/2.jpg,stim/3.jpg,13,4,3,12,102,18,,,,,,4,1,0.866396685752,PLC_T_D2S1,P23,60.0200870976,02,A,2015_Mrz_05_1449,Y,
stim/5.jpg,stim/2.jpg,4,4,3,13,103,20,,,,,,4,1,0.733092941057,PLC_T_D2S1,P23,60.0200870976,02,A,2015_Mrz_05_1449,Y,
stim/5.jpg,stim/4.jpg,5,4,3,14,104,25,,,,,,4,1,0.899700180825,PLC_T_D2S1,P23,60.0200870976,02,A,2015_Mrz_05_1449,Y,
stim/4.jpg,stim/6.jpg,9,4,3,15,105,9,,,,,,4,1,1.2495895941,PLC_T_D2S1,P23,60.0200870976,02,A,2015_Mrz_05_1449,Y,
stim/1.jpg,stim/2.jpg,11,4,3,16,106,22,,,,,,4,1,1.13295619974,PLC_T_D2S1,P23,60.0200870976,02,A,2015_Mrz_05_1449,Y,
stim/6.jpg,stim/3.jpg,7,2,3,17,107,16,,,,,,4,0,1.03300669842,PLC_T_D2S1,P23,60.0200870976,02,A,2015_Mrz_05_1449,Y,
stim/2.jpg,stim/6.jpg,8,4,3,18,108,8,,,,,,4,1,0.916367502622,PLC_T_D2S1,P23,60.0200870976,02,A,2015_Mrz_05_1449,Y,
stim/2.jpg,stim/4.jpg,15,4,3,19,109,29,,,,,,4,1,1.41623134175,PLC_T_D2S1,P23,60.0200870976,02,A,2015_Mrz_05_1449,Y,
stim/2.jpg,stim/5.jpg,4,2,3,20,110,3,,,,,,2,1,0.599792480536,PLC_T_D2S1,P23,60.0200870976,02,A,2015_Mrz_05_1449,Y,
stim/5.jpg,stim/3.jpg,3,4,3,21,111,15,,,,,,4,1,0.649784379875,PLC_T_D2S1,P23,60.0200870976,02,A,2015_Mrz_05_1449,Y,
stim/1.jpg,stim/5.jpg,2,2,3,22,112,1,,,,,,2,1,0.716456746728,PLC_T_D2S1,P23,60.0200870976,02,A,2015_Mrz_05_1449,Y,
stim/4.jpg,stim/1.jpg,12,2,3,23,113,14,,,,,,2,1,0.799767425179,PLC_T_D2S1,P23,60.0200870976,02,A,2015_Mrz_05_1449,Y,
stim/3.jpg,stim/6.jpg,7,4,3,24,114,7,,,,,,4,1,0.766377293489,PLC_T_D2S1,P23,60.0200870976,02,A,2015_Mrz_05_1449,Y,
stim/6.jpg,stim/1.jpg,6,2,3,25,115,11,,,,,,2,1,0.933030764314,PLC_T_D2S1,P23,60.0200870976,02,A,2015_Mrz_05_1449,Y,
stim/3.jpg,stim/1.jpg,10,2,3,26,116,12,,,,,,2,1,1.01629196362,PLC_T_D2S1,P23,60.0200870976,02,A,2015_Mrz_05_1449,Y,
stim/4.jpg,stim/5.jpg,5,2,3,27,117,4,,,,,,2,1,0.683106831126,PLC_T_D2S1,P23,60.0200870976,02,A,2015_Mrz_05_1449,Y,
stim/3.jpg,stim/4.jpg,14,2,3,28,118,28,,,,,,2,1,1.06638315508,PLC_T_D2S1,P23,60.0200870976,02,A,2015_Mrz_05_1449,Y,
stim/2.jpg,stim/1.jpg,11,2,3,29,119,13,,,,,,2,1,0.899706953681,PLC_T_D2S1,P23,60.0200870976,02,A,2015_Mrz_05_1449,Y,
stim/4.jpg,stim/2.jpg,15,2,4,0,120,24,,,,,,4,0,1.54947366158,PLC_T_D2S1,P23,60.0200870976,02,A,2015_Mrz_05_1449,Y,
stim/1.jpg,stim/6.jpg,6,4,4,1,121,6,,,,,,4,1,0.949675193137,PLC_T_D2S1,P23,60.0200870976,02,A,2015_Mrz_05_1449,Y,
stim/4.jpg,stim/6.jpg,9,4,4,2,122,9,,,,,,4,1,0.999684923854,PLC_T_D2S1,P23,60.0200870976,02,A,2015_Mrz_05_1449,Y,
stim/2.jpg,stim/1.jpg,11,2,4,3,123,13,,,,,,4,0,1.11630518152,PLC_T_D2S1,P23,60.0200870976,02,A,2015_Mrz_05_1449,Y,
stim/6.jpg,stim/5.jpg,1,2,4,4,124,0,,,,,,2,1,0.849706567219,PLC_T_D2S1,P23,60.0200870976,02,A,2015_Mrz_05_1449,Y,
stim/6.jpg,stim/4.jpg,9,2,4,5,125,26,,,,,,2,1,1.03297625365,PLC_T_D2S1,P23,60.0200870976,02,A,2015_Mrz_05_1449,Y,
stim/5.jpg,stim/1.jpg,2,4,4,6,126,10,,,,,,4,1,0.899781172393,PLC_T_D2S1,P23,60.0200870976,02,A,2015_Mrz_05_1449,Y,
stim/1.jpg,stim/4.jpg,12,4,4,7,127,27,,,,,,4,1,1.21627685101,PLC_T_D2S1,P23,60.0200870976,02,A,2015_Mrz_05_1449,Y,
stim/2.jpg,stim/6.jpg,8,4,4,8,128,8,,,,,,4,1,1.16627428412,PLC_T_D2S1,P23,60.0200870976,02,A,2015_Mrz_05_1449,Y,
stim/5.jpg,stim/2.jpg,4,4,4,9,129,20,,,,,,4,1,0.983000540595,PLC_T_D2S1,P23,60.0200870976,02,A,2015_Mrz_05_1449,Y,
stim/3.jpg,stim/1.jpg,10,2,4,10,130,12,,,,,,2,1,1.28289882746,PLC_T_D2S1,P23,60.0200870976,02,A,2015_Mrz_05_1449,Y,
stim/6.jpg,stim/2.jpg,8,2,4,11,131,21,,,,,,None,0,,PLC_T_D2S1,P23,60.0200870976,02,A,2015_Mrz_05_1449,Y,
stim/5.jpg,stim/4.jpg,5,4,4,12,132,25,,,,,,4,1,0.683088849374,PLC_T_D2S1,P23,60.0200870976,02,A,2015_Mrz_05_1449,Y,
stim/2.jpg,stim/3.jpg,13,4,4,13,133,18,,,,,,4,1,0.949687842618,PLC_T_D2S1,P23,60.0200870976,02,A,2015_Mrz_05_1449,Y,
stim/3.jpg,stim/4.jpg,14,2,4,14,134,28,,,,,,2,1,1.01633135265,PLC_T_D2S1,P23,60.0200870976,02,A,2015_Mrz_05_1449,Y,
stim/4.jpg,stim/5.jpg,5,2,4,15,135,4,,,,,,2,1,0.766395867716,PLC_T_D2S1,P23,60.0200870976,02,A,2015_Mrz_05_1449,Y,
stim/4.jpg,stim/1.jpg,12,2,4,16,136,14,,,,,,2,1,1.11633389999,PLC_T_D2S1,P23,60.0200870976,02,A,2015_Mrz_05_1449,Y,
stim/1.jpg,stim/3.jpg,10,4,4,17,137,17,,,,,,4,1,0.966338866855,PLC_T_D2S1,P23,60.0200870976,02,A,2015_Mrz_05_1449,Y,
stim/4.jpg,stim/3.jpg,14,4,4,18,138,19,,,,,,4,1,0.999673459322,PLC_T_D2S1,P23,60.0200870976,02,A,2015_Mrz_05_1449,Y,
stim/2.jpg,stim/4.jpg,15,4,4,19,139,29,,,,,,4,1,1.08306508724,PLC_T_D2S1,P23,60.0200870976,02,A,2015_Mrz_05_1449,Y,
stim/3.jpg,stim/6.jpg,7,4,4,20,140,7,,,,,,2,0,1.11628667045,PLC_T_D2S1,P23,60.0200870976,02,A,2015_Mrz_05_1449,Y,
stim/1.jpg,stim/5.jpg,2,2,4,21,141,1,,,,,,2,1,0.633130672962,PLC_T_D2S1,P23,60.0200870976,02,A,2015_Mrz_05_1449,Y,
stim/2.jpg,stim/5.jpg,4,2,4,22,142,3,,,,,,2,1,0.916378558136,PLC_T_D2S1,P23,60.0200870976,02,A,2015_Mrz_05_1449,Y,
stim/3.jpg,stim/5.jpg,3,2,4,23,143,2,,,,,,2,1,0.616456061022,PLC_T_D2S1,P23,60.0200870976,02,A,2015_Mrz_05_1449,Y,
stim/6.jpg,stim/3.jpg,7,2,4,24,144,16,,,,,,4,0,0.916342366063,PLC_T_D2S1,P23,60.0200870976,02,A,2015_Mrz_05_1449,Y,
stim/5.jpg,stim/6.jpg,1,4,4,25,145,5,,,,,,4,1,0.699769746958,PLC_T_D2S1,P23,60.0200870976,02,A,2015_Mrz_05_1449,Y,
stim/3.jpg,stim/2.jpg,13,2,4,26,146,23,,,,,,2,1,0.983029138769,PLC_T_D2S1,P23,60.0200870976,02,A,2015_Mrz_05_1449,Y,
stim/5.jpg,stim/3.jpg,3,4,4,27,147,15,,,,,,4,1,1.29956483799,PLC_T_D2S1,P23,60.0200870976,02,A,2015_Mrz_05_1449,Y,
stim/1.jpg,stim/2.jpg,11,4,4,28,148,22,,,,,,4,1,1.28293632779,PLC_T_D2S1,P23,60.0200870976,02,A,2015_Mrz_05_1449,Y,
stim/6.jpg,stim/1.jpg,6,2,4,29,149,11,,,,,,2,1,1.06631361902,PLC_T_D2S1,P23,60.0200870976,02,A,2015_Mrz_05_1449,Y,
stim/3.jpg,stim/1.jpg,10,2,5,0,150,12,,,,,,2,1,0.98301703665,PLC_T_D2S1,P23,60.0200870976,02,A,2015_Mrz_05_1449,Y,
stim/4.jpg,stim/2.jpg,15,2,5,1,151,24,,,,,,4,0,1.01631918738,PLC_T_D2S1,P23,60.0200870976,02,A,2015_Mrz_05_1449,Y,
stim/6.jpg,stim/5.jpg,1,2,5,2,152,0,,,,,,2,1,0.899700430446,PLC_T_D2S1,P23,60.0200870976,02,A,2015_Mrz_05_1449,Y,
stim/4.jpg,stim/3.jpg,14,4,5,3,153,19,,,,,,None,0,,PLC_T_D2S1,P23,60.0200870976,02,A,2015_Mrz_05_1449,Y,
stim/6.jpg,stim/1.jpg,6,2,5,4,154,11,,,,,,2,1,0.933040517588,PLC_T_D2S1,P23,60.0200870976,02,A,2015_Mrz_05_1449,Y,
stim/1.jpg,stim/6.jpg,6,4,5,5,155,6,,,,,,4,1,0.666454952764,PLC_T_D2S1,P23,60.0200870976,02,A,2015_Mrz_05_1449,Y,
stim/2.jpg,stim/5.jpg,4,2,5,6,156,3,,,,,,2,1,0.683177870926,PLC_T_D2S1,P23,60.0200870976,02,A,2015_Mrz_05_1449,Y,
stim/3.jpg,stim/6.jpg,7,4,5,7,157,7,,,,,,2,0,0.966334151119,PLC_T_D2S1,P23,60.0200870976,02,A,2015_Mrz_05_1449,Y,
stim/1.jpg,stim/5.jpg,2,2,5,8,158,1,,,,,,2,1,0.833041708552,PLC_T_D2S1,P23,60.0200870976,02,A,2015_Mrz_05_1449,Y,
stim/3.jpg,stim/5.jpg,3,2,5,9,159,2,,,,,,2,1,0.733100766533,PLC_T_D2S1,P23,60.0200870976,02,A,2015_Mrz_05_1449,Y,
stim/2.jpg,stim/6.jpg,8,4,5,10,160,8,,,,,,2,0,0.983023737326,PLC_T_D2S1,P23,60.0200870976,02,A,2015_Mrz_05_1449,Y,
stim/4.jpg,stim/6.jpg,9,4,5,11,161,9,,,,,,4,1,1.08294879983,PLC_T_D2S1,P23,60.0200870976,02,A,2015_Mrz_05_1449,Y,
stim/5.jpg,stim/1.jpg,2,4,5,12,162,10,,,,,,4,1,0.833076472069,PLC_T_D2S1,P23,60.0200870976,02,A,2015_Mrz_05_1449,Y,
stim/4.jpg,stim/5.jpg,5,2,5,13,163,4,,,,,,2,1,0.633127827882,PLC_T_D2S1,P23,60.0200870976,02,A,2015_Mrz_05_1449,Y,
stim/5.jpg,stim/2.jpg,4,4,5,14,164,20,,,,,,4,1,0.599814260741,PLC_T_D2S1,P23,60.0200870976,02,A,2015_Mrz_05_1449,Y,
stim/2.jpg,stim/4.jpg,15,4,5,15,165,29,,,,,,4,1,1.23293615786,PLC_T_D2S1,P23,60.0200870976,02,A,2015_Mrz_05_1449,Y,
stim/3.jpg,stim/4.jpg,14,2,5,16,166,28,,,,,,2,1,1.01633922023,PLC_T_D2S1,P23,60.0200870976,02,A,2015_Mrz_05_1449,Y,
stim/5.jpg,stim/3.jpg,3,4,5,17,167,15,,,,,,4,1,0.716422280952,PLC_T_D2S1,P23,60.0200870976,02,A,2015_Mrz_05_1449,Y,
stim/6.jpg,stim/3.jpg,7,2,5,18,168,16,,,,,,4,0,0.94968260358,PLC_T_D2S1,P23,60.0200870976,02,A,2015_Mrz_05_1449,Y,
stim/4.jpg,stim/1.jpg,12,2,5,19,169,14,,,,,,2,1,1.11627658936,PLC_T_D2S1,P23,60.0200870976,02,A,2015_Mrz_05_1449,Y,
stim/1.jpg,stim/4.jpg,12,4,5,20,170,27,,,,,,4,1,0.981223222294,PLC_T_D2S1,P23,60.0200870976,02,A,2015_Mrz_05_1449,Y,
stim/6.jpg,stim/4.jpg,9,2,5,21,171,26,,,,,,2,1,1.33287525028,PLC_T_D2S1,P23,60.0200870976,02,A,2015_Mrz_05_1449,Y,
stim/2.jpg,stim/3.jpg,13,4,5,22,172,18,,,,,,4,1,1.09963678304,PLC_T_D2S1,P23,60.0200870976,02,A,2015_Mrz_05_1449,Y,
stim/2.jpg,stim/1.jpg,11,2,5,23,173,13,,,,,,4,0,1.48285062048,PLC_T_D2S1,P23,60.0200870976,02,A,2015_Mrz_05_1449,Y,
stim/6.jpg,stim/2.jpg,8,2,5,24,174,21,,,,,,None,0,,PLC_T_D2S1,P23,60.0200870976,02,A,2015_Mrz_05_1449,Y,
stim/3.jpg,stim/2.jpg,13,2,5,25,175,23,,,,,,2,1,0.966346487821,PLC_T_D2S1,P23,60.0200870976,02,A,2015_Mrz_05_1449,Y,
stim/1.jpg,stim/3.jpg,10,4,5,26,176,17,,,,,,4,1,0.899717479878,PLC_T_D2S1,P23,60.0200870976,02,A,2015_Mrz_05_1449,Y,
stim/5.jpg,stim/6.jpg,1,4,5,27,177,5,,,,,,4,1,0.783077826942,PLC_T_D2S1,P23,60.0200870976,02,A,2015_Mrz_05_1449,Y,
stim/5.jpg,stim/4.jpg,5,4,5,28,178,25,,,,,,4,1,0.683103577027,PLC_T_D2S1,P23,60.0200870976,02,A,2015_Mrz_05_1449,Y,
stim/1.jpg,stim/2.jpg,11,4,5,29,179,22,,,,,,4,1,0.999672331515,PLC_T_D2S1,P23,60.0200870976,02,A,2015_Mrz_05_1449,Y,
