fb_corr,fb_incorr,symbol2,symbol1,fb_late,pair,position,correct,block_01.thisRepN,block_01.thisTrialN,block_01.thisN,block_01.thisIndex,block_02.thisRepN,block_02.thisTrialN,block_02.thisN,block_02.thisIndex,block_03.thisRepN,block_03.thisTrialN,block_03.thisN,block_03.thisIndex,block_04.thisRepN,block_04.thisTrialN,block_04.thisN,block_04.thisIndex,mouse.x,mouse.y,mouse.leftButton,mouse.midButton,mouse.rightButton,buttonBox_2.keys,buttonBox_2.corr,buttonBox_2.rt,mouse_2.x,mouse_2.y,mouse_2.leftButton,mouse_2.midButton,mouse_2.rightButton,expName,Participant,frameRate,SessionNumber,Version,date,Group,
,,,,,,,,,,,,,,,,,,,,,,,,0.9984375,0.771484375,0,0,1,,,,,,,,,PLC_L_D2S1,P10,60.0208910057,02,B,2015_Jan_29_1420,X,
stim/negf.jpg,stim/posf.jpg,stim/1.jpg,stim/4.jpg,stim/latef.jpg,EF,1,2,0,0,0,48,,,,,,,,,,,,,,,,,,2,1,0.78307908407,,,,,,PLC_L_D2S1,P10,60.0208910057,02,B,2015_Jan_29_1420,X,
stim/posf.jpg,stim/negf.jpg,stim/2.jpg,stim/5.jpg,stim/latef.jpg,CD,2,4,0,1,1,35,,,,,,,,,,,,,,,,,,2,0,0.883010693864,,,,,,PLC_L_D2S1,P10,60.0208910057,02,B,2015_Jan_29_1420,X,
stim/posf.jpg,stim/negf.jpg,stim/6.jpg,stim/3.jpg,stim/latef.jpg,AB,2,4,0,2,2,12,,,,,,,,,,,,,,,,,,4,1,1.01632825494,,,,,,PLC_L_D2S1,P10,60.0208910057,02,B,2015_Jan_29_1420,X,
stim/posf.jpg,stim/negf.jpg,stim/3.jpg,stim/6.jpg,stim/latef.jpg,AB,1,2,0,3,3,6,,,,,,,,,,,,,,,,,,2,1,0.799771500321,,,,,,PLC_L_D2S1,P10,60.0208910057,02,B,2015_Jan_29_1420,X,
stim/negf.jpg,stim/posf.jpg,stim/4.jpg,stim/1.jpg,stim/latef.jpg,EF,2,4,0,4,4,59,,,,,,,,,,,,,,,,,,4,1,0.866381197204,,,,,,PLC_L_D2S1,P10,60.0208910057,02,B,2015_Jan_29_1420,X,
stim/posf.jpg,stim/negf.jpg,stim/5.jpg,stim/2.jpg,stim/latef.jpg,CD,1,2,0,5,5,24,,,,,,,,,,,,,,,,,,4,0,1.13296413349,,,,,,PLC_L_D2S1,P10,60.0208910057,02,B,2015_Jan_29_1420,X,
stim/posf.jpg,stim/negf.jpg,stim/5.jpg,stim/2.jpg,stim/latef.jpg,CD,1,2,0,6,6,26,,,,,,,,,,,,,,,,,,4,0,1.19958204983,,,,,,PLC_L_D2S1,P10,60.0208910057,02,B,2015_Jan_29_1420,X,
stim/negf.jpg,stim/posf.jpg,stim/1.jpg,stim/4.jpg,stim/latef.jpg,EF,1,2,0,7,7,46,,,,,,,,,,,,,,,,,,4,0,0.7496979207,,,,,,PLC_L_D2S1,P10,60.0208910057,02,B,2015_Jan_29_1420,X,
stim/posf.jpg,stim/negf.jpg,stim/6.jpg,stim/3.jpg,stim/latef.jpg,AB,2,4,0,8,8,16,,,,,,,,,,,,,,,,,,4,1,1.21628045398,,,,,,PLC_L_D2S1,P10,60.0208910057,02,B,2015_Jan_29_1420,X,
stim/posf.jpg,stim/negf.jpg,stim/4.jpg,stim/1.jpg,stim/latef.jpg,EF,2,4,0,9,9,51,,,,,,,,,,,,,,,,,,4,1,1.1329466209,,,,,,PLC_L_D2S1,P10,60.0208910057,02,B,2015_Jan_29_1420,X,
stim/posf.jpg,stim/negf.jpg,stim/6.jpg,stim/3.jpg,stim/latef.jpg,AB,2,4,0,10,10,11,,,,,,,,,,,,,,,,,,4,1,1.26624871148,,,,,,PLC_L_D2S1,P10,60.0208910057,02,B,2015_Jan_29_1420,X,
stim/posf.jpg,stim/negf.jpg,stim/6.jpg,stim/3.jpg,stim/latef.jpg,AB,2,4,0,11,11,14,,,,,,,,,,,,,,,,,,4,1,0.88304296117,,,,,,PLC_L_D2S1,P10,60.0208910057,02,B,2015_Jan_29_1420,X,
stim/posf.jpg,stim/negf.jpg,stim/3.jpg,stim/6.jpg,stim/latef.jpg,AB,1,2,0,12,12,3,,,,,,,,,,,,,,,,,,2,1,0.916430596647,,,,,,PLC_L_D2S1,P10,60.0208910057,02,B,2015_Jan_29_1420,X,
stim/negf.jpg,stim/posf.jpg,stim/4.jpg,stim/1.jpg,stim/latef.jpg,EF,2,4,0,13,13,58,,,,,,,,,,,,,,,,,,2,0,1.04968386672,,,,,,PLC_L_D2S1,P10,60.0208910057,02,B,2015_Jan_29_1420,X,
stim/posf.jpg,stim/negf.jpg,stim/4.jpg,stim/1.jpg,stim/latef.jpg,EF,2,4,0,14,14,55,,,,,,,,,,,,,,,,,,2,0,0.799675450277,,,,,,PLC_L_D2S1,P10,60.0208910057,02,B,2015_Jan_29_1420,X,
stim/posf.jpg,stim/negf.jpg,stim/4.jpg,stim/1.jpg,stim/latef.jpg,EF,2,4,0,15,15,53,,,,,,,,,,,,,,,,,,2,0,0.799703813867,,,,,,PLC_L_D2S1,P10,60.0208910057,02,B,2015_Jan_29_1420,X,
stim/negf.jpg,stim/posf.jpg,stim/2.jpg,stim/5.jpg,stim/latef.jpg,CD,2,4,0,16,16,38,,,,,,,,,,,,,,,,,,4,1,1.2662365041,,,,,,PLC_L_D2S1,P10,60.0208910057,02,B,2015_Jan_29_1420,X,
stim/posf.jpg,stim/negf.jpg,stim/3.jpg,stim/6.jpg,stim/latef.jpg,AB,1,2,0,17,17,0,,,,,,,,,,,,,,,,,,2,1,0.766392845194,,,,,,PLC_L_D2S1,P10,60.0208910057,02,B,2015_Jan_29_1420,X,
stim/posf.jpg,stim/negf.jpg,stim/2.jpg,stim/5.jpg,stim/latef.jpg,CD,2,4,0,18,18,30,,,,,,,,,,,,,,,,,,2,0,0.783074602918,,,,,,PLC_L_D2S1,P10,60.0208910057,02,B,2015_Jan_29_1420,X,
stim/negf.jpg,stim/posf.jpg,stim/3.jpg,stim/6.jpg,stim/latef.jpg,AB,1,2,0,19,19,8,,,,,,,,,,,,,,,,,,2,1,0.716449781394,,,,,,PLC_L_D2S1,P10,60.0208910057,02,B,2015_Jan_29_1420,X,
stim/negf.jpg,stim/posf.jpg,stim/6.jpg,stim/3.jpg,stim/latef.jpg,AB,2,4,0,20,20,18,,,,,,,,,,,,,,,,,,4,1,0.899710541611,,,,,,PLC_L_D2S1,P10,60.0208910057,02,B,2015_Jan_29_1420,X,
stim/posf.jpg,stim/negf.jpg,stim/1.jpg,stim/4.jpg,stim/latef.jpg,EF,1,2,0,21,21,40,,,,,,,,,,,,,,,,,,4,0,1.18295249602,,,,,,PLC_L_D2S1,P10,60.0208910057,02,B,2015_Jan_29_1420,X,
stim/negf.jpg,stim/posf.jpg,stim/4.jpg,stim/1.jpg,stim/latef.jpg,EF,2,4,0,22,22,56,,,,,,,,,,,,,,,,,,2,0,0.783009135987,,,,,,PLC_L_D2S1,P10,60.0208910057,02,B,2015_Jan_29_1420,X,
stim/negf.jpg,stim/posf.jpg,stim/1.jpg,stim/4.jpg,stim/latef.jpg,EF,1,2,0,23,23,47,,,,,,,,,,,,,,,,,,4,0,0.583150629128,,,,,,PLC_L_D2S1,P10,60.0208910057,02,B,2015_Jan_29_1420,X,
stim/negf.jpg,stim/posf.jpg,stim/1.jpg,stim/4.jpg,stim/latef.jpg,EF,1,2,0,24,24,49,,,,,,,,,,,,,,,,,,4,0,0.633045813769,,,,,,PLC_L_D2S1,P10,60.0208910057,02,B,2015_Jan_29_1420,X,
stim/negf.jpg,stim/posf.jpg,stim/4.jpg,stim/1.jpg,stim/latef.jpg,EF,2,4,0,25,25,57,,,,,,,,,,,,,,,,,,2,0,0.5997817378,,,,,,PLC_L_D2S1,P10,60.0208910057,02,B,2015_Jan_29_1420,X,
stim/posf.jpg,stim/negf.jpg,stim/3.jpg,stim/6.jpg,stim/latef.jpg,AB,1,2,0,26,26,1,,,,,,,,,,,,,,,,,,2,1,0.649786903155,,,,,,PLC_L_D2S1,P10,60.0208910057,02,B,2015_Jan_29_1420,X,
stim/posf.jpg,stim/negf.jpg,stim/4.jpg,stim/1.jpg,stim/latef.jpg,EF,2,4,0,27,27,50,,,,,,,,,,,,,,,,,,2,0,0.633130300034,,,,,,PLC_L_D2S1,P10,60.0208910057,02,B,2015_Jan_29_1420,X,
stim/posf.jpg,stim/negf.jpg,stim/2.jpg,stim/5.jpg,stim/latef.jpg,CD,2,4,0,28,28,36,,,,,,,,,,,,,,,,,,2,0,1.01633527441,,,,,,PLC_L_D2S1,P10,60.0208910057,02,B,2015_Jan_29_1420,X,
stim/posf.jpg,stim/negf.jpg,stim/3.jpg,stim/6.jpg,stim/latef.jpg,AB,1,2,0,29,29,2,,,,,,,,,,,,,,,,,,2,1,0.666450528754,,,,,,PLC_L_D2S1,P10,60.0208910057,02,B,2015_Jan_29_1420,X,
stim/posf.jpg,stim/negf.jpg,stim/6.jpg,stim/3.jpg,stim/latef.jpg,AB,2,4,0,30,30,17,,,,,,,,,,,,,,,,,,2,0,0.666502837938,,,,,,PLC_L_D2S1,P10,60.0208910057,02,B,2015_Jan_29_1420,X,
stim/negf.jpg,stim/posf.jpg,stim/6.jpg,stim/3.jpg,stim/latef.jpg,AB,2,4,0,31,31,19,,,,,,,,,,,,,,,,,,4,1,0.849680429168,,,,,,PLC_L_D2S1,P10,60.0208910057,02,B,2015_Jan_29_1420,X,
stim/posf.jpg,stim/negf.jpg,stim/1.jpg,stim/4.jpg,stim/latef.jpg,EF,1,2,0,32,32,42,,,,,,,,,,,,,,,,,,4,0,1.16628599828,,,,,,PLC_L_D2S1,P10,60.0208910057,02,B,2015_Jan_29_1420,X,
stim/posf.jpg,stim/negf.jpg,stim/5.jpg,stim/2.jpg,stim/latef.jpg,CD,1,2,0,33,33,23,,,,,,,,,,,,,,,,,,2,1,1.23290558076,,,,,,PLC_L_D2S1,P10,60.0208910057,02,B,2015_Jan_29_1420,X,
stim/posf.jpg,stim/negf.jpg,stim/5.jpg,stim/2.jpg,stim/latef.jpg,CD,1,2,0,34,34,20,,,,,,,,,,,,,,,,,,2,1,0.666465602268,,,,,,PLC_L_D2S1,P10,60.0208910057,02,B,2015_Jan_29_1420,X,
stim/posf.jpg,stim/negf.jpg,stim/4.jpg,stim/1.jpg,stim/latef.jpg,EF,2,4,0,35,35,54,,,,,,,,,,,,,,,,,,2,0,1.032987646,,,,,,PLC_L_D2S1,P10,60.0208910057,02,B,2015_Jan_29_1420,X,
stim/posf.jpg,stim/negf.jpg,stim/6.jpg,stim/3.jpg,stim/latef.jpg,AB,2,4,0,36,36,10,,,,,,,,,,,,,,,,,,4,1,0.86638947681,,,,,,PLC_L_D2S1,P10,60.0208910057,02,B,2015_Jan_29_1420,X,
stim/posf.jpg,stim/negf.jpg,stim/5.jpg,stim/2.jpg,stim/latef.jpg,CD,1,2,0,37,37,22,,,,,,,,,,,,,,,,,,2,1,0.949732768427,,,,,,PLC_L_D2S1,P10,60.0208910057,02,B,2015_Jan_29_1420,X,
stim/posf.jpg,stim/negf.jpg,stim/1.jpg,stim/4.jpg,stim/latef.jpg,EF,1,2,0,38,38,44,,,,,,,,,,,,,,,,,,4,0,0.583082789292,,,,,,PLC_L_D2S1,P10,60.0208910057,02,B,2015_Jan_29_1420,X,
stim/negf.jpg,stim/posf.jpg,stim/2.jpg,stim/5.jpg,stim/latef.jpg,CD,2,4,0,39,39,39,,,,,,,,,,,,,,,,,,2,0,0.749746097601,,,,,,PLC_L_D2S1,P10,60.0208910057,02,B,2015_Jan_29_1420,X,
stim/posf.jpg,stim/negf.jpg,stim/5.jpg,stim/2.jpg,stim/latef.jpg,CD,1,2,0,40,40,21,,,,,,,,,,,,,,,,,,2,1,0.999666409777,,,,,,PLC_L_D2S1,P10,60.0208910057,02,B,2015_Jan_29_1420,X,
stim/negf.jpg,stim/posf.jpg,stim/5.jpg,stim/2.jpg,stim/latef.jpg,CD,1,2,0,41,41,29,,,,,,,,,,,,,,,,,,2,1,1.01630961155,,,,,,PLC_L_D2S1,P10,60.0208910057,02,B,2015_Jan_29_1420,X,
stim/posf.jpg,stim/negf.jpg,stim/2.jpg,stim/5.jpg,stim/latef.jpg,CD,2,4,0,42,42,33,,,,,,,,,,,,,,,,,,4,1,0.716349481773,,,,,,PLC_L_D2S1,P10,60.0208910057,02,B,2015_Jan_29_1420,X,
stim/posf.jpg,stim/negf.jpg,stim/3.jpg,stim/6.jpg,stim/latef.jpg,AB,1,2,0,43,43,4,,,,,,,,,,,,,,,,,,2,1,0.816381096454,,,,,,PLC_L_D2S1,P10,60.0208910057,02,B,2015_Jan_29_1420,X,
stim/posf.jpg,stim/negf.jpg,stim/1.jpg,stim/4.jpg,stim/latef.jpg,EF,1,2,0,44,44,41,,,,,,,,,,,,,,,,,,4,0,0.733096832743,,,,,,PLC_L_D2S1,P10,60.0208910057,02,B,2015_Jan_29_1420,X,
stim/posf.jpg,stim/negf.jpg,stim/5.jpg,stim/2.jpg,stim/latef.jpg,CD,1,2,0,45,45,25,,,,,,,,,,,,,,,,,,2,1,1.03298404905,,,,,,PLC_L_D2S1,P10,60.0208910057,02,B,2015_Jan_29_1420,X,
stim/posf.jpg,stim/negf.jpg,stim/3.jpg,stim/6.jpg,stim/latef.jpg,AB,1,2,0,46,46,7,,,,,,,,,,,,,,,,,,2,1,0.566460994801,,,,,,PLC_L_D2S1,P10,60.0208910057,02,B,2015_Jan_29_1420,X,
stim/posf.jpg,stim/negf.jpg,stim/2.jpg,stim/5.jpg,stim/latef.jpg,CD,2,4,0,47,47,34,,,,,,,,,,,,,,,,,,4,1,1.28288563061,,,,,,PLC_L_D2S1,P10,60.0208910057,02,B,2015_Jan_29_1420,X,
stim/posf.jpg,stim/negf.jpg,stim/6.jpg,stim/3.jpg,stim/latef.jpg,AB,2,4,0,48,48,15,,,,,,,,,,,,,,,,,,4,1,0.999683522366,,,,,,PLC_L_D2S1,P10,60.0208910057,02,B,2015_Jan_29_1420,X,
stim/negf.jpg,stim/posf.jpg,stim/2.jpg,stim/5.jpg,stim/latef.jpg,CD,2,4,0,49,49,37,,,,,,,,,,,,,,,,,,2,0,0.966390761006,,,,,,PLC_L_D2S1,P10,60.0208910057,02,B,2015_Jan_29_1420,X,
stim/posf.jpg,stim/negf.jpg,stim/2.jpg,stim/5.jpg,stim/latef.jpg,CD,2,4,0,50,50,31,,,,,,,,,,,,,,,,,,2,0,0.583156355379,,,,,,PLC_L_D2S1,P10,60.0208910057,02,B,2015_Jan_29_1420,X,
stim/negf.jpg,stim/posf.jpg,stim/5.jpg,stim/2.jpg,stim/latef.jpg,CD,1,2,0,51,51,28,,,,,,,,,,,,,,,,,,2,1,0.849706317598,,,,,,PLC_L_D2S1,P10,60.0208910057,02,B,2015_Jan_29_1420,X,
stim/negf.jpg,stim/posf.jpg,stim/5.jpg,stim/2.jpg,stim/latef.jpg,CD,1,2,0,52,52,27,,,,,,,,,,,,,,,,,,2,1,0.633101524419,,,,,,PLC_L_D2S1,P10,60.0208910057,02,B,2015_Jan_29_1420,X,
stim/posf.jpg,stim/negf.jpg,stim/1.jpg,stim/4.jpg,stim/latef.jpg,EF,1,2,0,53,53,43,,,,,,,,,,,,,,,,,,4,0,0.866354277207,,,,,,PLC_L_D2S1,P10,60.0208910057,02,B,2015_Jan_29_1420,X,
stim/posf.jpg,stim/negf.jpg,stim/1.jpg,stim/4.jpg,stim/latef.jpg,EF,1,2,0,54,54,45,,,,,,,,,,,,,,,,,,2,1,0.56643083875,,,,,,PLC_L_D2S1,P10,60.0208910057,02,B,2015_Jan_29_1420,X,
stim/posf.jpg,stim/negf.jpg,stim/2.jpg,stim/5.jpg,stim/latef.jpg,CD,2,4,0,55,55,32,,,,,,,,,,,,,,,,,,4,1,1.11634534047,,,,,,PLC_L_D2S1,P10,60.0208910057,02,B,2015_Jan_29_1420,X,
stim/negf.jpg,stim/posf.jpg,stim/3.jpg,stim/6.jpg,stim/latef.jpg,AB,1,2,0,56,56,9,,,,,,,,,,,,,,,,,,2,1,0.949690549355,,,,,,PLC_L_D2S1,P10,60.0208910057,02,B,2015_Jan_29_1420,X,
stim/posf.jpg,stim/negf.jpg,stim/6.jpg,stim/3.jpg,stim/latef.jpg,AB,2,4,0,57,57,13,,,,,,,,,,,,,,,,,,4,1,0.899787064056,,,,,,PLC_L_D2S1,P10,60.0208910057,02,B,2015_Jan_29_1420,X,
stim/posf.jpg,stim/negf.jpg,stim/3.jpg,stim/6.jpg,stim/latef.jpg,AB,1,2,0,58,58,5,,,,,,,,,,,,,,,,,,2,1,0.683148313365,,,,,,PLC_L_D2S1,P10,60.0208910057,02,B,2015_Jan_29_1420,X,
stim/posf.jpg,stim/negf.jpg,stim/4.jpg,stim/1.jpg,stim/latef.jpg,EF,2,4,0,59,59,52,,,,,,,,,,,,,,,,,,2,0,0.649797227851,,,,,,PLC_L_D2S1,P10,60.0208910057,02,B,2015_Jan_29_1420,X,
,,,,,,,,,,,,,,,,,,,,,,,,,,,,,,,,0.9984375,0.771484375,1,0,0,PLC_L_D2S1,P10,60.0208910057,02,B,2015_Jan_29_1420,X,
stim/negf.jpg,stim/posf.jpg,stim/1.jpg,stim/4.jpg,stim/latef.jpg,EF,1,2,,,,,0,0,0,48,,,,,,,,,,,,,,2,1,0.849712801735,,,,,,PLC_L_D2S1,P10,60.0208910057,02,B,2015_Jan_29_1420,X,
stim/negf.jpg,stim/posf.jpg,stim/5.jpg,stim/2.jpg,stim/latef.jpg,CD,1,2,,,,,0,1,1,28,,,,,,,,,,,,,,2,1,0.94966917516,,,,,,PLC_L_D2S1,P10,60.0208910057,02,B,2015_Jan_29_1420,X,
stim/negf.jpg,stim/posf.jpg,stim/5.jpg,stim/2.jpg,stim/latef.jpg,CD,1,2,,,,,0,2,2,29,,,,,,,,,,,,,,2,1,1.01633810446,,,,,,PLC_L_D2S1,P10,60.0208910057,02,B,2015_Jan_29_1420,X,
stim/posf.jpg,stim/negf.jpg,stim/3.jpg,stim/6.jpg,stim/latef.jpg,AB,1,2,,,,,0,3,3,4,,,,,,,,,,,,,,2,1,1.0663202415,,,,,,PLC_L_D2S1,P10,60.0208910057,02,B,2015_Jan_29_1420,X,
stim/negf.jpg,stim/posf.jpg,stim/2.jpg,stim/5.jpg,stim/latef.jpg,CD,2,4,,,,,0,4,4,38,,,,,,,,,,,,,,4,1,0.699754799758,,,,,,PLC_L_D2S1,P10,60.0208910057,02,B,2015_Jan_29_1420,X,
stim/posf.jpg,stim/negf.jpg,stim/3.jpg,stim/6.jpg,stim/latef.jpg,AB,1,2,,,,,0,5,5,3,,,,,,,,,,,,,,2,1,0.88305432044,,,,,,PLC_L_D2S1,P10,60.0208910057,02,B,2015_Jan_29_1420,X,
stim/negf.jpg,stim/posf.jpg,stim/3.jpg,stim/6.jpg,stim/latef.jpg,AB,1,2,,,,,0,6,6,9,,,,,,,,,,,,,,2,1,0.749750554693,,,,,,PLC_L_D2S1,P10,60.0208910057,02,B,2015_Jan_29_1420,X,
stim/posf.jpg,stim/negf.jpg,stim/2.jpg,stim/5.jpg,stim/latef.jpg,CD,2,4,,,,,0,7,7,30,,,,,,,,,,,,,,2,0,1.26624297921,,,,,,PLC_L_D2S1,P10,60.0208910057,02,B,2015_Jan_29_1420,X,
stim/posf.jpg,stim/negf.jpg,stim/4.jpg,stim/1.jpg,stim/latef.jpg,EF,2,4,,,,,0,8,8,52,,,,,,,,,,,,,,4,1,1.19961074424,,,,,,PLC_L_D2S1,P10,60.0208910057,02,B,2015_Jan_29_1420,X,
stim/posf.jpg,stim/negf.jpg,stim/6.jpg,stim/3.jpg,stim/latef.jpg,AB,2,4,,,,,0,9,9,17,,,,,,,,,,,,,,4,1,1.13297550779,,,,,,PLC_L_D2S1,P10,60.0208910057,02,B,2015_Jan_29_1420,X,
stim/posf.jpg,stim/negf.jpg,stim/6.jpg,stim/3.jpg,stim/latef.jpg,AB,2,4,,,,,0,10,10,11,,,,,,,,,,,,,,4,1,0.982935269151,,,,,,PLC_L_D2S1,P10,60.0208910057,02,B,2015_Jan_29_1420,X,
stim/posf.jpg,stim/negf.jpg,stim/4.jpg,stim/1.jpg,stim/latef.jpg,EF,2,4,,,,,0,11,11,50,,,,,,,,,,,,,,2,0,0.816398278215,,,,,,PLC_L_D2S1,P10,60.0208910057,02,B,2015_Jan_29_1420,X,
stim/posf.jpg,stim/negf.jpg,stim/6.jpg,stim/3.jpg,stim/latef.jpg,AB,2,4,,,,,0,12,12,16,,,,,,,,,,,,,,2,0,1.0829975271,,,,,,PLC_L_D2S1,P10,60.0208910057,02,B,2015_Jan_29_1420,X,
stim/negf.jpg,stim/posf.jpg,stim/4.jpg,stim/1.jpg,stim/latef.jpg,EF,2,4,,,,,0,13,13,58,,,,,,,,,,,,,,2,0,1.14964497994,,,,,,PLC_L_D2S1,P10,60.0208910057,02,B,2015_Jan_29_1420,X,
stim/negf.jpg,stim/posf.jpg,stim/4.jpg,stim/1.jpg,stim/latef.jpg,EF,2,4,,,,,0,14,14,56,,,,,,,,,,,,,,4,1,1.14963266129,,,,,,PLC_L_D2S1,P10,60.0208910057,02,B,2015_Jan_29_1420,X,
stim/posf.jpg,stim/negf.jpg,stim/5.jpg,stim/2.jpg,stim/latef.jpg,CD,1,2,,,,,0,15,15,24,,,,,,,,,,,,,,2,1,1.04965828506,,,,,,PLC_L_D2S1,P10,60.0208910057,02,B,2015_Jan_29_1420,X,
stim/posf.jpg,stim/negf.jpg,stim/3.jpg,stim/6.jpg,stim/latef.jpg,AB,1,2,,,,,0,16,16,6,,,,,,,,,,,,,,2,1,0.766426098954,,,,,,PLC_L_D2S1,P10,60.0208910057,02,B,2015_Jan_29_1420,X,
stim/posf.jpg,stim/negf.jpg,stim/5.jpg,stim/2.jpg,stim/latef.jpg,CD,1,2,,,,,0,17,17,20,,,,,,,,,,,,,,4,0,0.866305673244,,,,,,PLC_L_D2S1,P10,60.0208910057,02,B,2015_Jan_29_1420,X,
stim/posf.jpg,stim/negf.jpg,stim/6.jpg,stim/3.jpg,stim/latef.jpg,AB,2,4,,,,,0,18,18,14,,,,,,,,,,,,,,4,1,0.8163936918,,,,,,PLC_L_D2S1,P10,60.0208910057,02,B,2015_Jan_29_1420,X,
stim/posf.jpg,stim/negf.jpg,stim/5.jpg,stim/2.jpg,stim/latef.jpg,CD,1,2,,,,,0,19,19,25,,,,,,,,,,,,,,2,1,0.866386794134,,,,,,PLC_L_D2S1,P10,60.0208910057,02,B,2015_Jan_29_1420,X,
stim/posf.jpg,stim/negf.jpg,stim/3.jpg,stim/6.jpg,stim/latef.jpg,AB,1,2,,,,,0,20,20,5,,,,,,,,,,,,,,2,1,1.36620315109,,,,,,PLC_L_D2S1,P10,60.0208910057,02,B,2015_Jan_29_1420,X,
stim/posf.jpg,stim/negf.jpg,stim/5.jpg,stim/2.jpg,stim/latef.jpg,CD,1,2,,,,,0,21,21,21,,,,,,,,,,,,,,2,1,0.949672041293,,,,,,PLC_L_D2S1,P10,60.0208910057,02,B,2015_Jan_29_1420,X,
stim/posf.jpg,stim/negf.jpg,stim/6.jpg,stim/3.jpg,stim/latef.jpg,AB,2,4,,,,,0,22,22,13,,,,,,,,,,,,,,4,1,1.0496574971,,,,,,PLC_L_D2S1,P10,60.0208910057,02,B,2015_Jan_29_1420,X,
stim/posf.jpg,stim/negf.jpg,stim/2.jpg,stim/5.jpg,stim/latef.jpg,CD,2,4,,,,,0,23,23,32,,,,,,,,,,,,,,4,1,1.09963588681,,,,,,PLC_L_D2S1,P10,60.0208910057,02,B,2015_Jan_29_1420,X,
stim/posf.jpg,stim/negf.jpg,stim/1.jpg,stim/4.jpg,stim/latef.jpg,EF,1,2,,,,,0,24,24,40,,,,,,,,,,,,,,2,1,0.799689029071,,,,,,PLC_L_D2S1,P10,60.0208910057,02,B,2015_Jan_29_1420,X,
stim/posf.jpg,stim/negf.jpg,stim/2.jpg,stim/5.jpg,stim/latef.jpg,CD,2,4,,,,,0,25,25,33,,,,,,,,,,,,,,2,0,0.916423956121,,,,,,PLC_L_D2S1,P10,60.0208910057,02,B,2015_Jan_29_1420,X,
stim/posf.jpg,stim/negf.jpg,stim/5.jpg,stim/2.jpg,stim/latef.jpg,CD,1,2,,,,,0,26,26,26,,,,,,,,,,,,,,4,0,0.73309242377,,,,,,PLC_L_D2S1,P10,60.0208910057,02,B,2015_Jan_29_1420,X,
stim/negf.jpg,stim/posf.jpg,stim/2.jpg,stim/5.jpg,stim/latef.jpg,CD,2,4,,,,,0,27,27,39,,,,,,,,,,,,,,4,1,0.633128748172,,,,,,PLC_L_D2S1,P10,60.0208910057,02,B,2015_Jan_29_1420,X,
stim/posf.jpg,stim/negf.jpg,stim/5.jpg,stim/2.jpg,stim/latef.jpg,CD,1,2,,,,,0,28,28,23,,,,,,,,,,,,,,2,1,1.21621647275,,,,,,PLC_L_D2S1,P10,60.0208910057,02,B,2015_Jan_29_1420,X,
stim/posf.jpg,stim/negf.jpg,stim/3.jpg,stim/6.jpg,stim/latef.jpg,AB,1,2,,,,,0,29,29,2,,,,,,,,,,,,,,2,1,0.86638402424,,,,,,PLC_L_D2S1,P10,60.0208910057,02,B,2015_Jan_29_1420,X,
stim/posf.jpg,stim/negf.jpg,stim/1.jpg,stim/4.jpg,stim/latef.jpg,EF,1,2,,,,,0,30,30,44,,,,,,,,,,,,,,2,1,1.41621134498,,,,,,PLC_L_D2S1,P10,60.0208910057,02,B,2015_Jan_29_1420,X,
stim/posf.jpg,stim/negf.jpg,stim/3.jpg,stim/6.jpg,stim/latef.jpg,AB,1,2,,,,,0,31,31,0,,,,,,,,,,,,,,2,1,0.783071586411,,,,,,PLC_L_D2S1,P10,60.0208910057,02,B,2015_Jan_29_1420,X,
stim/negf.jpg,stim/posf.jpg,stim/2.jpg,stim/5.jpg,stim/latef.jpg,CD,2,4,,,,,0,32,32,37,,,,,,,,,,,,,,4,1,0.932965177084,,,,,,PLC_L_D2S1,P10,60.0208910057,02,B,2015_Jan_29_1420,X,
stim/negf.jpg,stim/posf.jpg,stim/6.jpg,stim/3.jpg,stim/latef.jpg,AB,2,4,,,,,0,33,33,19,,,,,,,,,,,,,,4,1,1.06630102969,,,,,,PLC_L_D2S1,P10,60.0208910057,02,B,2015_Jan_29_1420,X,
stim/negf.jpg,stim/posf.jpg,stim/4.jpg,stim/1.jpg,stim/latef.jpg,EF,2,4,,,,,0,34,34,59,,,,,,,,,,,,,,4,1,1.21629814701,,,,,,PLC_L_D2S1,P10,60.0208910057,02,B,2015_Jan_29_1420,X,
stim/negf.jpg,stim/posf.jpg,stim/1.jpg,stim/4.jpg,stim/latef.jpg,EF,1,2,,,,,0,35,35,46,,,,,,,,,,,,,,2,1,0.499812675797,,,,,,PLC_L_D2S1,P10,60.0208910057,02,B,2015_Jan_29_1420,X,
stim/posf.jpg,stim/negf.jpg,stim/2.jpg,stim/5.jpg,stim/latef.jpg,CD,2,4,,,,,0,36,36,34,,,,,,,,,,,,,,4,1,1.24959693237,,,,,,PLC_L_D2S1,P10,60.0208910057,02,B,2015_Jan_29_1420,X,
stim/posf.jpg,stim/negf.jpg,stim/3.jpg,stim/6.jpg,stim/latef.jpg,AB,1,2,,,,,0,37,37,1,,,,,,,,,,,,,,2,1,0.63318290696,,,,,,PLC_L_D2S1,P10,60.0208910057,02,B,2015_Jan_29_1420,X,
stim/negf.jpg,stim/posf.jpg,stim/5.jpg,stim/2.jpg,stim/latef.jpg,CD,1,2,,,,,0,38,38,27,,,,,,,,,,,,,,2,1,1.36622378244,,,,,,PLC_L_D2S1,P10,60.0208910057,02,B,2015_Jan_29_1420,X,
stim/posf.jpg,stim/negf.jpg,stim/2.jpg,stim/5.jpg,stim/latef.jpg,CD,2,4,,,,,0,39,39,35,,,,,,,,,,,,,,4,1,0.966365104153,,,,,,PLC_L_D2S1,P10,60.0208910057,02,B,2015_Jan_29_1420,X,
stim/posf.jpg,stim/negf.jpg,stim/1.jpg,stim/4.jpg,stim/latef.jpg,EF,1,2,,,,,0,40,40,41,,,,,,,,,,,,,,2,1,1.1829512389,,,,,,PLC_L_D2S1,P10,60.0208910057,02,B,2015_Jan_29_1420,X,
stim/posf.jpg,stim/negf.jpg,stim/4.jpg,stim/1.jpg,stim/latef.jpg,EF,2,4,,,,,0,41,41,54,,,,,,,,,,,,,,4,1,0.966348409604,,,,,,PLC_L_D2S1,P10,60.0208910057,02,B,2015_Jan_29_1420,X,
stim/negf.jpg,stim/posf.jpg,stim/4.jpg,stim/1.jpg,stim/latef.jpg,EF,2,4,,,,,0,42,42,57,,,,,,,,,,,,,,4,1,1.36620293455,,,,,,PLC_L_D2S1,P10,60.0208910057,02,B,2015_Jan_29_1420,X,
stim/posf.jpg,stim/negf.jpg,stim/5.jpg,stim/2.jpg,stim/latef.jpg,CD,1,2,,,,,0,43,43,22,,,,,,,,,,,,,,4,0,0.916373255941,,,,,,PLC_L_D2S1,P10,60.0208910057,02,B,2015_Jan_29_1420,X,
stim/posf.jpg,stim/negf.jpg,stim/1.jpg,stim/4.jpg,stim/latef.jpg,EF,1,2,,,,,0,44,44,43,,,,,,,,,,,,,,2,1,0.716432879329,,,,,,PLC_L_D2S1,P10,60.0208910057,02,B,2015_Jan_29_1420,X,
stim/posf.jpg,stim/negf.jpg,stim/3.jpg,stim/6.jpg,stim/latef.jpg,AB,1,2,,,,,0,45,45,7,,,,,,,,,,,,,,2,1,0.866341576599,,,,,,PLC_L_D2S1,P10,60.0208910057,02,B,2015_Jan_29_1420,X,
stim/posf.jpg,stim/negf.jpg,stim/2.jpg,stim/5.jpg,stim/latef.jpg,CD,2,4,,,,,0,46,46,36,,,,,,,,,,,,,,2,0,0.833040857434,,,,,,PLC_L_D2S1,P10,60.0208910057,02,B,2015_Jan_29_1420,X,
stim/posf.jpg,stim/negf.jpg,stim/1.jpg,stim/4.jpg,stim/latef.jpg,EF,1,2,,,,,0,47,47,42,,,,,,,,,,,,,,2,1,0.833045317534,,,,,,PLC_L_D2S1,P10,60.0208910057,02,B,2015_Jan_29_1420,X,
stim/posf.jpg,stim/negf.jpg,stim/4.jpg,stim/1.jpg,stim/latef.jpg,EF,2,4,,,,,0,48,48,55,,,,,,,,,,,,,,4,1,0.699764029729,,,,,,PLC_L_D2S1,P10,60.0208910057,02,B,2015_Jan_29_1420,X,
stim/negf.jpg,stim/posf.jpg,stim/1.jpg,stim/4.jpg,stim/latef.jpg,EF,1,2,,,,,0,49,49,47,,,,,,,,,,,,,,2,1,0.649777492735,,,,,,PLC_L_D2S1,P10,60.0208910057,02,B,2015_Jan_29_1420,X,
stim/posf.jpg,stim/negf.jpg,stim/2.jpg,stim/5.jpg,stim/latef.jpg,CD,2,4,,,,,0,50,50,31,,,,,,,,,,,,,,2,0,0.933018430619,,,,,,PLC_L_D2S1,P10,60.0208910057,02,B,2015_Jan_29_1420,X,
stim/posf.jpg,stim/negf.jpg,stim/1.jpg,stim/4.jpg,stim/latef.jpg,EF,1,2,,,,,0,51,51,45,,,,,,,,,,,,,,2,1,0.633128020361,,,,,,PLC_L_D2S1,P10,60.0208910057,02,B,2015_Jan_29_1420,X,
stim/posf.jpg,stim/negf.jpg,stim/4.jpg,stim/1.jpg,stim/latef.jpg,EF,2,4,,,,,0,52,52,53,,,,,,,,,,,,,,4,1,0.583130316575,,,,,,PLC_L_D2S1,P10,60.0208910057,02,B,2015_Jan_29_1420,X,
stim/posf.jpg,stim/negf.jpg,stim/6.jpg,stim/3.jpg,stim/latef.jpg,AB,2,4,,,,,0,53,53,15,,,,,,,,,,,,,,4,1,1.13294740285,,,,,,PLC_L_D2S1,P10,60.0208910057,02,B,2015_Jan_29_1420,X,
stim/negf.jpg,stim/posf.jpg,stim/3.jpg,stim/6.jpg,stim/latef.jpg,AB,1,2,,,,,0,54,54,8,,,,,,,,,,,,,,2,1,1.06631113484,,,,,,PLC_L_D2S1,P10,60.0208910057,02,B,2015_Jan_29_1420,X,
stim/negf.jpg,stim/posf.jpg,stim/6.jpg,stim/3.jpg,stim/latef.jpg,AB,2,4,,,,,0,55,55,18,,,,,,,,,,,,,,None,0,,,,,,,PLC_L_D2S1,P10,60.0208910057,02,B,2015_Jan_29_1420,X,
stim/posf.jpg,stim/negf.jpg,stim/6.jpg,stim/3.jpg,stim/latef.jpg,AB,2,4,,,,,0,56,56,10,,,,,,,,,,,,,,4,1,0.783091468893,,,,,,PLC_L_D2S1,P10,60.0208910057,02,B,2015_Jan_29_1420,X,
stim/posf.jpg,stim/negf.jpg,stim/6.jpg,stim/3.jpg,stim/latef.jpg,AB,2,4,,,,,0,57,57,12,,,,,,,,,,,,,,4,1,0.716428049308,,,,,,PLC_L_D2S1,P10,60.0208910057,02,B,2015_Jan_29_1420,X,
stim/posf.jpg,stim/negf.jpg,stim/4.jpg,stim/1.jpg,stim/latef.jpg,EF,2,4,,,,,0,58,58,51,,,,,,,,,,,,,,4,1,0.783097089882,,,,,,PLC_L_D2S1,P10,60.0208910057,02,B,2015_Jan_29_1420,X,
stim/negf.jpg,stim/posf.jpg,stim/1.jpg,stim/4.jpg,stim/latef.jpg,EF,1,2,,,,,0,59,59,49,,,,,,,,,,,,,,2,1,0.549807720966,,,,,,PLC_L_D2S1,P10,60.0208910057,02,B,2015_Jan_29_1420,X,
,,,,,,,,,,,,,,,,,,,,,,,,,,,,,,,,0.9984375,0.771484375,1,0,0,PLC_L_D2S1,P10,60.0208910057,02,B,2015_Jan_29_1420,X,
stim/posf.jpg,stim/negf.jpg,stim/3.jpg,stim/6.jpg,stim/latef.jpg,AB,1,2,,,,,,,,,0,0,0,3,,,,,,,,,,2,1,0.833090017782,,,,,,PLC_L_D2S1,P10,60.0208910057,02,B,2015_Jan_29_1420,X,
stim/negf.jpg,stim/posf.jpg,stim/4.jpg,stim/1.jpg,stim/latef.jpg,EF,2,4,,,,,,,,,0,1,1,59,,,,,,,,,,4,1,0.666432724443,,,,,,PLC_L_D2S1,P10,60.0208910057,02,B,2015_Jan_29_1420,X,
stim/negf.jpg,stim/posf.jpg,stim/5.jpg,stim/2.jpg,stim/latef.jpg,CD,1,2,,,,,,,,,0,2,2,29,,,,,,,,,,2,1,0.949678218667,,,,,,PLC_L_D2S1,P10,60.0208910057,02,B,2015_Jan_29_1420,X,
stim/negf.jpg,stim/posf.jpg,stim/5.jpg,stim/2.jpg,stim/latef.jpg,CD,1,2,,,,,,,,,0,3,3,28,,,,,,,,,,2,1,0.933029086138,,,,,,PLC_L_D2S1,P10,60.0208910057,02,B,2015_Jan_29_1420,X,
stim/posf.jpg,stim/negf.jpg,stim/2.jpg,stim/5.jpg,stim/latef.jpg,CD,2,4,,,,,,,,,0,4,4,30,,,,,,,,,,4,1,0.566517809198,,,,,,PLC_L_D2S1,P10,60.0208910057,02,B,2015_Jan_29_1420,X,
stim/posf.jpg,stim/negf.jpg,stim/2.jpg,stim/5.jpg,stim/latef.jpg,CD,2,4,,,,,,,,,0,5,5,34,,,,,,,,,,4,1,0.433164311681,,,,,,PLC_L_D2S1,P10,60.0208910057,02,B,2015_Jan_29_1420,X,
stim/posf.jpg,stim/negf.jpg,stim/6.jpg,stim/3.jpg,stim/latef.jpg,AB,2,4,,,,,,,,,0,6,6,12,,,,,,,,,,4,1,0.916354705774,,,,,,PLC_L_D2S1,P10,60.0208910057,02,B,2015_Jan_29_1420,X,
stim/negf.jpg,stim/posf.jpg,stim/1.jpg,stim/4.jpg,stim/latef.jpg,EF,1,2,,,,,,,,,0,7,7,48,,,,,,,,,,2,1,0.683062440649,,,,,,PLC_L_D2S1,P10,60.0208910057,02,B,2015_Jan_29_1420,X,
stim/posf.jpg,stim/negf.jpg,stim/2.jpg,stim/5.jpg,stim/latef.jpg,CD,2,4,,,,,,,,,0,8,8,35,,,,,,,,,,4,1,0.616442674707,,,,,,PLC_L_D2S1,P10,60.0208910057,02,B,2015_Jan_29_1420,X,
stim/posf.jpg,stim/negf.jpg,stim/6.jpg,stim/3.jpg,stim/latef.jpg,AB,2,4,,,,,,,,,0,9,9,11,,,,,,,,,,4,1,0.766396246659,,,,,,PLC_L_D2S1,P10,60.0208910057,02,B,2015_Jan_29_1420,X,
stim/negf.jpg,stim/posf.jpg,stim/6.jpg,stim/3.jpg,stim/latef.jpg,AB,2,4,,,,,,,,,0,10,10,18,,,,,,,,,,4,1,0.616457594839,,,,,,PLC_L_D2S1,P10,60.0208910057,02,B,2015_Jan_29_1420,X,
stim/posf.jpg,stim/negf.jpg,stim/2.jpg,stim/5.jpg,stim/latef.jpg,CD,2,4,,,,,,,,,0,11,11,33,,,,,,,,,,2,0,0.683049120499,,,,,,PLC_L_D2S1,P10,60.0208910057,02,B,2015_Jan_29_1420,X,
stim/posf.jpg,stim/negf.jpg,stim/2.jpg,stim/5.jpg,stim/latef.jpg,CD,2,4,,,,,,,,,0,12,12,36,,,,,,,,,,4,1,0.54974222396,,,,,,PLC_L_D2S1,P10,60.0208910057,02,B,2015_Jan_29_1420,X,
stim/negf.jpg,stim/posf.jpg,stim/1.jpg,stim/4.jpg,stim/latef.jpg,EF,1,2,,,,,,,,,0,13,13,47,,,,,,,,,,2,1,0.76648841404,,,,,,PLC_L_D2S1,P10,60.0208910057,02,B,2015_Jan_29_1420,X,
stim/posf.jpg,stim/negf.jpg,stim/5.jpg,stim/2.jpg,stim/latef.jpg,CD,1,2,,,,,,,,,0,14,14,20,,,,,,,,,,2,1,1.31620677962,,,,,,PLC_L_D2S1,P10,60.0208910057,02,B,2015_Jan_29_1420,X,
stim/posf.jpg,stim/negf.jpg,stim/3.jpg,stim/6.jpg,stim/latef.jpg,AB,1,2,,,,,,,,,0,15,15,7,,,,,,,,,,2,1,0.766407284128,,,,,,PLC_L_D2S1,P10,60.0208910057,02,B,2015_Jan_29_1420,X,
stim/posf.jpg,stim/negf.jpg,stim/5.jpg,stim/2.jpg,stim/latef.jpg,CD,1,2,,,,,,,,,0,16,16,21,,,,,,,,,,2,1,0.849705863468,,,,,,PLC_L_D2S1,P10,60.0208910057,02,B,2015_Jan_29_1420,X,
stim/negf.jpg,stim/posf.jpg,stim/3.jpg,stim/6.jpg,stim/latef.jpg,AB,1,2,,,,,,,,,0,17,17,8,,,,,,,,,,2,1,0.716438536407,,,,,,PLC_L_D2S1,P10,60.0208910057,02,B,2015_Jan_29_1420,X,
stim/posf.jpg,stim/negf.jpg,stim/4.jpg,stim/1.jpg,stim/latef.jpg,EF,2,4,,,,,,,,,0,18,18,54,,,,,,,,,,4,1,1.08298215584,,,,,,PLC_L_D2S1,P10,60.0208910057,02,B,2015_Jan_29_1420,X,
stim/negf.jpg,stim/posf.jpg,stim/1.jpg,stim/4.jpg,stim/latef.jpg,EF,1,2,,,,,,,,,0,19,19,46,,,,,,,,,,2,1,0.866351377992,,,,,,PLC_L_D2S1,P10,60.0208910057,02,B,2015_Jan_29_1420,X,
stim/negf.jpg,stim/posf.jpg,stim/2.jpg,stim/5.jpg,stim/latef.jpg,CD,2,4,,,,,,,,,0,20,20,38,,,,,,,,,,4,1,0.63307701041,,,,,,PLC_L_D2S1,P10,60.0208910057,02,B,2015_Jan_29_1420,X,
stim/posf.jpg,stim/negf.jpg,stim/6.jpg,stim/3.jpg,stim/latef.jpg,AB,2,4,,,,,,,,,0,21,21,14,,,,,,,,,,4,1,0.849766921426,,,,,,PLC_L_D2S1,P10,60.0208910057,02,B,2015_Jan_29_1420,X,
stim/posf.jpg,stim/negf.jpg,stim/6.jpg,stim/3.jpg,stim/latef.jpg,AB,2,4,,,,,,,,,0,22,22,10,,,,,,,,,,4,1,0.799733711274,,,,,,PLC_L_D2S1,P10,60.0208910057,02,B,2015_Jan_29_1420,X,
stim/posf.jpg,stim/negf.jpg,stim/3.jpg,stim/6.jpg,stim/latef.jpg,AB,1,2,,,,,,,,,0,23,23,2,,,,,,,,,,2,1,0.616451775356,,,,,,PLC_L_D2S1,P10,60.0208910057,02,B,2015_Jan_29_1420,X,
stim/posf.jpg,stim/negf.jpg,stim/5.jpg,stim/2.jpg,stim/latef.jpg,CD,1,2,,,,,,,,,0,24,24,26,,,,,,,,,,2,1,0.983006170607,,,,,,PLC_L_D2S1,P10,60.0208910057,02,B,2015_Jan_29_1420,X,
stim/posf.jpg,stim/negf.jpg,stim/6.jpg,stim/3.jpg,stim/latef.jpg,AB,2,4,,,,,,,,,0,25,25,16,,,,,,,,,,4,1,0.849734813517,,,,,,PLC_L_D2S1,P10,60.0208910057,02,B,2015_Jan_29_1420,X,
stim/posf.jpg,stim/negf.jpg,stim/4.jpg,stim/1.jpg,stim/latef.jpg,EF,2,4,,,,,,,,,0,26,26,52,,,,,,,,,,4,1,0.699690322289,,,,,,PLC_L_D2S1,P10,60.0208910057,02,B,2015_Jan_29_1420,X,
stim/posf.jpg,stim/negf.jpg,stim/6.jpg,stim/3.jpg,stim/latef.jpg,AB,2,4,,,,,,,,,0,27,27,15,,,,,,,,,,4,1,0.833032788352,,,,,,PLC_L_D2S1,P10,60.0208910057,02,B,2015_Jan_29_1420,X,
stim/posf.jpg,stim/negf.jpg,stim/1.jpg,stim/4.jpg,stim/latef.jpg,EF,1,2,,,,,,,,,0,28,28,42,,,,,,,,,,2,1,0.916311503254,,,,,,PLC_L_D2S1,P10,60.0208910057,02,B,2015_Jan_29_1420,X,
stim/negf.jpg,stim/posf.jpg,stim/6.jpg,stim/3.jpg,stim/latef.jpg,AB,2,4,,,,,,,,,0,29,29,19,,,,,,,,,,4,1,0.833025774898,,,,,,PLC_L_D2S1,P10,60.0208910057,02,B,2015_Jan_29_1420,X,
stim/negf.jpg,stim/posf.jpg,stim/4.jpg,stim/1.jpg,stim/latef.jpg,EF,2,4,,,,,,,,,0,30,30,56,,,,,,,,,,4,1,0.599793698567,,,,,,PLC_L_D2S1,P10,60.0208910057,02,B,2015_Jan_29_1420,X,
stim/posf.jpg,stim/negf.jpg,stim/1.jpg,stim/4.jpg,stim/latef.jpg,EF,1,2,,,,,,,,,0,31,31,41,,,,,,,,,,2,1,0.566456546731,,,,,,PLC_L_D2S1,P10,60.0208910057,02,B,2015_Jan_29_1420,X,
stim/posf.jpg,stim/negf.jpg,stim/3.jpg,stim/6.jpg,stim/latef.jpg,AB,1,2,,,,,,,,,0,32,32,5,,,,,,,,,,2,1,0.766470832284,,,,,,PLC_L_D2S1,P10,60.0208910057,02,B,2015_Jan_29_1420,X,
stim/negf.jpg,stim/posf.jpg,stim/4.jpg,stim/1.jpg,stim/latef.jpg,EF,2,4,,,,,,,,,0,33,33,57,,,,,,,,,,4,1,0.516454133224,,,,,,PLC_L_D2S1,P10,60.0208910057,02,B,2015_Jan_29_1420,X,
stim/negf.jpg,stim/posf.jpg,stim/1.jpg,stim/4.jpg,stim/latef.jpg,EF,1,2,,,,,,,,,0,34,34,49,,,,,,,,,,2,1,0.666491719267,,,,,,PLC_L_D2S1,P10,60.0208910057,02,B,2015_Jan_29_1420,X,
stim/posf.jpg,stim/negf.jpg,stim/1.jpg,stim/4.jpg,stim/latef.jpg,EF,1,2,,,,,,,,,0,35,35,44,,,,,,,,,,2,1,0.533103644696,,,,,,PLC_L_D2S1,P10,60.0208910057,02,B,2015_Jan_29_1420,X,
stim/posf.jpg,stim/negf.jpg,stim/4.jpg,stim/1.jpg,stim/latef.jpg,EF,2,4,,,,,,,,,0,36,36,55,,,,,,,,,,4,1,0.549817191536,,,,,,PLC_L_D2S1,P10,60.0208910057,02,B,2015_Jan_29_1420,X,
stim/posf.jpg,stim/negf.jpg,stim/3.jpg,stim/6.jpg,stim/latef.jpg,AB,1,2,,,,,,,,,0,37,37,0,,,,,,,,,,2,1,0.71643461164,,,,,,PLC_L_D2S1,P10,60.0208910057,02,B,2015_Jan_29_1420,X,
stim/posf.jpg,stim/negf.jpg,stim/1.jpg,stim/4.jpg,stim/latef.jpg,EF,1,2,,,,,,,,,0,38,38,40,,,,,,,,,,2,1,0.70077216272,,,,,,PLC_L_D2S1,P10,60.0208910057,02,B,2015_Jan_29_1420,X,
stim/posf.jpg,stim/negf.jpg,stim/6.jpg,stim/3.jpg,stim/latef.jpg,AB,2,4,,,,,,,,,0,39,39,17,,,,,,,,,,4,1,0.733054108412,,,,,,PLC_L_D2S1,P10,60.0208910057,02,B,2015_Jan_29_1420,X,
stim/posf.jpg,stim/negf.jpg,stim/2.jpg,stim/5.jpg,stim/latef.jpg,CD,2,4,,,,,,,,,0,40,40,32,,,,,,,,,,4,1,0.716401577426,,,,,,PLC_L_D2S1,P10,60.0208910057,02,B,2015_Jan_29_1420,X,
stim/posf.jpg,stim/negf.jpg,stim/5.jpg,stim/2.jpg,stim/latef.jpg,CD,1,2,,,,,,,,,0,41,41,25,,,,,,,,,,2,1,0.933070511235,,,,,,PLC_L_D2S1,P10,60.0208910057,02,B,2015_Jan_29_1420,X,
stim/negf.jpg,stim/posf.jpg,stim/2.jpg,stim/5.jpg,stim/latef.jpg,CD,2,4,,,,,,,,,0,42,42,37,,,,,,,,,,2,0,0.899673642778,,,,,,PLC_L_D2S1,P10,60.0208910057,02,B,2015_Jan_29_1420,X,
stim/posf.jpg,stim/negf.jpg,stim/6.jpg,stim/3.jpg,stim/latef.jpg,AB,2,4,,,,,,,,,0,43,43,13,,,,,,,,,,4,1,0.716418118593,,,,,,PLC_L_D2S1,P10,60.0208910057,02,B,2015_Jan_29_1420,X,
stim/posf.jpg,stim/negf.jpg,stim/4.jpg,stim/1.jpg,stim/latef.jpg,EF,2,4,,,,,,,,,0,44,44,50,,,,,,,,,,4,1,0.616477871302,,,,,,PLC_L_D2S1,P10,60.0208910057,02,B,2015_Jan_29_1420,X,
stim/posf.jpg,stim/negf.jpg,stim/1.jpg,stim/4.jpg,stim/latef.jpg,EF,1,2,,,,,,,,,0,45,45,43,,,,,,,,,,2,1,0.64975810348,,,,,,PLC_L_D2S1,P10,60.0208910057,02,B,2015_Jan_29_1420,X,
stim/posf.jpg,stim/negf.jpg,stim/3.jpg,stim/6.jpg,stim/latef.jpg,AB,1,2,,,,,,,,,0,46,46,1,,,,,,,,,,2,1,0.966340770593,,,,,,PLC_L_D2S1,P10,60.0208910057,02,B,2015_Jan_29_1420,X,
stim/posf.jpg,stim/negf.jpg,stim/1.jpg,stim/4.jpg,stim/latef.jpg,EF,1,2,,,,,,,,,0,47,47,45,,,,,,,,,,2,1,0.783076897629,,,,,,PLC_L_D2S1,P10,60.0208910057,02,B,2015_Jan_29_1420,X,
stim/negf.jpg,stim/posf.jpg,stim/5.jpg,stim/2.jpg,stim/latef.jpg,CD,1,2,,,,,,,,,0,48,48,27,,,,,,,,,,2,1,0.999686370455,,,,,,PLC_L_D2S1,P10,60.0208910057,02,B,2015_Jan_29_1420,X,
stim/posf.jpg,stim/negf.jpg,stim/2.jpg,stim/5.jpg,stim/latef.jpg,CD,2,4,,,,,,,,,0,49,49,31,,,,,,,,,,4,1,0.816403466126,,,,,,PLC_L_D2S1,P10,60.0208910057,02,B,2015_Jan_29_1420,X,
stim/negf.jpg,stim/posf.jpg,stim/3.jpg,stim/6.jpg,stim/latef.jpg,AB,1,2,,,,,,,,,0,50,50,9,,,,,,,,,,2,1,0.982992495573,,,,,,PLC_L_D2S1,P10,60.0208910057,02,B,2015_Jan_29_1420,X,
stim/posf.jpg,stim/negf.jpg,stim/5.jpg,stim/2.jpg,stim/latef.jpg,CD,1,2,,,,,,,,,0,51,51,24,,,,,,,,,,2,1,1.04965270317,,,,,,PLC_L_D2S1,P10,60.0208910057,02,B,2015_Jan_29_1420,X,
stim/posf.jpg,stim/negf.jpg,stim/4.jpg,stim/1.jpg,stim/latef.jpg,EF,2,4,,,,,,,,,0,52,52,53,,,,,,,,,,4,1,0.783039794288,,,,,,PLC_L_D2S1,P10,60.0208910057,02,B,2015_Jan_29_1420,X,
stim/posf.jpg,stim/negf.jpg,stim/5.jpg,stim/2.jpg,stim/latef.jpg,CD,1,2,,,,,,,,,0,53,53,23,,,,,,,,,,2,1,0.699756168164,,,,,,PLC_L_D2S1,P10,60.0208910057,02,B,2015_Jan_29_1420,X,
stim/negf.jpg,stim/posf.jpg,stim/4.jpg,stim/1.jpg,stim/latef.jpg,EF,2,4,,,,,,,,,0,54,54,58,,,,,,,,,,4,1,0.649768007127,,,,,,PLC_L_D2S1,P10,60.0208910057,02,B,2015_Jan_29_1420,X,
stim/posf.jpg,stim/negf.jpg,stim/5.jpg,stim/2.jpg,stim/latef.jpg,CD,1,2,,,,,,,,,0,55,55,22,,,,,,,,,,2,1,0.716416338162,,,,,,PLC_L_D2S1,P10,60.0208910057,02,B,2015_Jan_29_1420,X,
stim/posf.jpg,stim/negf.jpg,stim/4.jpg,stim/1.jpg,stim/latef.jpg,EF,2,4,,,,,,,,,0,56,56,51,,,,,,,,,,4,1,0.633091632801,,,,,,PLC_L_D2S1,P10,60.0208910057,02,B,2015_Jan_29_1420,X,
stim/negf.jpg,stim/posf.jpg,stim/2.jpg,stim/5.jpg,stim/latef.jpg,CD,2,4,,,,,,,,,0,57,57,39,,,,,,,,,,2,0,0.583114364876,,,,,,PLC_L_D2S1,P10,60.0208910057,02,B,2015_Jan_29_1420,X,
stim/posf.jpg,stim/negf.jpg,stim/3.jpg,stim/6.jpg,stim/latef.jpg,AB,1,2,,,,,,,,,0,58,58,6,,,,,,,,,,2,1,0.849712164149,,,,,,PLC_L_D2S1,P10,60.0208910057,02,B,2015_Jan_29_1420,X,
stim/posf.jpg,stim/negf.jpg,stim/3.jpg,stim/6.jpg,stim/latef.jpg,AB,1,2,,,,,,,,,0,59,59,4,,,,,,,,,,2,1,0.849744175818,,,,,,PLC_L_D2S1,P10,60.0208910057,02,B,2015_Jan_29_1420,X,
,,,,,,,,,,,,,,,,,,,,,,,,,,,,,,,,0.9984375,0.771484375,1,0,0,PLC_L_D2S1,P10,60.0208910057,02,B,2015_Jan_29_1420,X,
stim/posf.jpg,stim/negf.jpg,stim/3.jpg,stim/6.jpg,stim/latef.jpg,AB,1,2,,,,,,,,,,,,,0,0,0,6,,,,,,2,1,1.08295671252,,,,,,PLC_L_D2S1,P10,60.0208910057,02,B,2015_Jan_29_1420,X,
stim/posf.jpg,stim/negf.jpg,stim/4.jpg,stim/1.jpg,stim/latef.jpg,EF,2,4,,,,,,,,,,,,,0,1,1,54,,,,,,4,1,1.01632177081,,,,,,PLC_L_D2S1,P10,60.0208910057,02,B,2015_Jan_29_1420,X,
stim/posf.jpg,stim/negf.jpg,stim/6.jpg,stim/3.jpg,stim/latef.jpg,AB,2,4,,,,,,,,,,,,,0,2,2,11,,,,,,4,1,0.899694604948,,,,,,PLC_L_D2S1,P10,60.0208910057,02,B,2015_Jan_29_1420,X,
stim/posf.jpg,stim/negf.jpg,stim/5.jpg,stim/2.jpg,stim/latef.jpg,CD,1,2,,,,,,,,,,,,,0,3,3,24,,,,,,2,1,1.08298338289,,,,,,PLC_L_D2S1,P10,60.0208910057,02,B,2015_Jan_29_1420,X,
stim/negf.jpg,stim/posf.jpg,stim/4.jpg,stim/1.jpg,stim/latef.jpg,EF,2,4,,,,,,,,,,,,,0,4,4,56,,,,,,2,0,0.949685698281,,,,,,PLC_L_D2S1,P10,60.0208910057,02,B,2015_Jan_29_1420,X,
stim/posf.jpg,stim/negf.jpg,stim/6.jpg,stim/3.jpg,stim/latef.jpg,AB,2,4,,,,,,,,,,,,,0,5,5,16,,,,,,4,1,0.799739121739,,,,,,PLC_L_D2S1,P10,60.0208910057,02,B,2015_Jan_29_1420,X,
stim/posf.jpg,stim/negf.jpg,stim/1.jpg,stim/4.jpg,stim/latef.jpg,EF,1,2,,,,,,,,,,,,,0,6,6,42,,,,,,2,1,0.683124103112,,,,,,PLC_L_D2S1,P10,60.0208910057,02,B,2015_Jan_29_1420,X,
stim/negf.jpg,stim/posf.jpg,stim/5.jpg,stim/2.jpg,stim/latef.jpg,CD,1,2,,,,,,,,,,,,,0,7,7,29,,,,,,2,1,0.933016045684,,,,,,PLC_L_D2S1,P10,60.0208910057,02,B,2015_Jan_29_1420,X,
stim/negf.jpg,stim/posf.jpg,stim/1.jpg,stim/4.jpg,stim/latef.jpg,EF,1,2,,,,,,,,,,,,,0,8,8,47,,,,,,2,1,0.683061033146,,,,,,PLC_L_D2S1,P10,60.0208910057,02,B,2015_Jan_29_1420,X,
stim/posf.jpg,stim/negf.jpg,stim/1.jpg,stim/4.jpg,stim/latef.jpg,EF,1,2,,,,,,,,,,,,,0,9,9,45,,,,,,2,1,0.649779760379,,,,,,PLC_L_D2S1,P10,60.0208910057,02,B,2015_Jan_29_1420,X,
stim/negf.jpg,stim/posf.jpg,stim/2.jpg,stim/5.jpg,stim/latef.jpg,CD,2,4,,,,,,,,,,,,,0,10,10,38,,,,,,4,1,0.966403497705,,,,,,PLC_L_D2S1,P10,60.0208910057,02,B,2015_Jan_29_1420,X,
stim/negf.jpg,stim/posf.jpg,stim/1.jpg,stim/4.jpg,stim/latef.jpg,EF,1,2,,,,,,,,,,,,,0,11,11,48,,,,,,2,1,0.499812925418,,,,,,PLC_L_D2S1,P10,60.0208910057,02,B,2015_Jan_29_1420,X,
stim/posf.jpg,stim/negf.jpg,stim/6.jpg,stim/3.jpg,stim/latef.jpg,AB,2,4,,,,,,,,,,,,,0,12,12,12,,,,,,4,1,0.816413598343,,,,,,PLC_L_D2S1,P10,60.0208910057,02,B,2015_Jan_29_1420,X,
stim/posf.jpg,stim/negf.jpg,stim/2.jpg,stim/5.jpg,stim/latef.jpg,CD,2,4,,,,,,,,,,,,,0,13,13,36,,,,,,4,1,1.36622402605,,,,,,PLC_L_D2S1,P10,60.0208910057,02,B,2015_Jan_29_1420,X,
stim/posf.jpg,stim/negf.jpg,stim/5.jpg,stim/2.jpg,stim/latef.jpg,CD,1,2,,,,,,,,,,,,,0,14,14,21,,,,,,2,1,1.03301960354,,,,,,PLC_L_D2S1,P10,60.0208910057,02,B,2015_Jan_29_1420,X,
stim/posf.jpg,stim/negf.jpg,stim/3.jpg,stim/6.jpg,stim/latef.jpg,AB,1,2,,,,,,,,,,,,,0,15,15,7,,,,,,2,1,1.11631707312,,,,,,PLC_L_D2S1,P10,60.0208910057,02,B,2015_Jan_29_1420,X,
stim/posf.jpg,stim/negf.jpg,stim/6.jpg,stim/3.jpg,stim/latef.jpg,AB,2,4,,,,,,,,,,,,,0,16,16,13,,,,,,4,1,0.982952697526,,,,,,PLC_L_D2S1,P10,60.0208910057,02,B,2015_Jan_29_1420,X,
stim/posf.jpg,stim/negf.jpg,stim/3.jpg,stim/6.jpg,stim/latef.jpg,AB,1,2,,,,,,,,,,,,,0,17,17,1,,,,,,2,1,0.683155143363,,,,,,PLC_L_D2S1,P10,60.0208910057,02,B,2015_Jan_29_1420,X,
stim/posf.jpg,stim/negf.jpg,stim/4.jpg,stim/1.jpg,stim/latef.jpg,EF,2,4,,,,,,,,,,,,,0,18,18,53,,,,,,4,1,0.749743508156,,,,,,PLC_L_D2S1,P10,60.0208910057,02,B,2015_Jan_29_1420,X,
stim/negf.jpg,stim/posf.jpg,stim/5.jpg,stim/2.jpg,stim/latef.jpg,CD,1,2,,,,,,,,,,,,,0,19,19,28,,,,,,2,1,0.733090129059,,,,,,PLC_L_D2S1,P10,60.0208910057,02,B,2015_Jan_29_1420,X,
stim/negf.jpg,stim/posf.jpg,stim/1.jpg,stim/4.jpg,stim/latef.jpg,EF,1,2,,,,,,,,,,,,,0,20,20,46,,,,,,2,1,0.799677369052,,,,,,PLC_L_D2S1,P10,60.0208910057,02,B,2015_Jan_29_1420,X,
stim/posf.jpg,stim/negf.jpg,stim/2.jpg,stim/5.jpg,stim/latef.jpg,CD,2,4,,,,,,,,,,,,,0,21,21,35,,,,,,4,1,0.899707759687,,,,,,PLC_L_D2S1,P10,60.0208910057,02,B,2015_Jan_29_1420,X,
stim/posf.jpg,stim/negf.jpg,stim/5.jpg,stim/2.jpg,stim/latef.jpg,CD,1,2,,,,,,,,,,,,,0,22,22,20,,,,,,2,1,0.566470212742,,,,,,PLC_L_D2S1,P10,60.0208910057,02,B,2015_Jan_29_1420,X,
stim/posf.jpg,stim/negf.jpg,stim/2.jpg,stim/5.jpg,stim/latef.jpg,CD,2,4,,,,,,,,,,,,,0,23,23,31,,,,,,4,1,0.849769204106,,,,,,PLC_L_D2S1,P10,60.0208910057,02,B,2015_Jan_29_1420,X,
stim/posf.jpg,stim/negf.jpg,stim/3.jpg,stim/6.jpg,stim/latef.jpg,AB,1,2,,,,,,,,,,,,,0,24,24,2,,,,,,2,1,0.916339987143,,,,,,PLC_L_D2S1,P10,60.0208910057,02,B,2015_Jan_29_1420,X,
stim/posf.jpg,stim/negf.jpg,stim/4.jpg,stim/1.jpg,stim/latef.jpg,EF,2,4,,,,,,,,,,,,,0,25,25,50,,,,,,4,1,0.84973219099,,,,,,PLC_L_D2S1,P10,60.0208910057,02,B,2015_Jan_29_1420,X,
stim/posf.jpg,stim/negf.jpg,stim/2.jpg,stim/5.jpg,stim/latef.jpg,CD,2,4,,,,,,,,,,,,,0,26,26,32,,,,,,4,1,0.683076831464,,,,,,PLC_L_D2S1,P10,60.0208910057,02,B,2015_Jan_29_1420,X,
stim/negf.jpg,stim/posf.jpg,stim/2.jpg,stim/5.jpg,stim/latef.jpg,CD,2,4,,,,,,,,,,,,,0,27,27,37,,,,,,4,1,0.88304581828,,,,,,PLC_L_D2S1,P10,60.0208910057,02,B,2015_Jan_29_1420,X,
stim/posf.jpg,stim/negf.jpg,stim/4.jpg,stim/1.jpg,stim/latef.jpg,EF,2,4,,,,,,,,,,,,,0,28,28,51,,,,,,4,1,0.616409327714,,,,,,PLC_L_D2S1,P10,60.0208910057,02,B,2015_Jan_29_1420,X,
stim/posf.jpg,stim/negf.jpg,stim/6.jpg,stim/3.jpg,stim/latef.jpg,AB,2,4,,,,,,,,,,,,,0,29,29,14,,,,,,4,1,0.783094918479,,,,,,PLC_L_D2S1,P10,60.0208910057,02,B,2015_Jan_29_1420,X,
stim/posf.jpg,stim/negf.jpg,stim/3.jpg,stim/6.jpg,stim/latef.jpg,AB,1,2,,,,,,,,,,,,,0,30,30,3,,,,,,2,1,0.833053140002,,,,,,PLC_L_D2S1,P10,60.0208910057,02,B,2015_Jan_29_1420,X,
stim/negf.jpg,stim/posf.jpg,stim/4.jpg,stim/1.jpg,stim/latef.jpg,EF,2,4,,,,,,,,,,,,,0,31,31,59,,,,,,4,1,0.683095631252,,,,,,PLC_L_D2S1,P10,60.0208910057,02,B,2015_Jan_29_1420,X,
stim/negf.jpg,stim/posf.jpg,stim/2.jpg,stim/5.jpg,stim/latef.jpg,CD,2,4,,,,,,,,,,,,,0,32,32,39,,,,,,4,1,1.16630726721,,,,,,PLC_L_D2S1,P10,60.0208910057,02,B,2015_Jan_29_1420,X,
stim/posf.jpg,stim/negf.jpg,stim/6.jpg,stim/3.jpg,stim/latef.jpg,AB,2,4,,,,,,,,,,,,,0,33,33,10,,,,,,2,0,0.849725529411,,,,,,PLC_L_D2S1,P10,60.0208910057,02,B,2015_Jan_29_1420,X,
stim/posf.jpg,stim/negf.jpg,stim/5.jpg,stim/2.jpg,stim/latef.jpg,CD,1,2,,,,,,,,,,,,,0,34,34,26,,,,,,2,1,0.79971658064,,,,,,PLC_L_D2S1,P10,60.0208910057,02,B,2015_Jan_29_1420,X,
stim/negf.jpg,stim/posf.jpg,stim/3.jpg,stim/6.jpg,stim/latef.jpg,AB,1,2,,,,,,,,,,,,,0,35,35,8,,,,,,2,1,0.932983519735,,,,,,PLC_L_D2S1,P10,60.0208910057,02,B,2015_Jan_29_1420,X,
stim/negf.jpg,stim/posf.jpg,stim/3.jpg,stim/6.jpg,stim/latef.jpg,AB,1,2,,,,,,,,,,,,,0,36,36,9,,,,,,2,1,0.749793594809,,,,,,PLC_L_D2S1,P10,60.0208910057,02,B,2015_Jan_29_1420,X,
stim/posf.jpg,stim/negf.jpg,stim/6.jpg,stim/3.jpg,stim/latef.jpg,AB,2,4,,,,,,,,,,,,,0,37,37,17,,,,,,4,1,0.466517767093,,,,,,PLC_L_D2S1,P10,60.0208910057,02,B,2015_Jan_29_1420,X,
stim/posf.jpg,stim/negf.jpg,stim/1.jpg,stim/4.jpg,stim/latef.jpg,EF,1,2,,,,,,,,,,,,,0,38,38,44,,,,,,2,1,0.64977857543,,,,,,PLC_L_D2S1,P10,60.0208910057,02,B,2015_Jan_29_1420,X,
stim/posf.jpg,stim/negf.jpg,stim/1.jpg,stim/4.jpg,stim/latef.jpg,EF,1,2,,,,,,,,,,,,,0,39,39,43,,,,,,2,1,0.733077055522,,,,,,PLC_L_D2S1,P10,60.0208910057,02,B,2015_Jan_29_1420,X,
stim/negf.jpg,stim/posf.jpg,stim/6.jpg,stim/3.jpg,stim/latef.jpg,AB,2,4,,,,,,,,,,,,,0,40,40,18,,,,,,4,1,0.8663870618,,,,,,PLC_L_D2S1,P10,60.0208910057,02,B,2015_Jan_29_1420,X,
stim/negf.jpg,stim/posf.jpg,stim/5.jpg,stim/2.jpg,stim/latef.jpg,CD,1,2,,,,,,,,,,,,,0,41,41,27,,,,,,2,1,0.866327257963,,,,,,PLC_L_D2S1,P10,60.0208910057,02,B,2015_Jan_29_1420,X,
stim/posf.jpg,stim/negf.jpg,stim/4.jpg,stim/1.jpg,stim/latef.jpg,EF,2,4,,,,,,,,,,,,,0,42,42,52,,,,,,4,1,0.832985640011,,,,,,PLC_L_D2S1,P10,60.0208910057,02,B,2015_Jan_29_1420,X,
stim/posf.jpg,stim/negf.jpg,stim/6.jpg,stim/3.jpg,stim/latef.jpg,AB,2,4,,,,,,,,,,,,,0,43,43,15,,,,,,4,1,0.766415864483,,,,,,PLC_L_D2S1,P10,60.0208910057,02,B,2015_Jan_29_1420,X,
stim/posf.jpg,stim/negf.jpg,stim/3.jpg,stim/6.jpg,stim/latef.jpg,AB,1,2,,,,,,,,,,,,,0,44,44,0,,,,,,2,1,0.599804381153,,,,,,PLC_L_D2S1,P10,60.0208910057,02,B,2015_Jan_29_1420,X,
stim/posf.jpg,stim/negf.jpg,stim/1.jpg,stim/4.jpg,stim/latef.jpg,EF,1,2,,,,,,,,,,,,,0,45,45,40,,,,,,2,1,0.716418608813,,,,,,PLC_L_D2S1,P10,60.0208910057,02,B,2015_Jan_29_1420,X,
stim/posf.jpg,stim/negf.jpg,stim/5.jpg,stim/2.jpg,stim/latef.jpg,CD,1,2,,,,,,,,,,,,,0,46,46,23,,,,,,2,1,0.799743275076,,,,,,PLC_L_D2S1,P10,60.0208910057,02,B,2015_Jan_29_1420,X,
stim/posf.jpg,stim/negf.jpg,stim/2.jpg,stim/5.jpg,stim/latef.jpg,CD,2,4,,,,,,,,,,,,,0,47,47,33,,,,,,4,1,0.766446859622,,,,,,PLC_L_D2S1,P10,60.0208910057,02,B,2015_Jan_29_1420,X,
stim/negf.jpg,stim/posf.jpg,stim/4.jpg,stim/1.jpg,stim/latef.jpg,EF,2,4,,,,,,,,,,,,,0,48,48,58,,,,,,4,1,0.699725708357,,,,,,PLC_L_D2S1,P10,60.0208910057,02,B,2015_Jan_29_1420,X,
stim/posf.jpg,stim/negf.jpg,stim/3.jpg,stim/6.jpg,stim/latef.jpg,AB,1,2,,,,,,,,,,,,,0,49,49,4,,,,,,2,1,0.816373731123,,,,,,PLC_L_D2S1,P10,60.0208910057,02,B,2015_Jan_29_1420,X,
stim/posf.jpg,stim/negf.jpg,stim/1.jpg,stim/4.jpg,stim/latef.jpg,EF,1,2,,,,,,,,,,,,,0,50,50,41,,,,,,2,1,1.19953943978,,,,,,PLC_L_D2S1,P10,60.0208910057,02,B,2015_Jan_29_1420,X,
stim/posf.jpg,stim/negf.jpg,stim/2.jpg,stim/5.jpg,stim/latef.jpg,CD,2,4,,,,,,,,,,,,,0,51,51,34,,,,,,4,1,0.932964145517,,,,,,PLC_L_D2S1,P10,60.0208910057,02,B,2015_Jan_29_1420,X,
stim/negf.jpg,stim/posf.jpg,stim/4.jpg,stim/1.jpg,stim/latef.jpg,EF,2,4,,,,,,,,,,,,,0,52,52,57,,,,,,4,1,0.649777655139,,,,,,PLC_L_D2S1,P10,60.0208910057,02,B,2015_Jan_29_1420,X,
stim/posf.jpg,stim/negf.jpg,stim/2.jpg,stim/5.jpg,stim/latef.jpg,CD,2,4,,,,,,,,,,,,,0,53,53,30,,,,,,4,1,0.64977291835,,,,,,PLC_L_D2S1,P10,60.0208910057,02,B,2015_Jan_29_1420,X,
stim/posf.jpg,stim/negf.jpg,stim/3.jpg,stim/6.jpg,stim/latef.jpg,AB,1,2,,,,,,,,,,,,,0,54,54,5,,,,,,2,1,0.849723090341,,,,,,PLC_L_D2S1,P10,60.0208910057,02,B,2015_Jan_29_1420,X,
stim/negf.jpg,stim/posf.jpg,stim/6.jpg,stim/3.jpg,stim/latef.jpg,AB,2,4,,,,,,,,,,,,,0,55,55,19,,,,,,4,1,0.816390350485,,,,,,PLC_L_D2S1,P10,60.0208910057,02,B,2015_Jan_29_1420,X,
stim/posf.jpg,stim/negf.jpg,stim/5.jpg,stim/2.jpg,stim/latef.jpg,CD,1,2,,,,,,,,,,,,,0,56,56,22,,,,,,2,1,0.599817767469,,,,,,PLC_L_D2S1,P10,60.0208910057,02,B,2015_Jan_29_1420,X,
stim/posf.jpg,stim/negf.jpg,stim/4.jpg,stim/1.jpg,stim/latef.jpg,EF,2,4,,,,,,,,,,,,,0,57,57,55,,,,,,4,1,0.716444286718,,,,,,PLC_L_D2S1,P10,60.0208910057,02,B,2015_Jan_29_1420,X,
stim/posf.jpg,stim/negf.jpg,stim/5.jpg,stim/2.jpg,stim/latef.jpg,CD,1,2,,,,,,,,,,,,,0,58,58,25,,,,,,2,1,0.799722273809,,,,,,PLC_L_D2S1,P10,60.0208910057,02,B,2015_Jan_29_1420,X,
stim/negf.jpg,stim/posf.jpg,stim/1.jpg,stim/4.jpg,stim/latef.jpg,EF,1,2,,,,,,,,,,,,,0,59,59,49,,,,,,2,1,0.749763703417,,,,,,PLC_L_D2S1,P10,60.0208910057,02,B,2015_Jan_29_1420,X,
