fb_corr,fb_incorr,symbol2,symbol1,fb_late,pair,position,correct,block_01.thisRepN,block_01.thisTrialN,block_01.thisN,block_01.thisIndex,block_02.thisRepN,block_02.thisTrialN,block_02.thisN,block_02.thisIndex,block_03.thisRepN,block_03.thisTrialN,block_03.thisN,block_03.thisIndex,block_04.thisRepN,block_04.thisTrialN,block_04.thisN,block_04.thisIndex,mouse.x,mouse.y,mouse.leftButton,mouse.midButton,mouse.rightButton,buttonBox_2.keys,buttonBox_2.corr,buttonBox_2.rt,mouse_2.x,mouse_2.y,mouse_2.leftButton,mouse_2.midButton,mouse_2.rightButton,expName,Participant,frameRate,SessionNumber,Version,date,Group,
,,,,,,,,,,,,,,,,,,,,,,,,0.984375,0.916015625,1,0,0,,,,,,,,,PLC_L_D2S1,P12,60.0172822553,02,A,2015_Jan_31_1553,X,
stim/posf.jpg,stim/negf.jpg,stim/2.jpg,stim/6.jpg,stim/latef.jpg,CD,2,4,0,0,0,32,,,,,,,,,,,,,,,,,,4,1,1.19964862953,,,,,,PLC_L_D2S1,P12,60.0172822553,02,A,2015_Jan_31_1553,X,
stim/negf.jpg,stim/posf.jpg,stim/2.jpg,stim/6.jpg,stim/latef.jpg,CD,2,4,0,1,1,38,,,,,,,,,,,,,,,,,,4,1,0.816451438518,,,,,,PLC_L_D2S1,P12,60.0172822553,02,A,2015_Jan_31_1553,X,
stim/posf.jpg,stim/negf.jpg,stim/2.jpg,stim/6.jpg,stim/latef.jpg,CD,2,4,0,2,2,31,,,,,,,,,,,,,,,,,,4,1,0.61645438886,,,,,,PLC_L_D2S1,P12,60.0172822553,02,A,2015_Jan_31_1553,X,
stim/posf.jpg,stim/negf.jpg,stim/6.jpg,stim/2.jpg,stim/latef.jpg,CD,1,2,0,3,3,21,,,,,,,,,,,,,,,,,,2,1,0.633106913832,,,,,,PLC_L_D2S1,P12,60.0172822553,02,A,2015_Jan_31_1553,X,
stim/posf.jpg,stim/negf.jpg,stim/2.jpg,stim/6.jpg,stim/latef.jpg,CD,2,4,0,4,4,36,,,,,,,,,,,,,,,,,,4,1,0.549866896238,,,,,,PLC_L_D2S1,P12,60.0172822553,02,A,2015_Jan_31_1553,X,
stim/posf.jpg,stim/negf.jpg,stim/3.jpg,stim/5.jpg,stim/latef.jpg,EF,1,2,0,5,5,44,,,,,,,,,,,,,,,,,,2,1,0.949669602222,,,,,,PLC_L_D2S1,P12,60.0172822553,02,A,2015_Jan_31_1553,X,
stim/posf.jpg,stim/negf.jpg,stim/3.jpg,stim/5.jpg,stim/latef.jpg,EF,1,2,0,6,6,42,,,,,,,,,,,,,,,,,,2,1,0.533120300147,,,,,,PLC_L_D2S1,P12,60.0172822553,02,A,2015_Jan_31_1553,X,
stim/negf.jpg,stim/posf.jpg,stim/6.jpg,stim/2.jpg,stim/latef.jpg,CD,1,2,0,7,7,29,,,,,,,,,,,,,,,,,,2,1,0.849717090409,,,,,,PLC_L_D2S1,P12,60.0172822553,02,A,2015_Jan_31_1553,X,
stim/posf.jpg,stim/negf.jpg,stim/1.jpg,stim/4.jpg,stim/latef.jpg,AB,1,2,0,8,8,6,,,,,,,,,,,,,,,,,,4,0,0.899696734248,,,,,,PLC_L_D2S1,P12,60.0172822553,02,A,2015_Jan_31_1553,X,
stim/posf.jpg,stim/negf.jpg,stim/1.jpg,stim/4.jpg,stim/latef.jpg,AB,1,2,0,9,9,5,,,,,,,,,,,,,,,,,,4,0,0.79974640286,,,,,,PLC_L_D2S1,P12,60.0172822553,02,A,2015_Jan_31_1553,X,
stim/posf.jpg,stim/negf.jpg,stim/1.jpg,stim/4.jpg,stim/latef.jpg,AB,1,2,0,10,10,3,,,,,,,,,,,,,,,,,,2,1,0.79970425296,,,,,,PLC_L_D2S1,P12,60.0172822553,02,A,2015_Jan_31_1553,X,
stim/posf.jpg,stim/negf.jpg,stim/6.jpg,stim/2.jpg,stim/latef.jpg,CD,1,2,0,11,11,22,,,,,,,,,,,,,,,,,,2,1,0.68310008233,,,,,,PLC_L_D2S1,P12,60.0172822553,02,A,2015_Jan_31_1553,X,
stim/negf.jpg,stim/posf.jpg,stim/4.jpg,stim/1.jpg,stim/latef.jpg,AB,2,4,0,12,12,18,,,,,,,,,,,,,,,,,,4,1,1.2162363432,,,,,,PLC_L_D2S1,P12,60.0172822553,02,A,2015_Jan_31_1553,X,
stim/posf.jpg,stim/negf.jpg,stim/1.jpg,stim/4.jpg,stim/latef.jpg,AB,1,2,0,13,13,2,,,,,,,,,,,,,,,,,,4,0,0.766398595505,,,,,,PLC_L_D2S1,P12,60.0172822553,02,A,2015_Jan_31_1553,X,
stim/negf.jpg,stim/posf.jpg,stim/6.jpg,stim/2.jpg,stim/latef.jpg,CD,1,2,0,14,14,27,,,,,,,,,,,,,,,,,,2,1,0.633152612564,,,,,,PLC_L_D2S1,P12,60.0172822553,02,A,2015_Jan_31_1553,X,
stim/posf.jpg,stim/negf.jpg,stim/6.jpg,stim/2.jpg,stim/latef.jpg,CD,1,2,0,15,15,25,,,,,,,,,,,,,,,,,,2,1,0.5664651331,,,,,,PLC_L_D2S1,P12,60.0172822553,02,A,2015_Jan_31_1553,X,
stim/posf.jpg,stim/negf.jpg,stim/4.jpg,stim/1.jpg,stim/latef.jpg,AB,2,4,0,16,16,12,,,,,,,,,,,,,,,,,,4,1,0.933022226065,,,,,,PLC_L_D2S1,P12,60.0172822553,02,A,2015_Jan_31_1553,X,
stim/posf.jpg,stim/negf.jpg,stim/5.jpg,stim/3.jpg,stim/latef.jpg,EF,2,4,0,17,17,54,,,,,,,,,,,,,,,,,,4,1,0.633123388834,,,,,,PLC_L_D2S1,P12,60.0172822553,02,A,2015_Jan_31_1553,X,
stim/posf.jpg,stim/negf.jpg,stim/6.jpg,stim/2.jpg,stim/latef.jpg,CD,1,2,0,18,18,23,,,,,,,,,,,,,,,,,,2,1,0.733089689966,,,,,,PLC_L_D2S1,P12,60.0172822553,02,A,2015_Jan_31_1553,X,
stim/posf.jpg,stim/negf.jpg,stim/5.jpg,stim/3.jpg,stim/latef.jpg,EF,2,4,0,19,19,52,,,,,,,,,,,,,,,,,,4,1,0.633056237712,,,,,,PLC_L_D2S1,P12,60.0172822553,02,A,2015_Jan_31_1553,X,
stim/posf.jpg,stim/negf.jpg,stim/5.jpg,stim/3.jpg,stim/latef.jpg,EF,2,4,0,20,20,55,,,,,,,,,,,,,,,,,,4,1,0.566472471363,,,,,,PLC_L_D2S1,P12,60.0172822553,02,A,2015_Jan_31_1553,X,
stim/posf.jpg,stim/negf.jpg,stim/4.jpg,stim/1.jpg,stim/latef.jpg,AB,2,4,0,21,21,10,,,,,,,,,,,,,,,,,,4,1,0.933006382635,,,,,,PLC_L_D2S1,P12,60.0172822553,02,A,2015_Jan_31_1553,X,
stim/posf.jpg,stim/negf.jpg,stim/5.jpg,stim/3.jpg,stim/latef.jpg,EF,2,4,0,22,22,53,,,,,,,,,,,,,,,,,,4,1,0.433192792563,,,,,,PLC_L_D2S1,P12,60.0172822553,02,A,2015_Jan_31_1553,X,
stim/negf.jpg,stim/posf.jpg,stim/6.jpg,stim/2.jpg,stim/latef.jpg,CD,1,2,0,23,23,28,,,,,,,,,,,,,,,,,,2,1,0.566430165073,,,,,,PLC_L_D2S1,P12,60.0172822553,02,A,2015_Jan_31_1553,X,
stim/negf.jpg,stim/posf.jpg,stim/3.jpg,stim/5.jpg,stim/latef.jpg,EF,1,2,0,24,24,46,,,,,,,,,,,,,,,,,,2,1,0.549839711582,,,,,,PLC_L_D2S1,P12,60.0172822553,02,A,2015_Jan_31_1553,X,
stim/posf.jpg,stim/negf.jpg,stim/1.jpg,stim/4.jpg,stim/latef.jpg,AB,1,2,0,25,25,0,,,,,,,,,,,,,,,,,,2,1,0.833022944854,,,,,,PLC_L_D2S1,P12,60.0172822553,02,A,2015_Jan_31_1553,X,
stim/posf.jpg,stim/negf.jpg,stim/6.jpg,stim/2.jpg,stim/latef.jpg,CD,1,2,0,26,26,24,,,,,,,,,,,,,,,,,,2,1,0.633036671015,,,,,,PLC_L_D2S1,P12,60.0172822553,02,A,2015_Jan_31_1553,X,
stim/posf.jpg,stim/negf.jpg,stim/4.jpg,stim/1.jpg,stim/latef.jpg,AB,2,4,0,27,27,15,,,,,,,,,,,,,,,,,,4,1,0.949667951113,,,,,,PLC_L_D2S1,P12,60.0172822553,02,A,2015_Jan_31_1553,X,
stim/negf.jpg,stim/posf.jpg,stim/1.jpg,stim/4.jpg,stim/latef.jpg,AB,1,2,0,28,28,8,,,,,,,,,,,,,,,,,,2,1,0.899677501382,,,,,,PLC_L_D2S1,P12,60.0172822553,02,A,2015_Jan_31_1553,X,
stim/negf.jpg,stim/posf.jpg,stim/5.jpg,stim/3.jpg,stim/latef.jpg,EF,2,4,0,29,29,59,,,,,,,,,,,,,,,,,,4,1,0.616467964647,,,,,,PLC_L_D2S1,P12,60.0172822553,02,A,2015_Jan_31_1553,X,
stim/negf.jpg,stim/posf.jpg,stim/5.jpg,stim/3.jpg,stim/latef.jpg,EF,2,4,0,30,30,57,,,,,,,,,,,,,,,,,,4,1,0.633117055071,,,,,,PLC_L_D2S1,P12,60.0172822553,02,A,2015_Jan_31_1553,X,
stim/posf.jpg,stim/negf.jpg,stim/1.jpg,stim/4.jpg,stim/latef.jpg,AB,1,2,0,31,31,7,,,,,,,,,,,,,,,,,,2,1,0.949645996474,,,,,,PLC_L_D2S1,P12,60.0172822553,02,A,2015_Jan_31_1553,X,
stim/negf.jpg,stim/posf.jpg,stim/1.jpg,stim/4.jpg,stim/latef.jpg,AB,1,2,0,32,32,9,,,,,,,,,,,,,,,,,,2,1,0.766401921783,,,,,,PLC_L_D2S1,P12,60.0172822553,02,A,2015_Jan_31_1553,X,
stim/negf.jpg,stim/posf.jpg,stim/4.jpg,stim/1.jpg,stim/latef.jpg,AB,2,4,0,33,33,19,,,,,,,,,,,,,,,,,,4,1,0.76640106465,,,,,,PLC_L_D2S1,P12,60.0172822553,02,A,2015_Jan_31_1553,X,
stim/posf.jpg,stim/negf.jpg,stim/6.jpg,stim/2.jpg,stim/latef.jpg,CD,1,2,0,34,34,20,,,,,,,,,,,,,,,,,,2,1,0.766438631143,,,,,,PLC_L_D2S1,P12,60.0172822553,02,A,2015_Jan_31_1553,X,
stim/negf.jpg,stim/posf.jpg,stim/3.jpg,stim/5.jpg,stim/latef.jpg,EF,1,2,0,35,35,48,,,,,,,,,,,,,,,,,,2,1,0.666442107796,,,,,,PLC_L_D2S1,P12,60.0172822553,02,A,2015_Jan_31_1553,X,
stim/negf.jpg,stim/posf.jpg,stim/3.jpg,stim/5.jpg,stim/latef.jpg,EF,1,2,0,36,36,49,,,,,,,,,,,,,,,,,,2,1,0.549832042496,,,,,,PLC_L_D2S1,P12,60.0172822553,02,A,2015_Jan_31_1553,X,
stim/posf.jpg,stim/negf.jpg,stim/4.jpg,stim/1.jpg,stim/latef.jpg,AB,2,4,0,37,37,14,,,,,,,,,,,,,,,,,,4,1,0.849691244084,,,,,,PLC_L_D2S1,P12,60.0172822553,02,A,2015_Jan_31_1553,X,
stim/posf.jpg,stim/negf.jpg,stim/6.jpg,stim/2.jpg,stim/latef.jpg,CD,1,2,0,38,38,26,,,,,,,,,,,,,,,,,,2,1,0.59979971053,,,,,,PLC_L_D2S1,P12,60.0172822553,02,A,2015_Jan_31_1553,X,
stim/posf.jpg,stim/negf.jpg,stim/4.jpg,stim/1.jpg,stim/latef.jpg,AB,2,4,0,39,39,17,,,,,,,,,,,,,,,,,,4,1,0.849737622508,,,,,,PLC_L_D2S1,P12,60.0172822553,02,A,2015_Jan_31_1553,X,
stim/posf.jpg,stim/negf.jpg,stim/2.jpg,stim/6.jpg,stim/latef.jpg,CD,2,4,0,40,40,30,,,,,,,,,,,,,,,,,,4,1,0.599792799329,,,,,,PLC_L_D2S1,P12,60.0172822553,02,A,2015_Jan_31_1553,X,
stim/negf.jpg,stim/posf.jpg,stim/2.jpg,stim/6.jpg,stim/latef.jpg,CD,2,4,0,41,41,39,,,,,,,,,,,,,,,,,,4,1,0.666423659884,,,,,,PLC_L_D2S1,P12,60.0172822553,02,A,2015_Jan_31_1553,X,
stim/negf.jpg,stim/posf.jpg,stim/3.jpg,stim/5.jpg,stim/latef.jpg,EF,1,2,0,42,42,47,,,,,,,,,,,,,,,,,,2,1,0.733074033,,,,,,PLC_L_D2S1,P12,60.0172822553,02,A,2015_Jan_31_1553,X,
stim/posf.jpg,stim/negf.jpg,stim/2.jpg,stim/6.jpg,stim/latef.jpg,CD,2,4,0,43,43,35,,,,,,,,,,,,,,,,,,4,1,0.616450067105,,,,,,PLC_L_D2S1,P12,60.0172822553,02,A,2015_Jan_31_1553,X,
stim/posf.jpg,stim/negf.jpg,stim/1.jpg,stim/4.jpg,stim/latef.jpg,AB,1,2,0,44,44,4,,,,,,,,,,,,,,,,,,2,1,0.982999166175,,,,,,PLC_L_D2S1,P12,60.0172822553,02,A,2015_Jan_31_1553,X,
stim/posf.jpg,stim/negf.jpg,stim/4.jpg,stim/1.jpg,stim/latef.jpg,AB,2,4,0,45,45,13,,,,,,,,,,,,,,,,,,4,1,1.03306144668,,,,,,PLC_L_D2S1,P12,60.0172822553,02,A,2015_Jan_31_1553,X,
stim/posf.jpg,stim/negf.jpg,stim/2.jpg,stim/6.jpg,stim/latef.jpg,CD,2,4,0,46,46,33,,,,,,,,,,,,,,,,,,4,1,0.633126291057,,,,,,PLC_L_D2S1,P12,60.0172822553,02,A,2015_Jan_31_1553,X,
stim/negf.jpg,stim/posf.jpg,stim/5.jpg,stim/3.jpg,stim/latef.jpg,EF,2,4,0,47,47,56,,,,,,,,,,,,,,,,,,4,1,0.599785046033,,,,,,PLC_L_D2S1,P12,60.0172822553,02,A,2015_Jan_31_1553,X,
stim/posf.jpg,stim/negf.jpg,stim/3.jpg,stim/5.jpg,stim/latef.jpg,EF,1,2,0,48,48,40,,,,,,,,,,,,,,,,,,2,1,0.599853917437,,,,,,PLC_L_D2S1,P12,60.0172822553,02,A,2015_Jan_31_1553,X,
stim/posf.jpg,stim/negf.jpg,stim/4.jpg,stim/1.jpg,stim/latef.jpg,AB,2,4,0,49,49,16,,,,,,,,,,,,,,,,,,4,1,0.783062482754,,,,,,PLC_L_D2S1,P12,60.0172822553,02,A,2015_Jan_31_1553,X,
stim/posf.jpg,stim/negf.jpg,stim/4.jpg,stim/1.jpg,stim/latef.jpg,AB,2,4,0,50,50,11,,,,,,,,,,,,,,,,,,4,1,1.01633637816,,,,,,PLC_L_D2S1,P12,60.0172822553,02,A,2015_Jan_31_1553,X,
stim/posf.jpg,stim/negf.jpg,stim/5.jpg,stim/3.jpg,stim/latef.jpg,EF,2,4,0,51,51,50,,,,,,,,,,,,,,,,,,4,1,0.783006185645,,,,,,PLC_L_D2S1,P12,60.0172822553,02,A,2015_Jan_31_1553,X,
stim/posf.jpg,stim/negf.jpg,stim/1.jpg,stim/4.jpg,stim/latef.jpg,AB,1,2,0,52,52,1,,,,,,,,,,,,,,,,,,2,1,0.983054819683,,,,,,PLC_L_D2S1,P12,60.0172822553,02,A,2015_Jan_31_1553,X,
stim/posf.jpg,stim/negf.jpg,stim/3.jpg,stim/5.jpg,stim/latef.jpg,EF,1,2,0,53,53,45,,,,,,,,,,,,,,,,,,2,1,0.416516024255,,,,,,PLC_L_D2S1,P12,60.0172822553,02,A,2015_Jan_31_1553,X,
stim/negf.jpg,stim/posf.jpg,stim/2.jpg,stim/6.jpg,stim/latef.jpg,CD,2,4,0,54,54,37,,,,,,,,,,,,,,,,,,4,1,0.566479767522,,,,,,PLC_L_D2S1,P12,60.0172822553,02,A,2015_Jan_31_1553,X,
stim/posf.jpg,stim/negf.jpg,stim/3.jpg,stim/5.jpg,stim/latef.jpg,EF,1,2,0,55,55,41,,,,,,,,,,,,,,,,,,2,1,0.54982778089,,,,,,PLC_L_D2S1,P12,60.0172822553,02,A,2015_Jan_31_1553,X,
stim/posf.jpg,stim/negf.jpg,stim/2.jpg,stim/6.jpg,stim/latef.jpg,CD,2,4,0,56,56,34,,,,,,,,,,,,,,,,,,4,1,0.616505107085,,,,,,PLC_L_D2S1,P12,60.0172822553,02,A,2015_Jan_31_1553,X,
stim/posf.jpg,stim/negf.jpg,stim/3.jpg,stim/5.jpg,stim/latef.jpg,EF,1,2,0,57,57,43,,,,,,,,,,,,,,,,,,2,1,0.599838958207,,,,,,PLC_L_D2S1,P12,60.0172822553,02,A,2015_Jan_31_1553,X,
stim/posf.jpg,stim/negf.jpg,stim/5.jpg,stim/3.jpg,stim/latef.jpg,EF,2,4,0,58,58,51,,,,,,,,,,,,,,,,,,4,1,0.533158669639,,,,,,PLC_L_D2S1,P12,60.0172822553,02,A,2015_Jan_31_1553,X,
stim/negf.jpg,stim/posf.jpg,stim/5.jpg,stim/3.jpg,stim/latef.jpg,EF,2,4,0,59,59,58,,,,,,,,,,,,,,,,,,4,1,0.48310997094,,,,,,PLC_L_D2S1,P12,60.0172822553,02,A,2015_Jan_31_1553,X,
,,,,,,,,,,,,,,,,,,,,,,,,,,,,,,,,0.9984375,1.0,1,0,0,PLC_L_D2S1,P12,60.0172822553,02,A,2015_Jan_31_1553,X,
stim/posf.jpg,stim/negf.jpg,stim/4.jpg,stim/1.jpg,stim/latef.jpg,AB,2,4,,,,,0,0,0,17,,,,,,,,,,,,,,4,1,0.899707347661,,,,,,PLC_L_D2S1,P12,60.0172822553,02,A,2015_Jan_31_1553,X,
stim/negf.jpg,stim/posf.jpg,stim/5.jpg,stim/3.jpg,stim/latef.jpg,EF,2,4,,,,,0,1,1,59,,,,,,,,,,,,,,4,1,0.549767895851,,,,,,PLC_L_D2S1,P12,60.0172822553,02,A,2015_Jan_31_1553,X,
stim/negf.jpg,stim/posf.jpg,stim/1.jpg,stim/4.jpg,stim/latef.jpg,AB,1,2,,,,,0,2,2,8,,,,,,,,,,,,,,2,1,0.849706101059,,,,,,PLC_L_D2S1,P12,60.0172822553,02,A,2015_Jan_31_1553,X,
stim/posf.jpg,stim/negf.jpg,stim/5.jpg,stim/3.jpg,stim/latef.jpg,EF,2,4,,,,,0,3,3,54,,,,,,,,,,,,,,4,1,0.666439767973,,,,,,PLC_L_D2S1,P12,60.0172822553,02,A,2015_Jan_31_1553,X,
stim/negf.jpg,stim/posf.jpg,stim/2.jpg,stim/6.jpg,stim/latef.jpg,CD,2,4,,,,,0,4,4,39,,,,,,,,,,,,,,4,1,0.583161212468,,,,,,PLC_L_D2S1,P12,60.0172822553,02,A,2015_Jan_31_1553,X,
stim/posf.jpg,stim/negf.jpg,stim/5.jpg,stim/3.jpg,stim/latef.jpg,EF,2,4,,,,,0,5,5,51,,,,,,,,,,,,,,4,1,0.416563674846,,,,,,PLC_L_D2S1,P12,60.0172822553,02,A,2015_Jan_31_1553,X,
stim/posf.jpg,stim/negf.jpg,stim/4.jpg,stim/1.jpg,stim/latef.jpg,AB,2,4,,,,,0,6,6,15,,,,,,,,,,,,,,4,1,0.899702105615,,,,,,PLC_L_D2S1,P12,60.0172822553,02,A,2015_Jan_31_1553,X,
stim/posf.jpg,stim/negf.jpg,stim/4.jpg,stim/1.jpg,stim/latef.jpg,AB,2,4,,,,,0,7,7,10,,,,,,,,,,,,,,4,1,0.76642590046,,,,,,PLC_L_D2S1,P12,60.0172822553,02,A,2015_Jan_31_1553,X,
stim/posf.jpg,stim/negf.jpg,stim/1.jpg,stim/4.jpg,stim/latef.jpg,AB,1,2,,,,,0,8,8,2,,,,,,,,,,,,,,2,1,1.21632195727,,,,,,PLC_L_D2S1,P12,60.0172822553,02,A,2015_Jan_31_1553,X,
stim/posf.jpg,stim/negf.jpg,stim/5.jpg,stim/3.jpg,stim/latef.jpg,EF,2,4,,,,,0,9,9,55,,,,,,,,,,,,,,4,1,0.51653892926,,,,,,PLC_L_D2S1,P12,60.0172822553,02,A,2015_Jan_31_1553,X,
stim/negf.jpg,stim/posf.jpg,stim/3.jpg,stim/5.jpg,stim/latef.jpg,EF,1,2,,,,,0,10,10,46,,,,,,,,,,,,,,2,1,0.566430011692,,,,,,PLC_L_D2S1,P12,60.0172822553,02,A,2015_Jan_31_1553,X,
stim/negf.jpg,stim/posf.jpg,stim/5.jpg,stim/3.jpg,stim/latef.jpg,EF,2,4,,,,,0,11,11,56,,,,,,,,,,,,,,4,1,0.549802397717,,,,,,PLC_L_D2S1,P12,60.0172822553,02,A,2015_Jan_31_1553,X,
stim/posf.jpg,stim/negf.jpg,stim/3.jpg,stim/5.jpg,stim/latef.jpg,EF,1,2,,,,,0,12,12,45,,,,,,,,,,,,,,2,1,0.43317580328,,,,,,PLC_L_D2S1,P12,60.0172822553,02,A,2015_Jan_31_1553,X,
stim/posf.jpg,stim/negf.jpg,stim/3.jpg,stim/5.jpg,stim/latef.jpg,EF,1,2,,,,,0,13,13,43,,,,,,,,,,,,,,2,1,0.483184818216,,,,,,PLC_L_D2S1,P12,60.0172822553,02,A,2015_Jan_31_1553,X,
stim/negf.jpg,stim/posf.jpg,stim/6.jpg,stim/2.jpg,stim/latef.jpg,CD,1,2,,,,,0,14,14,27,,,,,,,,,,,,,,2,1,0.566447100221,,,,,,PLC_L_D2S1,P12,60.0172822553,02,A,2015_Jan_31_1553,X,
stim/posf.jpg,stim/negf.jpg,stim/4.jpg,stim/1.jpg,stim/latef.jpg,AB,2,4,,,,,0,15,15,14,,,,,,,,,,,,,,4,1,0.699766522934,,,,,,PLC_L_D2S1,P12,60.0172822553,02,A,2015_Jan_31_1553,X,
stim/posf.jpg,stim/negf.jpg,stim/2.jpg,stim/6.jpg,stim/latef.jpg,CD,2,4,,,,,0,16,16,31,,,,,,,,,,,,,,4,1,0.566480299846,,,,,,PLC_L_D2S1,P12,60.0172822553,02,A,2015_Jan_31_1553,X,
stim/posf.jpg,stim/negf.jpg,stim/6.jpg,stim/2.jpg,stim/latef.jpg,CD,1,2,,,,,0,17,17,24,,,,,,,,,,,,,,2,1,0.583143531464,,,,,,PLC_L_D2S1,P12,60.0172822553,02,A,2015_Jan_31_1553,X,
stim/negf.jpg,stim/posf.jpg,stim/5.jpg,stim/3.jpg,stim/latef.jpg,EF,2,4,,,,,0,18,18,57,,,,,,,,,,,,,,4,1,0.566439358955,,,,,,PLC_L_D2S1,P12,60.0172822553,02,A,2015_Jan_31_1553,X,
stim/posf.jpg,stim/negf.jpg,stim/5.jpg,stim/3.jpg,stim/latef.jpg,EF,2,4,,,,,0,19,19,50,,,,,,,,,,,,,,4,1,0.566459701582,,,,,,PLC_L_D2S1,P12,60.0172822553,02,A,2015_Jan_31_1553,X,
stim/negf.jpg,stim/posf.jpg,stim/3.jpg,stim/5.jpg,stim/latef.jpg,EF,1,2,,,,,0,20,20,47,,,,,,,,,,,,,,2,1,0.533149854701,,,,,,PLC_L_D2S1,P12,60.0172822553,02,A,2015_Jan_31_1553,X,
stim/posf.jpg,stim/negf.jpg,stim/2.jpg,stim/6.jpg,stim/latef.jpg,CD,2,4,,,,,0,21,21,32,,,,,,,,,,,,,,4,1,0.516547488562,,,,,,PLC_L_D2S1,P12,60.0172822553,02,A,2015_Jan_31_1553,X,
stim/posf.jpg,stim/negf.jpg,stim/4.jpg,stim/1.jpg,stim/latef.jpg,AB,2,4,,,,,0,22,22,16,,,,,,,,,,,,,,4,1,0.716393935407,,,,,,PLC_L_D2S1,P12,60.0172822553,02,A,2015_Jan_31_1553,X,
stim/posf.jpg,stim/negf.jpg,stim/1.jpg,stim/4.jpg,stim/latef.jpg,AB,1,2,,,,,0,23,23,5,,,,,,,,,,,,,,2,1,0.982986904659,,,,,,PLC_L_D2S1,P12,60.0172822553,02,A,2015_Jan_31_1553,X,
stim/posf.jpg,stim/negf.jpg,stim/4.jpg,stim/1.jpg,stim/latef.jpg,AB,2,4,,,,,0,24,24,12,,,,,,,,,,,,,,4,1,0.66650594467,,,,,,PLC_L_D2S1,P12,60.0172822553,02,A,2015_Jan_31_1553,X,
stim/posf.jpg,stim/negf.jpg,stim/1.jpg,stim/4.jpg,stim/latef.jpg,AB,1,2,,,,,0,25,25,3,,,,,,,,,,,,,,2,1,1.29953050154,,,,,,PLC_L_D2S1,P12,60.0172822553,02,A,2015_Jan_31_1553,X,
stim/posf.jpg,stim/negf.jpg,stim/6.jpg,stim/2.jpg,stim/latef.jpg,CD,1,2,,,,,0,26,26,21,,,,,,,,,,,,,,2,1,0.599788450506,,,,,,PLC_L_D2S1,P12,60.0172822553,02,A,2015_Jan_31_1553,X,
stim/posf.jpg,stim/negf.jpg,stim/3.jpg,stim/5.jpg,stim/latef.jpg,EF,1,2,,,,,0,27,27,40,,,,,,,,,,,,,,2,1,0.59980571347,,,,,,PLC_L_D2S1,P12,60.0172822553,02,A,2015_Jan_31_1553,X,
stim/negf.jpg,stim/posf.jpg,stim/5.jpg,stim/3.jpg,stim/latef.jpg,EF,2,4,,,,,0,28,28,58,,,,,,,,,,,,,,4,1,0.666452766322,,,,,,PLC_L_D2S1,P12,60.0172822553,02,A,2015_Jan_31_1553,X,
stim/posf.jpg,stim/negf.jpg,stim/1.jpg,stim/4.jpg,stim/latef.jpg,AB,1,2,,,,,0,29,29,1,,,,,,,,,,,,,,2,1,1.04963437856,,,,,,PLC_L_D2S1,P12,60.0172822553,02,A,2015_Jan_31_1553,X,
stim/negf.jpg,stim/posf.jpg,stim/6.jpg,stim/2.jpg,stim/latef.jpg,CD,1,2,,,,,0,30,30,29,,,,,,,,,,,,,,2,1,0.883050822735,,,,,,PLC_L_D2S1,P12,60.0172822553,02,A,2015_Jan_31_1553,X,
stim/posf.jpg,stim/negf.jpg,stim/1.jpg,stim/4.jpg,stim/latef.jpg,AB,1,2,,,,,0,31,31,6,,,,,,,,,,,,,,2,1,1.06630383266,,,,,,PLC_L_D2S1,P12,60.0172822553,02,A,2015_Jan_31_1553,X,
stim/posf.jpg,stim/negf.jpg,stim/5.jpg,stim/3.jpg,stim/latef.jpg,EF,2,4,,,,,0,32,32,52,,,,,,,,,,,,,,4,1,0.533148534415,,,,,,PLC_L_D2S1,P12,60.0172822553,02,A,2015_Jan_31_1553,X,
stim/posf.jpg,stim/negf.jpg,stim/4.jpg,stim/1.jpg,stim/latef.jpg,AB,2,4,,,,,0,33,33,11,,,,,,,,,,,,,,4,1,1.03297112589,,,,,,PLC_L_D2S1,P12,60.0172822553,02,A,2015_Jan_31_1553,X,
stim/negf.jpg,stim/posf.jpg,stim/1.jpg,stim/4.jpg,stim/latef.jpg,AB,1,2,,,,,0,34,34,9,,,,,,,,,,,,,,2,1,0.81640360447,,,,,,PLC_L_D2S1,P12,60.0172822553,02,A,2015_Jan_31_1553,X,
stim/posf.jpg,stim/negf.jpg,stim/6.jpg,stim/2.jpg,stim/latef.jpg,CD,1,2,,,,,0,35,35,22,,,,,,,,,,,,,,2,1,0.56647010748,,,,,,PLC_L_D2S1,P12,60.0172822553,02,A,2015_Jan_31_1553,X,
stim/posf.jpg,stim/negf.jpg,stim/1.jpg,stim/4.jpg,stim/latef.jpg,AB,1,2,,,,,0,36,36,4,,,,,,,,,,,,,,2,1,0.766421091491,,,,,,PLC_L_D2S1,P12,60.0172822553,02,A,2015_Jan_31_1553,X,
stim/posf.jpg,stim/negf.jpg,stim/5.jpg,stim/3.jpg,stim/latef.jpg,EF,2,4,,,,,0,37,37,53,,,,,,,,,,,,,,4,1,0.783060951944,,,,,,PLC_L_D2S1,P12,60.0172822553,02,A,2015_Jan_31_1553,X,
stim/posf.jpg,stim/negf.jpg,stim/3.jpg,stim/5.jpg,stim/latef.jpg,EF,1,2,,,,,0,38,38,41,,,,,,,,,,,,,,2,1,0.649759763612,,,,,,PLC_L_D2S1,P12,60.0172822553,02,A,2015_Jan_31_1553,X,
stim/negf.jpg,stim/posf.jpg,stim/2.jpg,stim/6.jpg,stim/latef.jpg,CD,2,4,,,,,0,39,39,37,,,,,,,,,,,,,,4,1,0.566415572757,,,,,,PLC_L_D2S1,P12,60.0172822553,02,A,2015_Jan_31_1553,X,
stim/posf.jpg,stim/negf.jpg,stim/1.jpg,stim/4.jpg,stim/latef.jpg,AB,1,2,,,,,0,40,40,0,,,,,,,,,,,,,,2,1,0.616450226501,,,,,,PLC_L_D2S1,P12,60.0172822553,02,A,2015_Jan_31_1553,X,
stim/posf.jpg,stim/negf.jpg,stim/6.jpg,stim/2.jpg,stim/latef.jpg,CD,1,2,,,,,0,41,41,26,,,,,,,,,,,,,,2,1,0.633130688,,,,,,PLC_L_D2S1,P12,60.0172822553,02,A,2015_Jan_31_1553,X,
stim/posf.jpg,stim/negf.jpg,stim/4.jpg,stim/1.jpg,stim/latef.jpg,AB,2,4,,,,,0,42,42,13,,,,,,,,,,,,,,4,1,1.03299213317,,,,,,PLC_L_D2S1,P12,60.0172822553,02,A,2015_Jan_31_1553,X,
stim/negf.jpg,stim/posf.jpg,stim/4.jpg,stim/1.jpg,stim/latef.jpg,AB,2,4,,,,,0,43,43,19,,,,,,,,,,,,,,4,1,0.666438083781,,,,,,PLC_L_D2S1,P12,60.0172822553,02,A,2015_Jan_31_1553,X,
stim/negf.jpg,stim/posf.jpg,stim/4.jpg,stim/1.jpg,stim/latef.jpg,AB,2,4,,,,,0,44,44,18,,,,,,,,,,,,,,4,1,0.933024875659,,,,,,PLC_L_D2S1,P12,60.0172822553,02,A,2015_Jan_31_1553,X,
stim/posf.jpg,stim/negf.jpg,stim/2.jpg,stim/6.jpg,stim/latef.jpg,CD,2,4,,,,,0,45,45,34,,,,,,,,,,,,,,4,1,0.599800071428,,,,,,PLC_L_D2S1,P12,60.0172822553,02,A,2015_Jan_31_1553,X,
stim/posf.jpg,stim/negf.jpg,stim/2.jpg,stim/6.jpg,stim/latef.jpg,CD,2,4,,,,,0,46,46,33,,,,,,,,,,,,,,4,1,0.566451891144,,,,,,PLC_L_D2S1,P12,60.0172822553,02,A,2015_Jan_31_1553,X,
stim/posf.jpg,stim/negf.jpg,stim/2.jpg,stim/6.jpg,stim/latef.jpg,CD,2,4,,,,,0,47,47,35,,,,,,,,,,,,,,4,1,0.516472084901,,,,,,PLC_L_D2S1,P12,60.0172822553,02,A,2015_Jan_31_1553,X,
stim/negf.jpg,stim/posf.jpg,stim/2.jpg,stim/6.jpg,stim/latef.jpg,CD,2,4,,,,,0,48,48,38,,,,,,,,,,,,,,4,1,0.516422452378,,,,,,PLC_L_D2S1,P12,60.0172822553,02,A,2015_Jan_31_1553,X,
stim/posf.jpg,stim/negf.jpg,stim/3.jpg,stim/5.jpg,stim/latef.jpg,EF,1,2,,,,,0,49,49,42,,,,,,,,,,,,,,2,1,0.516496135758,,,,,,PLC_L_D2S1,P12,60.0172822553,02,A,2015_Jan_31_1553,X,
stim/negf.jpg,stim/posf.jpg,stim/3.jpg,stim/5.jpg,stim/latef.jpg,EF,1,2,,,,,0,50,50,48,,,,,,,,,,,,,,2,1,0.466478904373,,,,,,PLC_L_D2S1,P12,60.0172822553,02,A,2015_Jan_31_1553,X,
stim/negf.jpg,stim/posf.jpg,stim/6.jpg,stim/2.jpg,stim/latef.jpg,CD,1,2,,,,,0,51,51,28,,,,,,,,,,,,,,2,1,0.599809262302,,,,,,PLC_L_D2S1,P12,60.0172822553,02,A,2015_Jan_31_1553,X,
stim/posf.jpg,stim/negf.jpg,stim/1.jpg,stim/4.jpg,stim/latef.jpg,AB,1,2,,,,,0,52,52,7,,,,,,,,,,,,,,2,1,0.783089074935,,,,,,PLC_L_D2S1,P12,60.0172822553,02,A,2015_Jan_31_1553,X,
stim/posf.jpg,stim/negf.jpg,stim/6.jpg,stim/2.jpg,stim/latef.jpg,CD,1,2,,,,,0,53,53,23,,,,,,,,,,,,,,2,1,0.516477332962,,,,,,PLC_L_D2S1,P12,60.0172822553,02,A,2015_Jan_31_1553,X,
stim/posf.jpg,stim/negf.jpg,stim/2.jpg,stim/6.jpg,stim/latef.jpg,CD,2,4,,,,,0,54,54,30,,,,,,,,,,,,,,4,1,0.566495526742,,,,,,PLC_L_D2S1,P12,60.0172822553,02,A,2015_Jan_31_1553,X,
stim/posf.jpg,stim/negf.jpg,stim/2.jpg,stim/6.jpg,stim/latef.jpg,CD,2,4,,,,,0,55,55,36,,,,,,,,,,,,,,4,1,0.483156120796,,,,,,PLC_L_D2S1,P12,60.0172822553,02,A,2015_Jan_31_1553,X,
stim/negf.jpg,stim/posf.jpg,stim/3.jpg,stim/5.jpg,stim/latef.jpg,EF,1,2,,,,,0,56,56,49,,,,,,,,,,,,,,2,1,0.516560712473,,,,,,PLC_L_D2S1,P12,60.0172822553,02,A,2015_Jan_31_1553,X,
stim/posf.jpg,stim/negf.jpg,stim/6.jpg,stim/2.jpg,stim/latef.jpg,CD,1,2,,,,,0,57,57,25,,,,,,,,,,,,,,2,1,0.59977485066,,,,,,PLC_L_D2S1,P12,60.0172822553,02,A,2015_Jan_31_1553,X,
stim/posf.jpg,stim/negf.jpg,stim/6.jpg,stim/2.jpg,stim/latef.jpg,CD,1,2,,,,,0,58,58,20,,,,,,,,,,,,,,2,1,0.466502275538,,,,,,PLC_L_D2S1,P12,60.0172822553,02,A,2015_Jan_31_1553,X,
stim/posf.jpg,stim/negf.jpg,stim/3.jpg,stim/5.jpg,stim/latef.jpg,EF,1,2,,,,,0,59,59,44,,,,,,,,,,,,,,2,1,0.633133343609,,,,,,PLC_L_D2S1,P12,60.0172822553,02,A,2015_Jan_31_1553,X,
,,,,,,,,,,,,,,,,,,,,,,,,,,,,,,,,0.9984375,1.0,1,0,0,PLC_L_D2S1,P12,60.0172822553,02,A,2015_Jan_31_1553,X,
stim/posf.jpg,stim/negf.jpg,stim/6.jpg,stim/2.jpg,stim/latef.jpg,CD,1,2,,,,,,,,,0,0,0,22,,,,,,,,,,2,1,1.34956946801,,,,,,PLC_L_D2S1,P12,60.0172822553,02,A,2015_Jan_31_1553,X,
stim/posf.jpg,stim/negf.jpg,stim/1.jpg,stim/4.jpg,stim/latef.jpg,AB,1,2,,,,,,,,,0,1,1,4,,,,,,,,,,2,1,0.833094619234,,,,,,PLC_L_D2S1,P12,60.0172822553,02,A,2015_Jan_31_1553,X,
stim/posf.jpg,stim/negf.jpg,stim/4.jpg,stim/1.jpg,stim/latef.jpg,AB,2,4,,,,,,,,,0,2,2,11,,,,,,,,,,4,1,0.716412768277,,,,,,PLC_L_D2S1,P12,60.0172822553,02,A,2015_Jan_31_1553,X,
stim/negf.jpg,stim/posf.jpg,stim/5.jpg,stim/3.jpg,stim/latef.jpg,EF,2,4,,,,,,,,,0,3,3,57,,,,,,,,,,4,1,0.549816460717,,,,,,PLC_L_D2S1,P12,60.0172822553,02,A,2015_Jan_31_1553,X,
stim/posf.jpg,stim/negf.jpg,stim/6.jpg,stim/2.jpg,stim/latef.jpg,CD,1,2,,,,,,,,,0,4,4,25,,,,,,,,,,2,1,0.516497904159,,,,,,PLC_L_D2S1,P12,60.0172822553,02,A,2015_Jan_31_1553,X,
stim/posf.jpg,stim/negf.jpg,stim/3.jpg,stim/5.jpg,stim/latef.jpg,EF,1,2,,,,,,,,,0,5,5,42,,,,,,,,,,2,1,0.4665117431,,,,,,PLC_L_D2S1,P12,60.0172822553,02,A,2015_Jan_31_1553,X,
stim/negf.jpg,stim/posf.jpg,stim/3.jpg,stim/5.jpg,stim/latef.jpg,EF,1,2,,,,,,,,,0,6,6,47,,,,,,,,,,2,1,0.666422240351,,,,,,PLC_L_D2S1,P12,60.0172822553,02,A,2015_Jan_31_1553,X,
stim/posf.jpg,stim/negf.jpg,stim/2.jpg,stim/6.jpg,stim/latef.jpg,CD,2,4,,,,,,,,,0,7,7,35,,,,,,,,,,4,1,0.783093862851,,,,,,PLC_L_D2S1,P12,60.0172822553,02,A,2015_Jan_31_1553,X,
stim/posf.jpg,stim/negf.jpg,stim/3.jpg,stim/5.jpg,stim/latef.jpg,EF,1,2,,,,,,,,,0,8,8,40,,,,,,,,,,2,1,0.56652421514,,,,,,PLC_L_D2S1,P12,60.0172822553,02,A,2015_Jan_31_1553,X,
stim/posf.jpg,stim/negf.jpg,stim/3.jpg,stim/5.jpg,stim/latef.jpg,EF,1,2,,,,,,,,,0,9,9,45,,,,,,,,,,2,1,0.566461999301,,,,,,PLC_L_D2S1,P12,60.0172822553,02,A,2015_Jan_31_1553,X,
stim/posf.jpg,stim/negf.jpg,stim/5.jpg,stim/3.jpg,stim/latef.jpg,EF,2,4,,,,,,,,,0,10,10,50,,,,,,,,,,4,1,0.599797491006,,,,,,PLC_L_D2S1,P12,60.0172822553,02,A,2015_Jan_31_1553,X,
stim/negf.jpg,stim/posf.jpg,stim/4.jpg,stim/1.jpg,stim/latef.jpg,AB,2,4,,,,,,,,,0,11,11,19,,,,,,,,,,4,1,0.816419986241,,,,,,PLC_L_D2S1,P12,60.0172822553,02,A,2015_Jan_31_1553,X,
stim/negf.jpg,stim/posf.jpg,stim/1.jpg,stim/4.jpg,stim/latef.jpg,AB,1,2,,,,,,,,,0,12,12,9,,,,,,,,,,2,1,0.599736369891,,,,,,PLC_L_D2S1,P12,60.0172822553,02,A,2015_Jan_31_1553,X,
stim/negf.jpg,stim/posf.jpg,stim/2.jpg,stim/6.jpg,stim/latef.jpg,CD,2,4,,,,,,,,,0,13,13,39,,,,,,,,,,4,1,0.566481370511,,,,,,PLC_L_D2S1,P12,60.0172822553,02,A,2015_Jan_31_1553,X,
stim/posf.jpg,stim/negf.jpg,stim/4.jpg,stim/1.jpg,stim/latef.jpg,AB,2,4,,,,,,,,,0,14,14,17,,,,,,,,,,4,1,0.599760986154,,,,,,PLC_L_D2S1,P12,60.0172822553,02,A,2015_Jan_31_1553,X,
stim/posf.jpg,stim/negf.jpg,stim/3.jpg,stim/5.jpg,stim/latef.jpg,EF,1,2,,,,,,,,,0,15,15,44,,,,,,,,,,2,1,0.533131445886,,,,,,PLC_L_D2S1,P12,60.0172822553,02,A,2015_Jan_31_1553,X,
stim/posf.jpg,stim/negf.jpg,stim/1.jpg,stim/4.jpg,stim/latef.jpg,AB,1,2,,,,,,,,,0,16,16,6,,,,,,,,,,2,1,0.63313217069,,,,,,PLC_L_D2S1,P12,60.0172822553,02,A,2015_Jan_31_1553,X,
stim/posf.jpg,stim/negf.jpg,stim/4.jpg,stim/1.jpg,stim/latef.jpg,AB,2,4,,,,,,,,,0,17,17,16,,,,,,,,,,4,1,0.816396918832,,,,,,PLC_L_D2S1,P12,60.0172822553,02,A,2015_Jan_31_1553,X,
stim/posf.jpg,stim/negf.jpg,stim/1.jpg,stim/4.jpg,stim/latef.jpg,AB,1,2,,,,,,,,,0,18,18,3,,,,,,,,,,2,1,0.566495932753,,,,,,PLC_L_D2S1,P12,60.0172822553,02,A,2015_Jan_31_1553,X,
stim/posf.jpg,stim/negf.jpg,stim/2.jpg,stim/6.jpg,stim/latef.jpg,CD,2,4,,,,,,,,,0,19,19,36,,,,,,,,,,4,1,0.483165840987,,,,,,PLC_L_D2S1,P12,60.0172822553,02,A,2015_Jan_31_1553,X,
stim/negf.jpg,stim/posf.jpg,stim/5.jpg,stim/3.jpg,stim/latef.jpg,EF,2,4,,,,,,,,,0,20,20,59,,,,,,,,,,4,1,0.516488953884,,,,,,PLC_L_D2S1,P12,60.0172822553,02,A,2015_Jan_31_1553,X,
stim/posf.jpg,stim/negf.jpg,stim/6.jpg,stim/2.jpg,stim/latef.jpg,CD,1,2,,,,,,,,,0,21,21,26,,,,,,,,,,2,1,0.4998444198,,,,,,PLC_L_D2S1,P12,60.0172822553,02,A,2015_Jan_31_1553,X,
stim/negf.jpg,stim/posf.jpg,stim/5.jpg,stim/3.jpg,stim/latef.jpg,EF,2,4,,,,,,,,,0,22,22,58,,,,,,,,,,4,1,0.583118208441,,,,,,PLC_L_D2S1,P12,60.0172822553,02,A,2015_Jan_31_1553,X,
stim/posf.jpg,stim/negf.jpg,stim/1.jpg,stim/4.jpg,stim/latef.jpg,AB,1,2,,,,,,,,,0,23,23,1,,,,,,,,,,2,1,0.983013373533,,,,,,PLC_L_D2S1,P12,60.0172822553,02,A,2015_Jan_31_1553,X,
stim/posf.jpg,stim/negf.jpg,stim/6.jpg,stim/2.jpg,stim/latef.jpg,CD,1,2,,,,,,,,,0,24,24,20,,,,,,,,,,2,1,0.533136441318,,,,,,PLC_L_D2S1,P12,60.0172822553,02,A,2015_Jan_31_1553,X,
stim/posf.jpg,stim/negf.jpg,stim/4.jpg,stim/1.jpg,stim/latef.jpg,AB,2,4,,,,,,,,,0,25,25,12,,,,,,,,,,2,0,0.899708436371,,,,,,PLC_L_D2S1,P12,60.0172822553,02,A,2015_Jan_31_1553,X,
stim/posf.jpg,stim/negf.jpg,stim/5.jpg,stim/3.jpg,stim/latef.jpg,EF,2,4,,,,,,,,,0,26,26,55,,,,,,,,,,4,1,0.599697850024,,,,,,PLC_L_D2S1,P12,60.0172822553,02,A,2015_Jan_31_1553,X,
stim/posf.jpg,stim/negf.jpg,stim/4.jpg,stim/1.jpg,stim/latef.jpg,AB,2,4,,,,,,,,,0,27,27,13,,,,,,,,,,4,1,0.634103849957,,,,,,PLC_L_D2S1,P12,60.0172822553,02,A,2015_Jan_31_1553,X,
stim/posf.jpg,stim/negf.jpg,stim/2.jpg,stim/6.jpg,stim/latef.jpg,CD,2,4,,,,,,,,,0,28,28,31,,,,,,,,,,4,1,0.599835914632,,,,,,PLC_L_D2S1,P12,60.0172822553,02,A,2015_Jan_31_1553,X,
stim/negf.jpg,stim/posf.jpg,stim/5.jpg,stim/3.jpg,stim/latef.jpg,EF,2,4,,,,,,,,,0,29,29,56,,,,,,,,,,4,1,0.683095781627,,,,,,PLC_L_D2S1,P12,60.0172822553,02,A,2015_Jan_31_1553,X,
stim/posf.jpg,stim/negf.jpg,stim/5.jpg,stim/3.jpg,stim/latef.jpg,EF,2,4,,,,,,,,,0,30,30,54,,,,,,,,,,4,1,0.633142489371,,,,,,PLC_L_D2S1,P12,60.0172822553,02,A,2015_Jan_31_1553,X,
stim/negf.jpg,stim/posf.jpg,stim/3.jpg,stim/5.jpg,stim/latef.jpg,EF,1,2,,,,,,,,,0,31,31,49,,,,,,,,,,2,1,0.933029660568,,,,,,PLC_L_D2S1,P12,60.0172822553,02,A,2015_Jan_31_1553,X,
stim/negf.jpg,stim/posf.jpg,stim/6.jpg,stim/2.jpg,stim/latef.jpg,CD,1,2,,,,,,,,,0,32,32,29,,,,,,,,,,2,1,0.633113046094,,,,,,PLC_L_D2S1,P12,60.0172822553,02,A,2015_Jan_31_1553,X,
stim/negf.jpg,stim/posf.jpg,stim/3.jpg,stim/5.jpg,stim/latef.jpg,EF,1,2,,,,,,,,,0,33,33,48,,,,,,,,,,2,1,0.633102462754,,,,,,PLC_L_D2S1,P12,60.0172822553,02,A,2015_Jan_31_1553,X,
stim/posf.jpg,stim/negf.jpg,stim/1.jpg,stim/4.jpg,stim/latef.jpg,AB,1,2,,,,,,,,,0,34,34,5,,,,,,,,,,2,1,0.933023928302,,,,,,PLC_L_D2S1,P12,60.0172822553,02,A,2015_Jan_31_1553,X,
stim/posf.jpg,stim/negf.jpg,stim/5.jpg,stim/3.jpg,stim/latef.jpg,EF,2,4,,,,,,,,,0,35,35,53,,,,,,,,,,4,1,0.716425513998,,,,,,PLC_L_D2S1,P12,60.0172822553,02,A,2015_Jan_31_1553,X,
stim/posf.jpg,stim/negf.jpg,stim/1.jpg,stim/4.jpg,stim/latef.jpg,AB,1,2,,,,,,,,,0,36,36,2,,,,,,,,,,2,1,0.849703595824,,,,,,PLC_L_D2S1,P12,60.0172822553,02,A,2015_Jan_31_1553,X,
stim/posf.jpg,stim/negf.jpg,stim/1.jpg,stim/4.jpg,stim/latef.jpg,AB,1,2,,,,,,,,,0,37,37,7,,,,,,,,,,2,1,0.666459915114,,,,,,PLC_L_D2S1,P12,60.0172822553,02,A,2015_Jan_31_1553,X,
stim/negf.jpg,stim/posf.jpg,stim/2.jpg,stim/6.jpg,stim/latef.jpg,CD,2,4,,,,,,,,,0,38,38,37,,,,,,,,,,4,1,0.466508470957,,,,,,PLC_L_D2S1,P12,60.0172822553,02,A,2015_Jan_31_1553,X,
stim/negf.jpg,stim/posf.jpg,stim/4.jpg,stim/1.jpg,stim/latef.jpg,AB,2,4,,,,,,,,,0,39,39,18,,,,,,,,,,4,1,0.933029194408,,,,,,PLC_L_D2S1,P12,60.0172822553,02,A,2015_Jan_31_1553,X,
stim/posf.jpg,stim/negf.jpg,stim/4.jpg,stim/1.jpg,stim/latef.jpg,AB,2,4,,,,,,,,,0,40,40,14,,,,,,,,,,4,1,0.583066606016,,,,,,PLC_L_D2S1,P12,60.0172822553,02,A,2015_Jan_31_1553,X,
stim/negf.jpg,stim/posf.jpg,stim/2.jpg,stim/6.jpg,stim/latef.jpg,CD,2,4,,,,,,,,,0,41,41,38,,,,,,,,,,4,1,0.566476314929,,,,,,PLC_L_D2S1,P12,60.0172822553,02,A,2015_Jan_31_1553,X,
stim/posf.jpg,stim/negf.jpg,stim/5.jpg,stim/3.jpg,stim/latef.jpg,EF,2,4,,,,,,,,,0,42,42,51,,,,,,,,,,4,1,0.549816981011,,,,,,PLC_L_D2S1,P12,60.0172822553,02,A,2015_Jan_31_1553,X,
stim/posf.jpg,stim/negf.jpg,stim/2.jpg,stim/6.jpg,stim/latef.jpg,CD,2,4,,,,,,,,,0,43,43,30,,,,,,,,,,4,1,0.499829815453,,,,,,PLC_L_D2S1,P12,60.0172822553,02,A,2015_Jan_31_1553,X,
stim/negf.jpg,stim/posf.jpg,stim/1.jpg,stim/4.jpg,stim/latef.jpg,AB,1,2,,,,,,,,,0,44,44,8,,,,,,,,,,2,1,0.799712159637,,,,,,PLC_L_D2S1,P12,60.0172822553,02,A,2015_Jan_31_1553,X,
stim/posf.jpg,stim/negf.jpg,stim/2.jpg,stim/6.jpg,stim/latef.jpg,CD,2,4,,,,,,,,,0,45,45,34,,,,,,,,,,4,1,0.533132913539,,,,,,PLC_L_D2S1,P12,60.0172822553,02,A,2015_Jan_31_1553,X,
stim/posf.jpg,stim/negf.jpg,stim/3.jpg,stim/5.jpg,stim/latef.jpg,EF,1,2,,,,,,,,,0,46,46,41,,,,,,,,,,2,1,0.766399897745,,,,,,PLC_L_D2S1,P12,60.0172822553,02,A,2015_Jan_31_1553,X,
stim/posf.jpg,stim/negf.jpg,stim/3.jpg,stim/5.jpg,stim/latef.jpg,EF,1,2,,,,,,,,,0,47,47,43,,,,,,,,,,2,1,0.566470546573,,,,,,PLC_L_D2S1,P12,60.0172822553,02,A,2015_Jan_31_1553,X,
stim/posf.jpg,stim/negf.jpg,stim/1.jpg,stim/4.jpg,stim/latef.jpg,AB,1,2,,,,,,,,,0,48,48,0,,,,,,,,,,2,1,0.683055736965,,,,,,PLC_L_D2S1,P12,60.0172822553,02,A,2015_Jan_31_1553,X,
stim/posf.jpg,stim/negf.jpg,stim/4.jpg,stim/1.jpg,stim/latef.jpg,AB,2,4,,,,,,,,,0,49,49,10,,,,,,,,,,4,1,0.516466662406,,,,,,PLC_L_D2S1,P12,60.0172822553,02,A,2015_Jan_31_1553,X,
stim/posf.jpg,stim/negf.jpg,stim/2.jpg,stim/6.jpg,stim/latef.jpg,CD,2,4,,,,,,,,,0,50,50,32,,,,,,,,,,4,1,0.616450987395,,,,,,PLC_L_D2S1,P12,60.0172822553,02,A,2015_Jan_31_1553,X,
stim/posf.jpg,stim/negf.jpg,stim/6.jpg,stim/2.jpg,stim/latef.jpg,CD,1,2,,,,,,,,,0,51,51,24,,,,,,,,,,2,1,0.51649674327,,,,,,PLC_L_D2S1,P12,60.0172822553,02,A,2015_Jan_31_1553,X,
stim/posf.jpg,stim/negf.jpg,stim/2.jpg,stim/6.jpg,stim/latef.jpg,CD,2,4,,,,,,,,,0,52,52,33,,,,,,,,,,4,1,0.466498119194,,,,,,PLC_L_D2S1,P12,60.0172822553,02,A,2015_Jan_31_1553,X,
stim/posf.jpg,stim/negf.jpg,stim/6.jpg,stim/2.jpg,stim/latef.jpg,CD,1,2,,,,,,,,,0,53,53,21,,,,,,,,,,2,1,0.48317855964,,,,,,PLC_L_D2S1,P12,60.0172822553,02,A,2015_Jan_31_1553,X,
stim/posf.jpg,stim/negf.jpg,stim/4.jpg,stim/1.jpg,stim/latef.jpg,AB,2,4,,,,,,,,,0,54,54,15,,,,,,,,,,4,1,0.549845377684,,,,,,PLC_L_D2S1,P12,60.0172822553,02,A,2015_Jan_31_1553,X,
stim/negf.jpg,stim/posf.jpg,stim/6.jpg,stim/2.jpg,stim/latef.jpg,CD,1,2,,,,,,,,,0,55,55,27,,,,,,,,,,2,1,0.566476465303,,,,,,PLC_L_D2S1,P12,60.0172822553,02,A,2015_Jan_31_1553,X,
stim/negf.jpg,stim/posf.jpg,stim/6.jpg,stim/2.jpg,stim/latef.jpg,CD,1,2,,,,,,,,,0,56,56,28,,,,,,,,,,2,1,0.499841093521,,,,,,PLC_L_D2S1,P12,60.0172822553,02,A,2015_Jan_31_1553,X,
stim/posf.jpg,stim/negf.jpg,stim/5.jpg,stim/3.jpg,stim/latef.jpg,EF,2,4,,,,,,,,,0,57,57,52,,,,,,,,,,4,1,0.483161865091,,,,,,PLC_L_D2S1,P12,60.0172822553,02,A,2015_Jan_31_1553,X,
stim/posf.jpg,stim/negf.jpg,stim/6.jpg,stim/2.jpg,stim/latef.jpg,CD,1,2,,,,,,,,,0,58,58,23,,,,,,,,,,2,1,0.51650825893,,,,,,PLC_L_D2S1,P12,60.0172822553,02,A,2015_Jan_31_1553,X,
stim/negf.jpg,stim/posf.jpg,stim/3.jpg,stim/5.jpg,stim/latef.jpg,EF,1,2,,,,,,,,,0,59,59,46,,,,,,,,,,2,1,0.449828592911,,,,,,PLC_L_D2S1,P12,60.0172822553,02,A,2015_Jan_31_1553,X,
,,,,,,,,,,,,,,,,,,,,,,,,,,,,,,,,0.9578125,1.0,1,0,0,PLC_L_D2S1,P12,60.0172822553,02,A,2015_Jan_31_1553,X,
stim/posf.jpg,stim/negf.jpg,stim/3.jpg,stim/5.jpg,stim/latef.jpg,EF,1,2,,,,,,,,,,,,,0,0,0,42,,,,,,2,1,0.716437640177,,,,,,PLC_L_D2S1,P12,60.0172822553,02,A,2015_Jan_31_1553,X,
stim/posf.jpg,stim/negf.jpg,stim/6.jpg,stim/2.jpg,stim/latef.jpg,CD,1,2,,,,,,,,,,,,,0,1,1,24,,,,,,2,1,0.499831487615,,,,,,PLC_L_D2S1,P12,60.0172822553,02,A,2015_Jan_31_1553,X,
stim/negf.jpg,stim/posf.jpg,stim/6.jpg,stim/2.jpg,stim/latef.jpg,CD,1,2,,,,,,,,,,,,,0,2,2,27,,,,,,2,1,0.449910985966,,,,,,PLC_L_D2S1,P12,60.0172822553,02,A,2015_Jan_31_1553,X,
stim/posf.jpg,stim/negf.jpg,stim/6.jpg,stim/2.jpg,stim/latef.jpg,CD,1,2,,,,,,,,,,,,,0,3,3,23,,,,,,2,1,0.399869742823,,,,,,PLC_L_D2S1,P12,60.0172822553,02,A,2015_Jan_31_1553,X,
stim/posf.jpg,stim/negf.jpg,stim/2.jpg,stim/6.jpg,stim/latef.jpg,CD,2,4,,,,,,,,,,,,,0,4,4,32,,,,,,4,1,0.483157907242,,,,,,PLC_L_D2S1,P12,60.0172822553,02,A,2015_Jan_31_1553,X,
stim/negf.jpg,stim/posf.jpg,stim/6.jpg,stim/2.jpg,stim/latef.jpg,CD,1,2,,,,,,,,,,,,,0,5,5,28,,,,,,2,1,0.399865718808,,,,,,PLC_L_D2S1,P12,60.0172822553,02,A,2015_Jan_31_1553,X,
stim/posf.jpg,stim/negf.jpg,stim/6.jpg,stim/2.jpg,stim/latef.jpg,CD,1,2,,,,,,,,,,,,,0,6,6,22,,,,,,2,1,0.399810516423,,,,,,PLC_L_D2S1,P12,60.0172822553,02,A,2015_Jan_31_1553,X,
stim/negf.jpg,stim/posf.jpg,stim/3.jpg,stim/5.jpg,stim/latef.jpg,EF,1,2,,,,,,,,,,,,,0,7,7,48,,,,,,2,1,0.599811382578,,,,,,PLC_L_D2S1,P12,60.0172822553,02,A,2015_Jan_31_1553,X,
stim/posf.jpg,stim/negf.jpg,stim/2.jpg,stim/6.jpg,stim/latef.jpg,CD,2,4,,,,,,,,,,,,,0,8,8,31,,,,,,4,1,0.483156526806,,,,,,PLC_L_D2S1,P12,60.0172822553,02,A,2015_Jan_31_1553,X,
stim/posf.jpg,stim/negf.jpg,stim/2.jpg,stim/6.jpg,stim/latef.jpg,CD,2,4,,,,,,,,,,,,,0,9,9,36,,,,,,4,1,0.433153481727,,,,,,PLC_L_D2S1,P12,60.0172822553,02,A,2015_Jan_31_1553,X,
stim/posf.jpg,stim/negf.jpg,stim/6.jpg,stim/2.jpg,stim/latef.jpg,CD,1,2,,,,,,,,,,,,,0,10,10,21,,,,,,2,1,0.433244689722,,,,,,PLC_L_D2S1,P12,60.0172822553,02,A,2015_Jan_31_1553,X,
stim/posf.jpg,stim/negf.jpg,stim/3.jpg,stim/5.jpg,stim/latef.jpg,EF,1,2,,,,,,,,,,,,,0,11,11,40,,,,,,2,1,0.499856861765,,,,,,PLC_L_D2S1,P12,60.0172822553,02,A,2015_Jan_31_1553,X,
stim/negf.jpg,stim/posf.jpg,stim/5.jpg,stim/3.jpg,stim/latef.jpg,EF,2,4,,,,,,,,,,,,,0,12,12,56,,,,,,4,1,0.499845947602,,,,,,PLC_L_D2S1,P12,60.0172822553,02,A,2015_Jan_31_1553,X,
stim/negf.jpg,stim/posf.jpg,stim/3.jpg,stim/5.jpg,stim/latef.jpg,EF,1,2,,,,,,,,,,,,,0,13,13,47,,,,,,2,1,0.466496633497,,,,,,PLC_L_D2S1,P12,60.0172822553,02,A,2015_Jan_31_1553,X,
stim/posf.jpg,stim/negf.jpg,stim/2.jpg,stim/6.jpg,stim/latef.jpg,CD,2,4,,,,,,,,,,,,,0,14,14,33,,,,,,4,1,0.516493588418,,,,,,PLC_L_D2S1,P12,60.0172822553,02,A,2015_Jan_31_1553,X,
stim/posf.jpg,stim/negf.jpg,stim/4.jpg,stim/1.jpg,stim/latef.jpg,AB,2,4,,,,,,,,,,,,,0,15,15,11,,,,,,2,0,0.583128990274,,,,,,PLC_L_D2S1,P12,60.0172822553,02,A,2015_Jan_31_1553,X,
stim/posf.jpg,stim/negf.jpg,stim/1.jpg,stim/4.jpg,stim/latef.jpg,AB,1,2,,,,,,,,,,,,,0,16,16,6,,,,,,2,1,0.666422959139,,,,,,PLC_L_D2S1,P12,60.0172822553,02,A,2015_Jan_31_1553,X,
stim/posf.jpg,stim/negf.jpg,stim/6.jpg,stim/2.jpg,stim/latef.jpg,CD,1,2,,,,,,,,,,,,,0,17,17,20,,,,,,2,1,0.633203908227,,,,,,PLC_L_D2S1,P12,60.0172822553,02,A,2015_Jan_31_1553,X,
stim/posf.jpg,stim/negf.jpg,stim/6.jpg,stim/2.jpg,stim/latef.jpg,CD,1,2,,,,,,,,,,,,,0,18,18,25,,,,,,2,1,0.566489292226,,,,,,PLC_L_D2S1,P12,60.0172822553,02,A,2015_Jan_31_1553,X,
stim/negf.jpg,stim/posf.jpg,stim/3.jpg,stim/5.jpg,stim/latef.jpg,EF,1,2,,,,,,,,,,,,,0,19,19,46,,,,,,2,1,0.599793355714,,,,,,PLC_L_D2S1,P12,60.0172822553,02,A,2015_Jan_31_1553,X,
stim/posf.jpg,stim/negf.jpg,stim/3.jpg,stim/5.jpg,stim/latef.jpg,EF,1,2,,,,,,,,,,,,,0,20,20,41,,,,,,2,1,0.51650653564,,,,,,PLC_L_D2S1,P12,60.0172822553,02,A,2015_Jan_31_1553,X,
stim/negf.jpg,stim/posf.jpg,stim/2.jpg,stim/6.jpg,stim/latef.jpg,CD,2,4,,,,,,,,,,,,,0,21,21,37,,,,,,4,1,0.433192485799,,,,,,PLC_L_D2S1,P12,60.0172822553,02,A,2015_Jan_31_1553,X,
stim/negf.jpg,stim/posf.jpg,stim/5.jpg,stim/3.jpg,stim/latef.jpg,EF,2,4,,,,,,,,,,,,,0,22,22,58,,,,,,4,1,0.533142618693,,,,,,PLC_L_D2S1,P12,60.0172822553,02,A,2015_Jan_31_1553,X,
stim/posf.jpg,stim/negf.jpg,stim/3.jpg,stim/5.jpg,stim/latef.jpg,EF,1,2,,,,,,,,,,,,,0,23,23,45,,,,,,2,1,0.633129027868,,,,,,PLC_L_D2S1,P12,60.0172822553,02,A,2015_Jan_31_1553,X,
stim/posf.jpg,stim/negf.jpg,stim/1.jpg,stim/4.jpg,stim/latef.jpg,AB,1,2,,,,,,,,,,,,,0,24,24,1,,,,,,2,1,0.549805044304,,,,,,PLC_L_D2S1,P12,60.0172822553,02,A,2015_Jan_31_1553,X,
stim/posf.jpg,stim/negf.jpg,stim/4.jpg,stim/1.jpg,stim/latef.jpg,AB,2,4,,,,,,,,,,,,,0,25,25,16,,,,,,4,1,0.566554515551,,,,,,PLC_L_D2S1,P12,60.0172822553,02,A,2015_Jan_31_1553,X,
stim/posf.jpg,stim/negf.jpg,stim/1.jpg,stim/4.jpg,stim/latef.jpg,AB,1,2,,,,,,,,,,,,,0,26,26,7,,,,,,2,1,0.982931963925,,,,,,PLC_L_D2S1,P12,60.0172822553,02,A,2015_Jan_31_1553,X,
stim/posf.jpg,stim/negf.jpg,stim/4.jpg,stim/1.jpg,stim/latef.jpg,AB,2,4,,,,,,,,,,,,,0,27,27,15,,,,,,4,1,0.4665095326,,,,,,PLC_L_D2S1,P12,60.0172822553,02,A,2015_Jan_31_1553,X,
stim/negf.jpg,stim/posf.jpg,stim/6.jpg,stim/2.jpg,stim/latef.jpg,CD,1,2,,,,,,,,,,,,,0,28,28,29,,,,,,2,1,0.583144866787,,,,,,PLC_L_D2S1,P12,60.0172822553,02,A,2015_Jan_31_1553,X,
stim/posf.jpg,stim/negf.jpg,stim/5.jpg,stim/3.jpg,stim/latef.jpg,EF,2,4,,,,,,,,,,,,,0,29,29,53,,,,,,4,1,0.633136528535,,,,,,PLC_L_D2S1,P12,60.0172822553,02,A,2015_Jan_31_1553,X,
stim/negf.jpg,stim/posf.jpg,stim/5.jpg,stim/3.jpg,stim/latef.jpg,EF,2,4,,,,,,,,,,,,,0,30,30,59,,,,,,4,1,0.499894040293,,,,,,PLC_L_D2S1,P12,60.0172822553,02,A,2015_Jan_31_1553,X,
stim/negf.jpg,stim/posf.jpg,stim/3.jpg,stim/5.jpg,stim/latef.jpg,EF,1,2,,,,,,,,,,,,,0,31,31,49,,,,,,2,1,0.616464130104,,,,,,PLC_L_D2S1,P12,60.0172822553,02,A,2015_Jan_31_1553,X,
stim/posf.jpg,stim/negf.jpg,stim/1.jpg,stim/4.jpg,stim/latef.jpg,AB,1,2,,,,,,,,,,,,,0,32,32,5,,,,,,2,1,0.799779061138,,,,,,PLC_L_D2S1,P12,60.0172822553,02,A,2015_Jan_31_1553,X,
stim/negf.jpg,stim/posf.jpg,stim/2.jpg,stim/6.jpg,stim/latef.jpg,CD,2,4,,,,,,,,,,,,,0,33,33,38,,,,,,4,1,0.649774689759,,,,,,PLC_L_D2S1,P12,60.0172822553,02,A,2015_Jan_31_1553,X,
stim/posf.jpg,stim/negf.jpg,stim/5.jpg,stim/3.jpg,stim/latef.jpg,EF,2,4,,,,,,,,,,,,,0,34,34,50,,,,,,4,1,0.433217790777,,,,,,PLC_L_D2S1,P12,60.0172822553,02,A,2015_Jan_31_1553,X,
stim/posf.jpg,stim/negf.jpg,stim/4.jpg,stim/1.jpg,stim/latef.jpg,AB,2,4,,,,,,,,,,,,,0,35,35,13,,,,,,4,1,0.783051156566,,,,,,PLC_L_D2S1,P12,60.0172822553,02,A,2015_Jan_31_1553,X,
stim/posf.jpg,stim/negf.jpg,stim/2.jpg,stim/6.jpg,stim/latef.jpg,CD,2,4,,,,,,,,,,,,,0,36,36,30,,,,,,4,1,0.649780656609,,,,,,PLC_L_D2S1,P12,60.0172822553,02,A,2015_Jan_31_1553,X,
stim/posf.jpg,stim/negf.jpg,stim/2.jpg,stim/6.jpg,stim/latef.jpg,CD,2,4,,,,,,,,,,,,,0,37,37,35,,,,,,4,1,0.483177293489,,,,,,PLC_L_D2S1,P12,60.0172822553,02,A,2015_Jan_31_1553,X,
stim/posf.jpg,stim/negf.jpg,stim/6.jpg,stim/2.jpg,stim/latef.jpg,CD,1,2,,,,,,,,,,,,,0,38,38,26,,,,,,2,1,0.516496141773,,,,,,PLC_L_D2S1,P12,60.0172822553,02,A,2015_Jan_31_1553,X,
stim/posf.jpg,stim/negf.jpg,stim/3.jpg,stim/5.jpg,stim/latef.jpg,EF,1,2,,,,,,,,,,,,,0,39,39,44,,,,,,2,1,0.616422635835,,,,,,PLC_L_D2S1,P12,60.0172822553,02,A,2015_Jan_31_1553,X,
stim/posf.jpg,stim/negf.jpg,stim/5.jpg,stim/3.jpg,stim/latef.jpg,EF,2,4,,,,,,,,,,,,,0,40,40,51,,,,,,4,1,0.516498222953,,,,,,PLC_L_D2S1,P12,60.0172822553,02,A,2015_Jan_31_1553,X,
stim/negf.jpg,stim/posf.jpg,stim/1.jpg,stim/4.jpg,stim/latef.jpg,AB,1,2,,,,,,,,,,,,,0,41,41,9,,,,,,2,1,0.966272870607,,,,,,PLC_L_D2S1,P12,60.0172822553,02,A,2015_Jan_31_1553,X,
stim/negf.jpg,stim/posf.jpg,stim/4.jpg,stim/1.jpg,stim/latef.jpg,AB,2,4,,,,,,,,,,,,,0,42,42,18,,,,,,4,1,0.699771981519,,,,,,PLC_L_D2S1,P12,60.0172822553,02,A,2015_Jan_31_1553,X,
stim/negf.jpg,stim/posf.jpg,stim/1.jpg,stim/4.jpg,stim/latef.jpg,AB,1,2,,,,,,,,,,,,,0,43,43,8,,,,,,2,1,0.633120474581,,,,,,PLC_L_D2S1,P12,60.0172822553,02,A,2015_Jan_31_1553,X,
stim/posf.jpg,stim/negf.jpg,stim/4.jpg,stim/1.jpg,stim/latef.jpg,AB,2,4,,,,,,,,,,,,,0,44,44,12,,,,,,4,1,0.533173379248,,,,,,PLC_L_D2S1,P12,60.0172822553,02,A,2015_Jan_31_1553,X,
stim/posf.jpg,stim/negf.jpg,stim/1.jpg,stim/4.jpg,stim/latef.jpg,AB,1,2,,,,,,,,,,,,,0,45,45,4,,,,,,2,1,0.599830296651,,,,,,PLC_L_D2S1,P12,60.0172822553,02,A,2015_Jan_31_1553,X,
stim/posf.jpg,stim/negf.jpg,stim/5.jpg,stim/3.jpg,stim/latef.jpg,EF,2,4,,,,,,,,,,,,,0,46,46,52,,,,,,4,1,0.666437605591,,,,,,PLC_L_D2S1,P12,60.0172822553,02,A,2015_Jan_31_1553,X,
stim/posf.jpg,stim/negf.jpg,stim/4.jpg,stim/1.jpg,stim/latef.jpg,AB,2,4,,,,,,,,,,,,,0,47,47,10,,,,,,4,1,0.749754515551,,,,,,PLC_L_D2S1,P12,60.0172822553,02,A,2015_Jan_31_1553,X,
stim/posf.jpg,stim/negf.jpg,stim/5.jpg,stim/3.jpg,stim/latef.jpg,EF,2,4,,,,,,,,,,,,,0,48,48,55,,,,,,4,1,0.68305669936,,,,,,PLC_L_D2S1,P12,60.0172822553,02,A,2015_Jan_31_1553,X,
stim/posf.jpg,stim/negf.jpg,stim/1.jpg,stim/4.jpg,stim/latef.jpg,AB,1,2,,,,,,,,,,,,,0,49,49,3,,,,,,2,1,0.51645444901,,,,,,PLC_L_D2S1,P12,60.0172822553,02,A,2015_Jan_31_1553,X,
stim/posf.jpg,stim/negf.jpg,stim/1.jpg,stim/4.jpg,stim/latef.jpg,AB,1,2,,,,,,,,,,,,,0,50,50,2,,,,,,2,1,0.649780145337,,,,,,PLC_L_D2S1,P12,60.0172822553,02,A,2015_Jan_31_1553,X,
stim/posf.jpg,stim/negf.jpg,stim/2.jpg,stim/6.jpg,stim/latef.jpg,CD,2,4,,,,,,,,,,,,,0,51,51,34,,,,,,4,1,0.59983835671,,,,,,PLC_L_D2S1,P12,60.0172822553,02,A,2015_Jan_31_1553,X,
stim/posf.jpg,stim/negf.jpg,stim/5.jpg,stim/3.jpg,stim/latef.jpg,EF,2,4,,,,,,,,,,,,,0,52,52,54,,,,,,4,1,0.549832352267,,,,,,PLC_L_D2S1,P12,60.0172822553,02,A,2015_Jan_31_1553,X,
stim/posf.jpg,stim/negf.jpg,stim/1.jpg,stim/4.jpg,stim/latef.jpg,AB,1,2,,,,,,,,,,,,,0,53,53,0,,,,,,2,1,0.516487392999,,,,,,PLC_L_D2S1,P12,60.0172822553,02,A,2015_Jan_31_1553,X,
stim/posf.jpg,stim/negf.jpg,stim/4.jpg,stim/1.jpg,stim/latef.jpg,AB,2,4,,,,,,,,,,,,,0,54,54,17,,,,,,4,1,0.683090825291,,,,,,PLC_L_D2S1,P12,60.0172822553,02,A,2015_Jan_31_1553,X,
stim/negf.jpg,stim/posf.jpg,stim/5.jpg,stim/3.jpg,stim/latef.jpg,EF,2,4,,,,,,,,,,,,,0,55,55,57,,,,,,4,1,0.583121997872,,,,,,PLC_L_D2S1,P12,60.0172822553,02,A,2015_Jan_31_1553,X,
stim/posf.jpg,stim/negf.jpg,stim/4.jpg,stim/1.jpg,stim/latef.jpg,AB,2,4,,,,,,,,,,,,,0,56,56,14,,,,,,4,1,0.883040001805,,,,,,PLC_L_D2S1,P12,60.0172822553,02,A,2015_Jan_31_1553,X,
stim/negf.jpg,stim/posf.jpg,stim/2.jpg,stim/6.jpg,stim/latef.jpg,CD,2,4,,,,,,,,,,,,,0,57,57,39,,,,,,4,1,0.516512487453,,,,,,PLC_L_D2S1,P12,60.0172822553,02,A,2015_Jan_31_1553,X,
stim/posf.jpg,stim/negf.jpg,stim/3.jpg,stim/5.jpg,stim/latef.jpg,EF,1,2,,,,,,,,,,,,,0,58,58,43,,,,,,2,1,0.616410425446,,,,,,PLC_L_D2S1,P12,60.0172822553,02,A,2015_Jan_31_1553,X,
stim/negf.jpg,stim/posf.jpg,stim/4.jpg,stim/1.jpg,stim/latef.jpg,AB,2,4,,,,,,,,,,,,,0,59,59,19,,,,,,4,1,0.599766408649,,,,,,PLC_L_D2S1,P12,60.0172822553,02,A,2015_Jan_31_1553,X,
