fb_corr,fb_incorr,symbol2,symbol1,fb_late,pair,position,correct,block_01.thisRepN,block_01.thisTrialN,block_01.thisN,block_01.thisIndex,block_02.thisRepN,block_02.thisTrialN,block_02.thisN,block_02.thisIndex,block_03.thisRepN,block_03.thisTrialN,block_03.thisN,block_03.thisIndex,block_04.thisRepN,block_04.thisTrialN,block_04.thisN,block_04.thisIndex,mouse.x,mouse.y,mouse.leftButton,mouse.midButton,mouse.rightButton,buttonBox_2.keys,buttonBox_2.corr,buttonBox_2.rt,mouse_2.x,mouse_2.y,mouse_2.leftButton,mouse_2.midButton,mouse_2.rightButton,expName,Participant,frameRate,SessionNumber,Version,date,Group,
,,,,,,,,,,,,,,,,,,,,,,,,0.9984375,1.0,1,0,0,,,,,,,,,PLC_L_D2S1,P18,60.0206881182,02,A,2015_Feb_19_1406,X,
stim/posf.jpg,stim/negf.jpg,stim/1.jpg,stim/4.jpg,stim/latef.jpg,AB,2,4,0,0,0,17,,,,,,,,,,,,,,,,,,2,0,0.59982440132,,,,,,PLC_L_D2S1,P18,60.0206881182,02,A,2015_Feb_19_1406,X,
stim/posf.jpg,stim/negf.jpg,stim/5.jpg,stim/2.jpg,stim/latef.jpg,CD,1,2,0,1,1,22,,,,,,,,,,,,,,,,,,4,0,0.816389467748,,,,,,PLC_L_D2S1,P18,60.0206881182,02,A,2015_Feb_19_1406,X,
stim/negf.jpg,stim/posf.jpg,stim/3.jpg,stim/6.jpg,stim/latef.jpg,EF,1,2,0,2,2,47,,,,,,,,,,,,,,,,,,2,1,1.08297345433,,,,,,PLC_L_D2S1,P18,60.0206881182,02,A,2015_Feb_19_1406,X,
stim/posf.jpg,stim/negf.jpg,stim/4.jpg,stim/1.jpg,stim/latef.jpg,AB,1,2,0,3,3,6,,,,,,,,,,,,,,,,,,2,1,1.01632752836,,,,,,PLC_L_D2S1,P18,60.0206881182,02,A,2015_Feb_19_1406,X,
stim/posf.jpg,stim/negf.jpg,stim/6.jpg,stim/3.jpg,stim/latef.jpg,EF,2,4,0,4,4,55,,,,,,,,,,,,,,,,,,2,0,0.883052954489,,,,,,PLC_L_D2S1,P18,60.0206881182,02,A,2015_Feb_19_1406,X,
stim/posf.jpg,stim/negf.jpg,stim/4.jpg,stim/1.jpg,stim/latef.jpg,AB,1,2,0,5,5,7,,,,,,,,,,,,,,,,,,2,1,0.699749153766,,,,,,PLC_L_D2S1,P18,60.0206881182,02,A,2015_Feb_19_1406,X,
stim/posf.jpg,stim/negf.jpg,stim/6.jpg,stim/3.jpg,stim/latef.jpg,EF,2,4,0,6,6,52,,,,,,,,,,,,,,,,,,2,0,0.96634304103,,,,,,PLC_L_D2S1,P18,60.0206881182,02,A,2015_Feb_19_1406,X,
stim/posf.jpg,stim/negf.jpg,stim/5.jpg,stim/2.jpg,stim/latef.jpg,CD,1,2,0,7,7,23,,,,,,,,,,,,,,,,,,2,1,0.749732095248,,,,,,PLC_L_D2S1,P18,60.0206881182,02,A,2015_Feb_19_1406,X,
stim/posf.jpg,stim/negf.jpg,stim/1.jpg,stim/4.jpg,stim/latef.jpg,AB,2,4,0,8,8,11,,,,,,,,,,,,,,,,,,4,1,1.06631633446,,,,,,PLC_L_D2S1,P18,60.0206881182,02,A,2015_Feb_19_1406,X,
stim/posf.jpg,stim/negf.jpg,stim/1.jpg,stim/4.jpg,stim/latef.jpg,AB,2,4,0,9,9,13,,,,,,,,,,,,,,,,,,4,1,1.01628009113,,,,,,PLC_L_D2S1,P18,60.0206881182,02,A,2015_Feb_19_1406,X,
stim/negf.jpg,stim/posf.jpg,stim/3.jpg,stim/6.jpg,stim/latef.jpg,EF,1,2,0,10,10,49,,,,,,,,,,,,,,,,,,2,1,1.48285187029,,,,,,PLC_L_D2S1,P18,60.0206881182,02,A,2015_Feb_19_1406,X,
stim/negf.jpg,stim/posf.jpg,stim/6.jpg,stim/3.jpg,stim/latef.jpg,EF,2,4,0,11,11,58,,,,,,,,,,,,,,,,,,4,1,0.79975192367,,,,,,PLC_L_D2S1,P18,60.0206881182,02,A,2015_Feb_19_1406,X,
stim/posf.jpg,stim/negf.jpg,stim/3.jpg,stim/6.jpg,stim/latef.jpg,EF,1,2,0,12,12,43,,,,,,,,,,,,,,,,,,4,0,0.916366995737,,,,,,PLC_L_D2S1,P18,60.0206881182,02,A,2015_Feb_19_1406,X,
stim/negf.jpg,stim/posf.jpg,stim/6.jpg,stim/3.jpg,stim/latef.jpg,EF,2,4,0,13,13,59,,,,,,,,,,,,,,,,,,2,0,0.616450586086,,,,,,PLC_L_D2S1,P18,60.0206881182,02,A,2015_Feb_19_1406,X,
stim/posf.jpg,stim/negf.jpg,stim/4.jpg,stim/1.jpg,stim/latef.jpg,AB,1,2,0,14,14,4,,,,,,,,,,,,,,,,,,2,1,0.649791769987,,,,,,PLC_L_D2S1,P18,60.0206881182,02,A,2015_Feb_19_1406,X,
stim/negf.jpg,stim/posf.jpg,stim/3.jpg,stim/6.jpg,stim/latef.jpg,EF,1,2,0,15,15,48,,,,,,,,,,,,,,,,,,4,0,0.833054016135,,,,,,PLC_L_D2S1,P18,60.0206881182,02,A,2015_Feb_19_1406,X,
stim/negf.jpg,stim/posf.jpg,stim/5.jpg,stim/2.jpg,stim/latef.jpg,CD,1,2,0,16,16,28,,,,,,,,,,,,,,,,,,2,1,0.716408775874,,,,,,PLC_L_D2S1,P18,60.0206881182,02,A,2015_Feb_19_1406,X,
stim/negf.jpg,stim/posf.jpg,stim/2.jpg,stim/5.jpg,stim/latef.jpg,CD,2,4,0,17,17,39,,,,,,,,,,,,,,,,,,4,1,0.633171747581,,,,,,PLC_L_D2S1,P18,60.0206881182,02,A,2015_Feb_19_1406,X,
stim/posf.jpg,stim/negf.jpg,stim/2.jpg,stim/5.jpg,stim/latef.jpg,CD,2,4,0,18,18,30,,,,,,,,,,,,,,,,,,2,0,0.64978747829,,,,,,PLC_L_D2S1,P18,60.0206881182,02,A,2015_Feb_19_1406,X,
stim/posf.jpg,stim/negf.jpg,stim/4.jpg,stim/1.jpg,stim/latef.jpg,AB,1,2,0,19,19,0,,,,,,,,,,,,,,,,,,2,1,0.699701701491,,,,,,PLC_L_D2S1,P18,60.0206881182,02,A,2015_Feb_19_1406,X,
stim/negf.jpg,stim/posf.jpg,stim/4.jpg,stim/1.jpg,stim/latef.jpg,AB,1,2,0,20,20,8,,,,,,,,,,,,,,,,,,2,1,0.73309393764,,,,,,PLC_L_D2S1,P18,60.0206881182,02,A,2015_Feb_19_1406,X,
stim/posf.jpg,stim/negf.jpg,stim/3.jpg,stim/6.jpg,stim/latef.jpg,EF,1,2,0,21,21,44,,,,,,,,,,,,,,,,,,4,0,1.11630865933,,,,,,PLC_L_D2S1,P18,60.0206881182,02,A,2015_Feb_19_1406,X,
stim/negf.jpg,stim/posf.jpg,stim/4.jpg,stim/1.jpg,stim/latef.jpg,AB,1,2,0,22,22,9,,,,,,,,,,,,,,,,,,2,1,0.866383296366,,,,,,PLC_L_D2S1,P18,60.0206881182,02,A,2015_Feb_19_1406,X,
stim/posf.jpg,stim/negf.jpg,stim/2.jpg,stim/5.jpg,stim/latef.jpg,CD,2,4,0,23,23,31,,,,,,,,,,,,,,,,,,4,1,0.849725292291,,,,,,PLC_L_D2S1,P18,60.0206881182,02,A,2015_Feb_19_1406,X,
stim/posf.jpg,stim/negf.jpg,stim/6.jpg,stim/3.jpg,stim/latef.jpg,EF,2,4,0,24,24,51,,,,,,,,,,,,,,,,,,2,0,0.733055913865,,,,,,PLC_L_D2S1,P18,60.0206881182,02,A,2015_Feb_19_1406,X,
stim/negf.jpg,stim/posf.jpg,stim/5.jpg,stim/2.jpg,stim/latef.jpg,CD,1,2,0,25,25,29,,,,,,,,,,,,,,,,,,2,1,0.916396667694,,,,,,PLC_L_D2S1,P18,60.0206881182,02,A,2015_Feb_19_1406,X,
stim/posf.jpg,stim/negf.jpg,stim/2.jpg,stim/5.jpg,stim/latef.jpg,CD,2,4,0,26,26,32,,,,,,,,,,,,,,,,,,4,1,0.949670495711,,,,,,PLC_L_D2S1,P18,60.0206881182,02,A,2015_Feb_19_1406,X,
stim/posf.jpg,stim/negf.jpg,stim/6.jpg,stim/3.jpg,stim/latef.jpg,EF,2,4,0,27,27,53,,,,,,,,,,,,,,,,,,2,0,0.966276145292,,,,,,PLC_L_D2S1,P18,60.0206881182,02,A,2015_Feb_19_1406,X,
stim/negf.jpg,stim/posf.jpg,stim/1.jpg,stim/4.jpg,stim/latef.jpg,AB,2,4,0,28,28,19,,,,,,,,,,,,,,,,,,4,1,0.78307776934,,,,,,PLC_L_D2S1,P18,60.0206881182,02,A,2015_Feb_19_1406,X,
stim/posf.jpg,stim/negf.jpg,stim/2.jpg,stim/5.jpg,stim/latef.jpg,CD,2,4,0,29,29,36,,,,,,,,,,,,,,,,,,4,1,0.64977538214,,,,,,PLC_L_D2S1,P18,60.0206881182,02,A,2015_Feb_19_1406,X,
stim/posf.jpg,stim/negf.jpg,stim/1.jpg,stim/4.jpg,stim/latef.jpg,AB,2,4,0,30,30,12,,,,,,,,,,,,,,,,,,4,1,0.783061519838,,,,,,PLC_L_D2S1,P18,60.0206881182,02,A,2015_Feb_19_1406,X,
stim/posf.jpg,stim/negf.jpg,stim/6.jpg,stim/3.jpg,stim/latef.jpg,EF,2,4,0,31,31,54,,,,,,,,,,,,,,,,,,4,1,0.81642987346,,,,,,PLC_L_D2S1,P18,60.0206881182,02,A,2015_Feb_19_1406,X,
stim/posf.jpg,stim/negf.jpg,stim/5.jpg,stim/2.jpg,stim/latef.jpg,CD,1,2,0,32,32,26,,,,,,,,,,,,,,,,,,2,1,0.733090421877,,,,,,PLC_L_D2S1,P18,60.0206881182,02,A,2015_Feb_19_1406,X,
stim/negf.jpg,stim/posf.jpg,stim/2.jpg,stim/5.jpg,stim/latef.jpg,CD,2,4,0,33,33,38,,,,,,,,,,,,,,,,,,4,1,0.64971453147,,,,,,PLC_L_D2S1,P18,60.0206881182,02,A,2015_Feb_19_1406,X,
stim/posf.jpg,stim/negf.jpg,stim/2.jpg,stim/5.jpg,stim/latef.jpg,CD,2,4,0,34,34,33,,,,,,,,,,,,,,,,,,4,1,0.549808681138,,,,,,PLC_L_D2S1,P18,60.0206881182,02,A,2015_Feb_19_1406,X,
stim/negf.jpg,stim/posf.jpg,stim/1.jpg,stim/4.jpg,stim/latef.jpg,AB,2,4,0,35,35,18,,,,,,,,,,,,,,,,,,4,1,0.78307416636,,,,,,PLC_L_D2S1,P18,60.0206881182,02,A,2015_Feb_19_1406,X,
stim/posf.jpg,stim/negf.jpg,stim/1.jpg,stim/4.jpg,stim/latef.jpg,AB,2,4,0,36,36,14,,,,,,,,,,,,,,,,,,4,1,1.09963897414,,,,,,PLC_L_D2S1,P18,60.0206881182,02,A,2015_Feb_19_1406,X,
stim/negf.jpg,stim/posf.jpg,stim/6.jpg,stim/3.jpg,stim/latef.jpg,EF,2,4,0,37,37,57,,,,,,,,,,,,,,,,,,4,1,0.983013514184,,,,,,PLC_L_D2S1,P18,60.0206881182,02,A,2015_Feb_19_1406,X,
stim/negf.jpg,stim/posf.jpg,stim/6.jpg,stim/3.jpg,stim/latef.jpg,EF,2,4,0,38,38,56,,,,,,,,,,,,,,,,,,2,0,0.56649277825,,,,,,PLC_L_D2S1,P18,60.0206881182,02,A,2015_Feb_19_1406,X,
stim/posf.jpg,stim/negf.jpg,stim/1.jpg,stim/4.jpg,stim/latef.jpg,AB,2,4,0,39,39,10,,,,,,,,,,,,,,,,,,4,1,0.816414778836,,,,,,PLC_L_D2S1,P18,60.0206881182,02,A,2015_Feb_19_1406,X,
stim/posf.jpg,stim/negf.jpg,stim/3.jpg,stim/6.jpg,stim/latef.jpg,EF,1,2,0,40,40,40,,,,,,,,,,,,,,,,,,4,0,0.716424538161,,,,,,PLC_L_D2S1,P18,60.0206881182,02,A,2015_Feb_19_1406,X,
stim/posf.jpg,stim/negf.jpg,stim/5.jpg,stim/2.jpg,stim/latef.jpg,CD,1,2,0,41,41,21,,,,,,,,,,,,,,,,,,2,1,0.83295400185,,,,,,PLC_L_D2S1,P18,60.0206881182,02,A,2015_Feb_19_1406,X,
stim/posf.jpg,stim/negf.jpg,stim/4.jpg,stim/1.jpg,stim/latef.jpg,AB,1,2,0,42,42,1,,,,,,,,,,,,,,,,,,2,1,0.849726988519,,,,,,PLC_L_D2S1,P18,60.0206881182,02,A,2015_Feb_19_1406,X,
stim/posf.jpg,stim/negf.jpg,stim/4.jpg,stim/1.jpg,stim/latef.jpg,AB,1,2,0,43,43,5,,,,,,,,,,,,,,,,,,2,1,0.649808897677,,,,,,PLC_L_D2S1,P18,60.0206881182,02,A,2015_Feb_19_1406,X,
stim/posf.jpg,stim/negf.jpg,stim/4.jpg,stim/1.jpg,stim/latef.jpg,AB,1,2,0,44,44,2,,,,,,,,,,,,,,,,,,2,1,0.616450847738,,,,,,PLC_L_D2S1,P18,60.0206881182,02,A,2015_Feb_19_1406,X,
stim/posf.jpg,stim/negf.jpg,stim/1.jpg,stim/4.jpg,stim/latef.jpg,AB,2,4,0,45,45,16,,,,,,,,,,,,,,,,,,4,1,0.683104647333,,,,,,PLC_L_D2S1,P18,60.0206881182,02,A,2015_Feb_19_1406,X,
stim/posf.jpg,stim/negf.jpg,stim/2.jpg,stim/5.jpg,stim/latef.jpg,CD,2,4,0,46,46,35,,,,,,,,,,,,,,,,,,4,1,0.466526056195,,,,,,PLC_L_D2S1,P18,60.0206881182,02,A,2015_Feb_19_1406,X,
stim/posf.jpg,stim/negf.jpg,stim/5.jpg,stim/2.jpg,stim/latef.jpg,CD,1,2,0,47,47,20,,,,,,,,,,,,,,,,,,2,1,0.933013574334,,,,,,PLC_L_D2S1,P18,60.0206881182,02,A,2015_Feb_19_1406,X,
stim/posf.jpg,stim/negf.jpg,stim/2.jpg,stim/5.jpg,stim/latef.jpg,CD,2,4,0,48,48,34,,,,,,,,,,,,,,,,,,4,1,0.499808524748,,,,,,PLC_L_D2S1,P18,60.0206881182,02,A,2015_Feb_19_1406,X,
stim/posf.jpg,stim/negf.jpg,stim/6.jpg,stim/3.jpg,stim/latef.jpg,EF,2,4,0,49,49,50,,,,,,,,,,,,,,,,,,2,0,0.849666002511,,,,,,PLC_L_D2S1,P18,60.0206881182,02,A,2015_Feb_19_1406,X,
stim/posf.jpg,stim/negf.jpg,stim/3.jpg,stim/6.jpg,stim/latef.jpg,EF,1,2,0,50,50,41,,,,,,,,,,,,,,,,,,2,1,0.749747087616,,,,,,PLC_L_D2S1,P18,60.0206881182,02,A,2015_Feb_19_1406,X,
stim/posf.jpg,stim/negf.jpg,stim/1.jpg,stim/4.jpg,stim/latef.jpg,AB,2,4,0,51,51,15,,,,,,,,,,,,,,,,,,4,1,0.88304998609,,,,,,PLC_L_D2S1,P18,60.0206881182,02,A,2015_Feb_19_1406,X,
stim/posf.jpg,stim/negf.jpg,stim/5.jpg,stim/2.jpg,stim/latef.jpg,CD,1,2,0,52,52,25,,,,,,,,,,,,,,,,,,2,1,0.716427717085,,,,,,PLC_L_D2S1,P18,60.0206881182,02,A,2015_Feb_19_1406,X,
stim/posf.jpg,stim/negf.jpg,stim/5.jpg,stim/2.jpg,stim/latef.jpg,CD,1,2,0,53,53,24,,,,,,,,,,,,,,,,,,2,1,0.866363922076,,,,,,PLC_L_D2S1,P18,60.0206881182,02,A,2015_Feb_19_1406,X,
stim/posf.jpg,stim/negf.jpg,stim/3.jpg,stim/6.jpg,stim/latef.jpg,EF,1,2,0,54,54,42,,,,,,,,,,,,,,,,,,2,1,0.833054891317,,,,,,PLC_L_D2S1,P18,60.0206881182,02,A,2015_Feb_19_1406,X,
stim/posf.jpg,stim/negf.jpg,stim/3.jpg,stim/6.jpg,stim/latef.jpg,EF,1,2,0,55,55,45,,,,,,,,,,,,,,,,,,2,1,0.666447843249,,,,,,PLC_L_D2S1,P18,60.0206881182,02,A,2015_Feb_19_1406,X,
stim/posf.jpg,stim/negf.jpg,stim/4.jpg,stim/1.jpg,stim/latef.jpg,AB,1,2,0,56,56,3,,,,,,,,,,,,,,,,,,2,1,0.732999499252,,,,,,PLC_L_D2S1,P18,60.0206881182,02,A,2015_Feb_19_1406,X,
stim/negf.jpg,stim/posf.jpg,stim/5.jpg,stim/2.jpg,stim/latef.jpg,CD,1,2,0,57,57,27,,,,,,,,,,,,,,,,,,2,1,0.783009820979,,,,,,PLC_L_D2S1,P18,60.0206881182,02,A,2015_Feb_19_1406,X,
stim/negf.jpg,stim/posf.jpg,stim/2.jpg,stim/5.jpg,stim/latef.jpg,CD,2,4,0,58,58,37,,,,,,,,,,,,,,,,,,4,1,0.533136150856,,,,,,PLC_L_D2S1,P18,60.0206881182,02,A,2015_Feb_19_1406,X,
stim/negf.jpg,stim/posf.jpg,stim/3.jpg,stim/6.jpg,stim/latef.jpg,EF,1,2,0,59,59,46,,,,,,,,,,,,,,,,,,2,1,0.816420090075,,,,,,PLC_L_D2S1,P18,60.0206881182,02,A,2015_Feb_19_1406,X,
,,,,,,,,,,,,,,,,,,,,,,,,,,,,,,,,0.9984375,1.0,1,0,0,PLC_L_D2S1,P18,60.0206881182,02,A,2015_Feb_19_1406,X,
stim/negf.jpg,stim/posf.jpg,stim/2.jpg,stim/5.jpg,stim/latef.jpg,CD,2,4,,,,,0,0,0,37,,,,,,,,,,,,,,4,1,0.81638387982,,,,,,PLC_L_D2S1,P18,60.0206881182,02,A,2015_Feb_19_1406,X,
stim/posf.jpg,stim/negf.jpg,stim/1.jpg,stim/4.jpg,stim/latef.jpg,AB,2,4,,,,,0,1,1,13,,,,,,,,,,,,,,2,0,0.599826557695,,,,,,PLC_L_D2S1,P18,60.0206881182,02,A,2015_Feb_19_1406,X,
stim/posf.jpg,stim/negf.jpg,stim/1.jpg,stim/4.jpg,stim/latef.jpg,AB,2,4,,,,,0,2,2,17,,,,,,,,,,,,,,4,1,0.483175546048,,,,,,PLC_L_D2S1,P18,60.0206881182,02,A,2015_Feb_19_1406,X,
stim/negf.jpg,stim/posf.jpg,stim/6.jpg,stim/3.jpg,stim/latef.jpg,EF,2,4,,,,,0,3,3,56,,,,,,,,,,,,,,4,1,0.883067378441,,,,,,PLC_L_D2S1,P18,60.0206881182,02,A,2015_Feb_19_1406,X,
stim/posf.jpg,stim/negf.jpg,stim/6.jpg,stim/3.jpg,stim/latef.jpg,EF,2,4,,,,,0,4,4,50,,,,,,,,,,,,,,4,1,0.516417792347,,,,,,PLC_L_D2S1,P18,60.0206881182,02,A,2015_Feb_19_1406,X,
stim/posf.jpg,stim/negf.jpg,stim/4.jpg,stim/1.jpg,stim/latef.jpg,AB,1,2,,,,,0,5,5,7,,,,,,,,,,,,,,2,1,0.699754052977,,,,,,PLC_L_D2S1,P18,60.0206881182,02,A,2015_Feb_19_1406,X,
stim/negf.jpg,stim/posf.jpg,stim/5.jpg,stim/2.jpg,stim/latef.jpg,CD,1,2,,,,,0,6,6,28,,,,,,,,,,,,,,2,1,0.966337474154,,,,,,PLC_L_D2S1,P18,60.0206881182,02,A,2015_Feb_19_1406,X,
stim/negf.jpg,stim/posf.jpg,stim/2.jpg,stim/5.jpg,stim/latef.jpg,CD,2,4,,,,,0,7,7,38,,,,,,,,,,,,,,4,1,0.533138114751,,,,,,PLC_L_D2S1,P18,60.0206881182,02,A,2015_Feb_19_1406,X,
stim/posf.jpg,stim/negf.jpg,stim/2.jpg,stim/5.jpg,stim/latef.jpg,CD,2,4,,,,,0,8,8,36,,,,,,,,,,,,,,4,1,0.466517788588,,,,,,PLC_L_D2S1,P18,60.0206881182,02,A,2015_Feb_19_1406,X,
stim/posf.jpg,stim/negf.jpg,stim/6.jpg,stim/3.jpg,stim/latef.jpg,EF,2,4,,,,,0,9,9,52,,,,,,,,,,,,,,4,1,1.21626591379,,,,,,PLC_L_D2S1,P18,60.0206881182,02,A,2015_Feb_19_1406,X,
stim/negf.jpg,stim/posf.jpg,stim/3.jpg,stim/6.jpg,stim/latef.jpg,EF,1,2,,,,,0,10,10,48,,,,,,,,,,,,,,2,1,0.699752666521,,,,,,PLC_L_D2S1,P18,60.0206881182,02,A,2015_Feb_19_1406,X,
stim/negf.jpg,stim/posf.jpg,stim/1.jpg,stim/4.jpg,stim/latef.jpg,AB,2,4,,,,,0,11,11,18,,,,,,,,,,,,,,4,1,0.799701403749,,,,,,PLC_L_D2S1,P18,60.0206881182,02,A,2015_Feb_19_1406,X,
stim/posf.jpg,stim/negf.jpg,stim/4.jpg,stim/1.jpg,stim/latef.jpg,AB,1,2,,,,,0,12,12,3,,,,,,,,,,,,,,2,1,0.533111844272,,,,,,PLC_L_D2S1,P18,60.0206881182,02,A,2015_Feb_19_1406,X,
stim/posf.jpg,stim/negf.jpg,stim/5.jpg,stim/2.jpg,stim/latef.jpg,CD,1,2,,,,,0,13,13,23,,,,,,,,,,,,,,2,1,0.816400932324,,,,,,PLC_L_D2S1,P18,60.0206881182,02,A,2015_Feb_19_1406,X,
stim/posf.jpg,stim/negf.jpg,stim/1.jpg,stim/4.jpg,stim/latef.jpg,AB,2,4,,,,,0,14,14,10,,,,,,,,,,,,,,4,1,0.533129765942,,,,,,PLC_L_D2S1,P18,60.0206881182,02,A,2015_Feb_19_1406,X,
stim/posf.jpg,stim/negf.jpg,stim/4.jpg,stim/1.jpg,stim/latef.jpg,AB,1,2,,,,,0,15,15,4,,,,,,,,,,,,,,2,1,0.566448480839,,,,,,PLC_L_D2S1,P18,60.0206881182,02,A,2015_Feb_19_1406,X,
stim/negf.jpg,stim/posf.jpg,stim/3.jpg,stim/6.jpg,stim/latef.jpg,EF,1,2,,,,,0,16,16,49,,,,,,,,,,,,,,2,1,0.816355191314,,,,,,PLC_L_D2S1,P18,60.0206881182,02,A,2015_Feb_19_1406,X,
stim/posf.jpg,stim/negf.jpg,stim/3.jpg,stim/6.jpg,stim/latef.jpg,EF,1,2,,,,,0,17,17,42,,,,,,,,,,,,,,4,0,0.43318040917,,,,,,PLC_L_D2S1,P18,60.0206881182,02,A,2015_Feb_19_1406,X,
stim/posf.jpg,stim/negf.jpg,stim/4.jpg,stim/1.jpg,stim/latef.jpg,AB,1,2,,,,,0,18,18,0,,,,,,,,,,,,,,2,1,0.566493478996,,,,,,PLC_L_D2S1,P18,60.0206881182,02,A,2015_Feb_19_1406,X,
stim/negf.jpg,stim/posf.jpg,stim/4.jpg,stim/1.jpg,stim/latef.jpg,AB,1,2,,,,,0,19,19,8,,,,,,,,,,,,,,2,1,0.499821748709,,,,,,PLC_L_D2S1,P18,60.0206881182,02,A,2015_Feb_19_1406,X,
stim/posf.jpg,stim/negf.jpg,stim/6.jpg,stim/3.jpg,stim/latef.jpg,EF,2,4,,,,,0,20,20,55,,,,,,,,,,,,,,2,0,0.567477498665,,,,,,PLC_L_D2S1,P18,60.0206881182,02,A,2015_Feb_19_1406,X,
stim/posf.jpg,stim/negf.jpg,stim/2.jpg,stim/5.jpg,stim/latef.jpg,CD,2,4,,,,,0,21,21,34,,,,,,,,,,,,,,2,0,0.766412733739,,,,,,PLC_L_D2S1,P18,60.0206881182,02,A,2015_Feb_19_1406,X,
stim/posf.jpg,stim/negf.jpg,stim/5.jpg,stim/2.jpg,stim/latef.jpg,CD,1,2,,,,,0,22,22,26,,,,,,,,,,,,,,2,1,0.833037279419,,,,,,PLC_L_D2S1,P18,60.0206881182,02,A,2015_Feb_19_1406,X,
stim/posf.jpg,stim/negf.jpg,stim/5.jpg,stim/2.jpg,stim/latef.jpg,CD,1,2,,,,,0,23,23,21,,,,,,,,,,,,,,2,1,0.616456261231,,,,,,PLC_L_D2S1,P18,60.0206881182,02,A,2015_Feb_19_1406,X,
stim/posf.jpg,stim/negf.jpg,stim/2.jpg,stim/5.jpg,stim/latef.jpg,CD,2,4,,,,,0,24,24,30,,,,,,,,,,,,,,4,1,0.583129753912,,,,,,PLC_L_D2S1,P18,60.0206881182,02,A,2015_Feb_19_1406,X,
stim/posf.jpg,stim/negf.jpg,stim/2.jpg,stim/5.jpg,stim/latef.jpg,CD,2,4,,,,,0,25,25,35,,,,,,,,,,,,,,4,1,0.499769249855,,,,,,PLC_L_D2S1,P18,60.0206881182,02,A,2015_Feb_19_1406,X,
stim/posf.jpg,stim/negf.jpg,stim/6.jpg,stim/3.jpg,stim/latef.jpg,EF,2,4,,,,,0,26,26,54,,,,,,,,,,,,,,2,0,1.46618749633,,,,,,PLC_L_D2S1,P18,60.0206881182,02,A,2015_Feb_19_1406,X,
stim/posf.jpg,stim/negf.jpg,stim/4.jpg,stim/1.jpg,stim/latef.jpg,AB,1,2,,,,,0,27,27,5,,,,,,,,,,,,,,2,1,0.633114277336,,,,,,PLC_L_D2S1,P18,60.0206881182,02,A,2015_Feb_19_1406,X,
stim/posf.jpg,stim/negf.jpg,stim/3.jpg,stim/6.jpg,stim/latef.jpg,EF,1,2,,,,,0,28,28,44,,,,,,,,,,,,,,2,1,0.583106487921,,,,,,PLC_L_D2S1,P18,60.0206881182,02,A,2015_Feb_19_1406,X,
stim/negf.jpg,stim/posf.jpg,stim/6.jpg,stim/3.jpg,stim/latef.jpg,EF,2,4,,,,,0,29,29,59,,,,,,,,,,,,,,4,1,0.633028049413,,,,,,PLC_L_D2S1,P18,60.0206881182,02,A,2015_Feb_19_1406,X,
stim/posf.jpg,stim/negf.jpg,stim/1.jpg,stim/4.jpg,stim/latef.jpg,AB,2,4,,,,,0,30,30,15,,,,,,,,,,,,,,4,1,0.883038771137,,,,,,PLC_L_D2S1,P18,60.0206881182,02,A,2015_Feb_19_1406,X,
stim/negf.jpg,stim/posf.jpg,stim/3.jpg,stim/6.jpg,stim/latef.jpg,EF,1,2,,,,,0,31,31,47,,,,,,,,,,,,,,2,1,0.766413106668,,,,,,PLC_L_D2S1,P18,60.0206881182,02,A,2015_Feb_19_1406,X,
stim/posf.jpg,stim/negf.jpg,stim/5.jpg,stim/2.jpg,stim/latef.jpg,CD,1,2,,,,,0,32,32,22,,,,,,,,,,,,,,2,1,0.61641415027,,,,,,PLC_L_D2S1,P18,60.0206881182,02,A,2015_Feb_19_1406,X,
stim/negf.jpg,stim/posf.jpg,stim/6.jpg,stim/3.jpg,stim/latef.jpg,EF,2,4,,,,,0,33,33,58,,,,,,,,,,,,,,4,1,1.14963292607,,,,,,PLC_L_D2S1,P18,60.0206881182,02,A,2015_Feb_19_1406,X,
stim/posf.jpg,stim/negf.jpg,stim/3.jpg,stim/6.jpg,stim/latef.jpg,EF,1,2,,,,,0,34,34,43,,,,,,,,,,,,,,4,0,0.733136204991,,,,,,PLC_L_D2S1,P18,60.0206881182,02,A,2015_Feb_19_1406,X,
stim/posf.jpg,stim/negf.jpg,stim/4.jpg,stim/1.jpg,stim/latef.jpg,AB,1,2,,,,,0,35,35,6,,,,,,,,,,,,,,2,1,0.56647521748,,,,,,PLC_L_D2S1,P18,60.0206881182,02,A,2015_Feb_19_1406,X,
stim/posf.jpg,stim/negf.jpg,stim/6.jpg,stim/3.jpg,stim/latef.jpg,EF,2,4,,,,,0,36,36,51,,,,,,,,,,,,,,2,0,0.633108220239,,,,,,PLC_L_D2S1,P18,60.0206881182,02,A,2015_Feb_19_1406,X,
stim/negf.jpg,stim/posf.jpg,stim/5.jpg,stim/2.jpg,stim/latef.jpg,CD,1,2,,,,,0,37,37,27,,,,,,,,,,,,,,2,1,0.783067396486,,,,,,PLC_L_D2S1,P18,60.0206881182,02,A,2015_Feb_19_1406,X,
stim/negf.jpg,stim/posf.jpg,stim/1.jpg,stim/4.jpg,stim/latef.jpg,AB,2,4,,,,,0,38,38,19,,,,,,,,,,,,,,4,1,0.599813460049,,,,,,PLC_L_D2S1,P18,60.0206881182,02,A,2015_Feb_19_1406,X,
stim/posf.jpg,stim/negf.jpg,stim/1.jpg,stim/4.jpg,stim/latef.jpg,AB,2,4,,,,,0,39,39,16,,,,,,,,,,,,,,4,1,0.599785788077,,,,,,PLC_L_D2S1,P18,60.0206881182,02,A,2015_Feb_19_1406,X,
stim/negf.jpg,stim/posf.jpg,stim/3.jpg,stim/6.jpg,stim/latef.jpg,EF,1,2,,,,,0,40,40,46,,,,,,,,,,,,,,2,1,0.999673867114,,,,,,PLC_L_D2S1,P18,60.0206881182,02,A,2015_Feb_19_1406,X,
stim/posf.jpg,stim/negf.jpg,stim/1.jpg,stim/4.jpg,stim/latef.jpg,AB,2,4,,,,,0,41,41,12,,,,,,,,,,,,,,4,1,0.649778052797,,,,,,PLC_L_D2S1,P18,60.0206881182,02,A,2015_Feb_19_1406,X,
stim/posf.jpg,stim/negf.jpg,stim/2.jpg,stim/5.jpg,stim/latef.jpg,CD,2,4,,,,,0,42,42,31,,,,,,,,,,,,,,4,1,0.816401311268,,,,,,PLC_L_D2S1,P18,60.0206881182,02,A,2015_Feb_19_1406,X,
stim/posf.jpg,stim/negf.jpg,stim/3.jpg,stim/6.jpg,stim/latef.jpg,EF,1,2,,,,,0,43,43,40,,,,,,,,,,,,,,2,1,0.749748233472,,,,,,PLC_L_D2S1,P18,60.0206881182,02,A,2015_Feb_19_1406,X,
stim/posf.jpg,stim/negf.jpg,stim/5.jpg,stim/2.jpg,stim/latef.jpg,CD,1,2,,,,,0,44,44,20,,,,,,,,,,,,,,2,1,0.683121414125,,,,,,PLC_L_D2S1,P18,60.0206881182,02,A,2015_Feb_19_1406,X,
stim/posf.jpg,stim/negf.jpg,stim/5.jpg,stim/2.jpg,stim/latef.jpg,CD,1,2,,,,,0,45,45,25,,,,,,,,,,,,,,2,1,0.716432508026,,,,,,PLC_L_D2S1,P18,60.0206881182,02,A,2015_Feb_19_1406,X,
stim/negf.jpg,stim/posf.jpg,stim/6.jpg,stim/3.jpg,stim/latef.jpg,EF,2,4,,,,,0,46,46,57,,,,,,,,,,,,,,4,1,1.08294561094,,,,,,PLC_L_D2S1,P18,60.0206881182,02,A,2015_Feb_19_1406,X,
stim/posf.jpg,stim/negf.jpg,stim/1.jpg,stim/4.jpg,stim/latef.jpg,AB,2,4,,,,,0,47,47,14,,,,,,,,,,,,,,4,1,0.799738420012,,,,,,PLC_L_D2S1,P18,60.0206881182,02,A,2015_Feb_19_1406,X,
stim/posf.jpg,stim/negf.jpg,stim/2.jpg,stim/5.jpg,stim/latef.jpg,CD,2,4,,,,,0,48,48,33,,,,,,,,,,,,,,4,1,0.733141880136,,,,,,PLC_L_D2S1,P18,60.0206881182,02,A,2015_Feb_19_1406,X,
stim/posf.jpg,stim/negf.jpg,stim/3.jpg,stim/6.jpg,stim/latef.jpg,EF,1,2,,,,,0,49,49,45,,,,,,,,,,,,,,2,1,0.749759944662,,,,,,PLC_L_D2S1,P18,60.0206881182,02,A,2015_Feb_19_1406,X,
stim/posf.jpg,stim/negf.jpg,stim/2.jpg,stim/5.jpg,stim/latef.jpg,CD,2,4,,,,,0,50,50,32,,,,,,,,,,,,,,4,1,0.549829953158,,,,,,PLC_L_D2S1,P18,60.0206881182,02,A,2015_Feb_19_1406,X,
stim/posf.jpg,stim/negf.jpg,stim/5.jpg,stim/2.jpg,stim/latef.jpg,CD,1,2,,,,,0,51,51,24,,,,,,,,,,,,,,2,1,0.58316067398,,,,,,PLC_L_D2S1,P18,60.0206881182,02,A,2015_Feb_19_1406,X,
stim/posf.jpg,stim/negf.jpg,stim/1.jpg,stim/4.jpg,stim/latef.jpg,AB,2,4,,,,,0,52,52,11,,,,,,,,,,,,,,4,1,0.549833643356,,,,,,PLC_L_D2S1,P18,60.0206881182,02,A,2015_Feb_19_1406,X,
stim/posf.jpg,stim/negf.jpg,stim/6.jpg,stim/3.jpg,stim/latef.jpg,EF,2,4,,,,,0,53,53,53,,,,,,,,,,,,,,2,0,0.749748107157,,,,,,PLC_L_D2S1,P18,60.0206881182,02,A,2015_Feb_19_1406,X,
stim/negf.jpg,stim/posf.jpg,stim/2.jpg,stim/5.jpg,stim/latef.jpg,CD,2,4,,,,,0,54,54,39,,,,,,,,,,,,,,4,1,0.633116496869,,,,,,PLC_L_D2S1,P18,60.0206881182,02,A,2015_Feb_19_1406,X,
stim/posf.jpg,stim/negf.jpg,stim/4.jpg,stim/1.jpg,stim/latef.jpg,AB,1,2,,,,,0,55,55,1,,,,,,,,,,,,,,2,1,0.566482408403,,,,,,PLC_L_D2S1,P18,60.0206881182,02,A,2015_Feb_19_1406,X,
stim/posf.jpg,stim/negf.jpg,stim/3.jpg,stim/6.jpg,stim/latef.jpg,EF,1,2,,,,,0,56,56,41,,,,,,,,,,,,,,4,0,0.847745818452,,,,,,PLC_L_D2S1,P18,60.0206881182,02,A,2015_Feb_19_1406,X,
stim/negf.jpg,stim/posf.jpg,stim/4.jpg,stim/1.jpg,stim/latef.jpg,AB,1,2,,,,,0,57,57,9,,,,,,,,,,,,,,2,1,0.599817634454,,,,,,PLC_L_D2S1,P18,60.0206881182,02,A,2015_Feb_19_1406,X,
stim/posf.jpg,stim/negf.jpg,stim/4.jpg,stim/1.jpg,stim/latef.jpg,AB,1,2,,,,,0,58,58,2,,,,,,,,,,,,,,2,1,0.683099913535,,,,,,PLC_L_D2S1,P18,60.0206881182,02,A,2015_Feb_19_1406,X,
stim/negf.jpg,stim/posf.jpg,stim/5.jpg,stim/2.jpg,stim/latef.jpg,CD,1,2,,,,,0,59,59,29,,,,,,,,,,,,,,2,1,0.849687578289,,,,,,PLC_L_D2S1,P18,60.0206881182,02,A,2015_Feb_19_1406,X,
,,,,,,,,,,,,,,,,,,,,,,,,,,,,,,,,0.9984375,1.0,1,0,0,PLC_L_D2S1,P18,60.0206881182,02,A,2015_Feb_19_1406,X,
stim/posf.jpg,stim/negf.jpg,stim/1.jpg,stim/4.jpg,stim/latef.jpg,AB,2,4,,,,,,,,,0,0,0,17,,,,,,,,,,4,1,0.749772028782,,,,,,PLC_L_D2S1,P18,60.0206881182,02,A,2015_Feb_19_1406,X,
stim/posf.jpg,stim/negf.jpg,stim/5.jpg,stim/2.jpg,stim/latef.jpg,CD,1,2,,,,,,,,,0,1,1,20,,,,,,,,,,2,1,0.783077080624,,,,,,PLC_L_D2S1,P18,60.0206881182,02,A,2015_Feb_19_1406,X,
stim/negf.jpg,stim/posf.jpg,stim/5.jpg,stim/2.jpg,stim/latef.jpg,CD,1,2,,,,,,,,,0,2,2,29,,,,,,,,,,2,1,0.616476667093,,,,,,PLC_L_D2S1,P18,60.0206881182,02,A,2015_Feb_19_1406,X,
stim/posf.jpg,stim/negf.jpg,stim/3.jpg,stim/6.jpg,stim/latef.jpg,EF,1,2,,,,,,,,,0,3,3,43,,,,,,,,,,2,1,0.949689803836,,,,,,PLC_L_D2S1,P18,60.0206881182,02,A,2015_Feb_19_1406,X,
stim/posf.jpg,stim/negf.jpg,stim/5.jpg,stim/2.jpg,stim/latef.jpg,CD,1,2,,,,,,,,,0,4,4,25,,,,,,,,,,2,1,0.633079856542,,,,,,PLC_L_D2S1,P18,60.0206881182,02,A,2015_Feb_19_1406,X,
stim/posf.jpg,stim/negf.jpg,stim/4.jpg,stim/1.jpg,stim/latef.jpg,AB,1,2,,,,,,,,,0,5,5,6,,,,,,,,,,2,1,0.566548618432,,,,,,PLC_L_D2S1,P18,60.0206881182,02,A,2015_Feb_19_1406,X,
stim/posf.jpg,stim/negf.jpg,stim/5.jpg,stim/2.jpg,stim/latef.jpg,CD,1,2,,,,,,,,,0,6,6,26,,,,,,,,,,2,1,0.583055486801,,,,,,PLC_L_D2S1,P18,60.0206881182,02,A,2015_Feb_19_1406,X,
stim/negf.jpg,stim/posf.jpg,stim/5.jpg,stim/2.jpg,stim/latef.jpg,CD,1,2,,,,,,,,,0,7,7,28,,,,,,,,,,2,1,0.549819712634,,,,,,PLC_L_D2S1,P18,60.0206881182,02,A,2015_Feb_19_1406,X,
stim/negf.jpg,stim/posf.jpg,stim/2.jpg,stim/5.jpg,stim/latef.jpg,CD,2,4,,,,,,,,,0,8,8,37,,,,,,,,,,4,1,0.899694450418,,,,,,PLC_L_D2S1,P18,60.0206881182,02,A,2015_Feb_19_1406,X,
stim/negf.jpg,stim/posf.jpg,stim/2.jpg,stim/5.jpg,stim/latef.jpg,CD,2,4,,,,,,,,,0,9,9,38,,,,,,,,,,4,1,0.616471611492,,,,,,PLC_L_D2S1,P18,60.0206881182,02,A,2015_Feb_19_1406,X,
stim/posf.jpg,stim/negf.jpg,stim/1.jpg,stim/4.jpg,stim/latef.jpg,AB,2,4,,,,,,,,,0,10,10,14,,,,,,,,,,4,1,0.68308799182,,,,,,PLC_L_D2S1,P18,60.0206881182,02,A,2015_Feb_19_1406,X,
stim/posf.jpg,stim/negf.jpg,stim/1.jpg,stim/4.jpg,stim/latef.jpg,AB,2,4,,,,,,,,,0,11,11,15,,,,,,,,,,4,1,0.633120102856,,,,,,PLC_L_D2S1,P18,60.0206881182,02,A,2015_Feb_19_1406,X,
stim/posf.jpg,stim/negf.jpg,stim/3.jpg,stim/6.jpg,stim/latef.jpg,EF,1,2,,,,,,,,,0,12,12,45,,,,,,,,,,2,1,0.866427271975,,,,,,PLC_L_D2S1,P18,60.0206881182,02,A,2015_Feb_19_1406,X,
stim/negf.jpg,stim/posf.jpg,stim/5.jpg,stim/2.jpg,stim/latef.jpg,CD,1,2,,,,,,,,,0,13,13,27,,,,,,,,,,2,1,0.699700351125,,,,,,PLC_L_D2S1,P18,60.0206881182,02,A,2015_Feb_19_1406,X,
stim/posf.jpg,stim/negf.jpg,stim/2.jpg,stim/5.jpg,stim/latef.jpg,CD,2,4,,,,,,,,,0,14,14,30,,,,,,,,,,2,0,0.71643153059,,,,,,PLC_L_D2S1,P18,60.0206881182,02,A,2015_Feb_19_1406,X,
stim/negf.jpg,stim/posf.jpg,stim/4.jpg,stim/1.jpg,stim/latef.jpg,AB,1,2,,,,,,,,,0,15,15,8,,,,,,,,,,2,1,0.699776900926,,,,,,PLC_L_D2S1,P18,60.0206881182,02,A,2015_Feb_19_1406,X,
stim/posf.jpg,stim/negf.jpg,stim/5.jpg,stim/2.jpg,stim/latef.jpg,CD,1,2,,,,,,,,,0,16,16,21,,,,,,,,,,2,1,0.999688892565,,,,,,PLC_L_D2S1,P18,60.0206881182,02,A,2015_Feb_19_1406,X,
stim/negf.jpg,stim/posf.jpg,stim/1.jpg,stim/4.jpg,stim/latef.jpg,AB,2,4,,,,,,,,,0,17,17,19,,,,,,,,,,4,1,0.716415329208,,,,,,PLC_L_D2S1,P18,60.0206881182,02,A,2015_Feb_19_1406,X,
stim/negf.jpg,stim/posf.jpg,stim/3.jpg,stim/6.jpg,stim/latef.jpg,EF,1,2,,,,,,,,,0,18,18,47,,,,,,,,,,2,1,0.733095700032,,,,,,PLC_L_D2S1,P18,60.0206881182,02,A,2015_Feb_19_1406,X,
stim/posf.jpg,stim/negf.jpg,stim/1.jpg,stim/4.jpg,stim/latef.jpg,AB,2,4,,,,,,,,,0,19,19,16,,,,,,,,,,4,1,0.566507039797,,,,,,PLC_L_D2S1,P18,60.0206881182,02,A,2015_Feb_19_1406,X,
stim/posf.jpg,stim/negf.jpg,stim/4.jpg,stim/1.jpg,stim/latef.jpg,AB,1,2,,,,,,,,,0,20,20,7,,,,,,,,,,2,1,0.566436020782,,,,,,PLC_L_D2S1,P18,60.0206881182,02,A,2015_Feb_19_1406,X,
stim/posf.jpg,stim/negf.jpg,stim/1.jpg,stim/4.jpg,stim/latef.jpg,AB,2,4,,,,,,,,,0,21,21,10,,,,,,,,,,4,1,0.549770338569,,,,,,PLC_L_D2S1,P18,60.0206881182,02,A,2015_Feb_19_1406,X,
stim/posf.jpg,stim/negf.jpg,stim/6.jpg,stim/3.jpg,stim/latef.jpg,EF,2,4,,,,,,,,,0,22,22,52,,,,,,,,,,2,0,0.949700450373,,,,,,PLC_L_D2S1,P18,60.0206881182,02,A,2015_Feb_19_1406,X,
stim/posf.jpg,stim/negf.jpg,stim/6.jpg,stim/3.jpg,stim/latef.jpg,EF,2,4,,,,,,,,,0,23,23,51,,,,,,,,,,4,1,0.499862810054,,,,,,PLC_L_D2S1,P18,60.0206881182,02,A,2015_Feb_19_1406,X,
stim/posf.jpg,stim/negf.jpg,stim/4.jpg,stim/1.jpg,stim/latef.jpg,AB,1,2,,,,,,,,,0,24,24,0,,,,,,,,,,2,1,0.566470913752,,,,,,PLC_L_D2S1,P18,60.0206881182,02,A,2015_Feb_19_1406,X,
stim/posf.jpg,stim/negf.jpg,stim/3.jpg,stim/6.jpg,stim/latef.jpg,EF,1,2,,,,,,,,,0,25,25,44,,,,,,,,,,2,1,1.14961319389,,,,,,PLC_L_D2S1,P18,60.0206881182,02,A,2015_Feb_19_1406,X,
stim/posf.jpg,stim/negf.jpg,stim/6.jpg,stim/3.jpg,stim/latef.jpg,EF,2,4,,,,,,,,,0,26,26,54,,,,,,,,,,4,1,0.783074834024,,,,,,PLC_L_D2S1,P18,60.0206881182,02,A,2015_Feb_19_1406,X,
stim/posf.jpg,stim/negf.jpg,stim/3.jpg,stim/6.jpg,stim/latef.jpg,EF,1,2,,,,,,,,,0,27,27,40,,,,,,,,,,2,1,0.499829947143,,,,,,PLC_L_D2S1,P18,60.0206881182,02,A,2015_Feb_19_1406,X,
stim/negf.jpg,stim/posf.jpg,stim/3.jpg,stim/6.jpg,stim/latef.jpg,EF,1,2,,,,,,,,,0,28,28,49,,,,,,,,,,2,1,0.48318778355,,,,,,PLC_L_D2S1,P18,60.0206881182,02,A,2015_Feb_19_1406,X,
stim/negf.jpg,stim/posf.jpg,stim/6.jpg,stim/3.jpg,stim/latef.jpg,EF,2,4,,,,,,,,,0,29,29,57,,,,,,,,,,4,1,0.583138839557,,,,,,PLC_L_D2S1,P18,60.0206881182,02,A,2015_Feb_19_1406,X,
stim/posf.jpg,stim/negf.jpg,stim/2.jpg,stim/5.jpg,stim/latef.jpg,CD,2,4,,,,,,,,,0,30,30,33,,,,,,,,,,4,1,0.866395308306,,,,,,PLC_L_D2S1,P18,60.0206881182,02,A,2015_Feb_19_1406,X,
stim/posf.jpg,stim/negf.jpg,stim/4.jpg,stim/1.jpg,stim/latef.jpg,AB,1,2,,,,,,,,,0,31,31,3,,,,,,,,,,2,1,0.599835835821,,,,,,PLC_L_D2S1,P18,60.0206881182,02,A,2015_Feb_19_1406,X,
stim/posf.jpg,stim/negf.jpg,stim/6.jpg,stim/3.jpg,stim/latef.jpg,EF,2,4,,,,,,,,,0,32,32,53,,,,,,,,,,2,0,1.11628986248,,,,,,PLC_L_D2S1,P18,60.0206881182,02,A,2015_Feb_19_1406,X,
stim/posf.jpg,stim/negf.jpg,stim/5.jpg,stim/2.jpg,stim/latef.jpg,CD,1,2,,,,,,,,,0,33,33,24,,,,,,,,,,2,1,0.816407251073,,,,,,PLC_L_D2S1,P18,60.0206881182,02,A,2015_Feb_19_1406,X,
stim/negf.jpg,stim/posf.jpg,stim/1.jpg,stim/4.jpg,stim/latef.jpg,AB,2,4,,,,,,,,,0,34,34,18,,,,,,,,,,4,1,0.583164598763,,,,,,PLC_L_D2S1,P18,60.0206881182,02,A,2015_Feb_19_1406,X,
stim/posf.jpg,stim/negf.jpg,stim/1.jpg,stim/4.jpg,stim/latef.jpg,AB,2,4,,,,,,,,,0,35,35,11,,,,,,,,,,4,1,0.499793033135,,,,,,PLC_L_D2S1,P18,60.0206881182,02,A,2015_Feb_19_1406,X,
stim/posf.jpg,stim/negf.jpg,stim/5.jpg,stim/2.jpg,stim/latef.jpg,CD,1,2,,,,,,,,,0,36,36,23,,,,,,,,,,4,0,0.533175296426,,,,,,PLC_L_D2S1,P18,60.0206881182,02,A,2015_Feb_19_1406,X,
stim/negf.jpg,stim/posf.jpg,stim/3.jpg,stim/6.jpg,stim/latef.jpg,EF,1,2,,,,,,,,,0,37,37,48,,,,,,,,,,2,1,0.949684829437,,,,,,PLC_L_D2S1,P18,60.0206881182,02,A,2015_Feb_19_1406,X,
stim/posf.jpg,stim/negf.jpg,stim/2.jpg,stim/5.jpg,stim/latef.jpg,CD,2,4,,,,,,,,,0,38,38,36,,,,,,,,,,4,1,0.716430868941,,,,,,PLC_L_D2S1,P18,60.0206881182,02,A,2015_Feb_19_1406,X,
stim/posf.jpg,stim/negf.jpg,stim/6.jpg,stim/3.jpg,stim/latef.jpg,EF,2,4,,,,,,,,,0,39,39,50,,,,,,,,,,4,1,0.866349747746,,,,,,PLC_L_D2S1,P18,60.0206881182,02,A,2015_Feb_19_1406,X,
stim/posf.jpg,stim/negf.jpg,stim/4.jpg,stim/1.jpg,stim/latef.jpg,AB,1,2,,,,,,,,,0,40,40,1,,,,,,,,,,2,1,0.616457951444,,,,,,PLC_L_D2S1,P18,60.0206881182,02,A,2015_Feb_19_1406,X,
stim/negf.jpg,stim/posf.jpg,stim/6.jpg,stim/3.jpg,stim/latef.jpg,EF,2,4,,,,,,,,,0,41,41,59,,,,,,,,,,2,0,0.733027444906,,,,,,PLC_L_D2S1,P18,60.0206881182,02,A,2015_Feb_19_1406,X,
stim/posf.jpg,stim/negf.jpg,stim/1.jpg,stim/4.jpg,stim/latef.jpg,AB,2,4,,,,,,,,,0,42,42,12,,,,,,,,,,4,1,0.833056656717,,,,,,PLC_L_D2S1,P18,60.0206881182,02,A,2015_Feb_19_1406,X,
stim/posf.jpg,stim/negf.jpg,stim/2.jpg,stim/5.jpg,stim/latef.jpg,CD,2,4,,,,,,,,,0,43,43,35,,,,,,,,,,4,1,0.849727256186,,,,,,PLC_L_D2S1,P18,60.0206881182,02,A,2015_Feb_19_1406,X,
stim/negf.jpg,stim/posf.jpg,stim/6.jpg,stim/3.jpg,stim/latef.jpg,EF,2,4,,,,,,,,,0,44,44,56,,,,,,,,,,4,1,0.899696504538,,,,,,PLC_L_D2S1,P18,60.0206881182,02,A,2015_Feb_19_1406,X,
stim/posf.jpg,stim/negf.jpg,stim/3.jpg,stim/6.jpg,stim/latef.jpg,EF,1,2,,,,,,,,,0,45,45,42,,,,,,,,,,None,0,,,,,,,PLC_L_D2S1,P18,60.0206881182,02,A,2015_Feb_19_1406,X,
stim/posf.jpg,stim/negf.jpg,stim/4.jpg,stim/1.jpg,stim/latef.jpg,AB,1,2,,,,,,,,,0,46,46,4,,,,,,,,,,2,1,0.649800203006,,,,,,PLC_L_D2S1,P18,60.0206881182,02,A,2015_Feb_19_1406,X,
stim/posf.jpg,stim/negf.jpg,stim/1.jpg,stim/4.jpg,stim/latef.jpg,AB,2,4,,,,,,,,,0,47,47,13,,,,,,,,,,4,1,0.683068948354,,,,,,PLC_L_D2S1,P18,60.0206881182,02,A,2015_Feb_19_1406,X,
stim/posf.jpg,stim/negf.jpg,stim/2.jpg,stim/5.jpg,stim/latef.jpg,CD,2,4,,,,,,,,,0,48,48,34,,,,,,,,,,4,1,0.899698973692,,,,,,PLC_L_D2S1,P18,60.0206881182,02,A,2015_Feb_19_1406,X,
stim/negf.jpg,stim/posf.jpg,stim/3.jpg,stim/6.jpg,stim/latef.jpg,EF,1,2,,,,,,,,,0,49,49,46,,,,,,,,,,4,0,0.799734892219,,,,,,PLC_L_D2S1,P18,60.0206881182,02,A,2015_Feb_19_1406,X,
stim/posf.jpg,stim/negf.jpg,stim/3.jpg,stim/6.jpg,stim/latef.jpg,EF,1,2,,,,,,,,,0,50,50,41,,,,,,,,,,2,1,0.499860058195,,,,,,PLC_L_D2S1,P18,60.0206881182,02,A,2015_Feb_19_1406,X,
stim/posf.jpg,stim/negf.jpg,stim/4.jpg,stim/1.jpg,stim/latef.jpg,AB,1,2,,,,,,,,,0,51,51,2,,,,,,,,,,2,1,0.766425714092,,,,,,PLC_L_D2S1,P18,60.0206881182,02,A,2015_Feb_19_1406,X,
stim/negf.jpg,stim/posf.jpg,stim/6.jpg,stim/3.jpg,stim/latef.jpg,EF,2,4,,,,,,,,,0,52,52,58,,,,,,,,,,4,1,0.733090542176,,,,,,PLC_L_D2S1,P18,60.0206881182,02,A,2015_Feb_19_1406,X,
stim/posf.jpg,stim/negf.jpg,stim/2.jpg,stim/5.jpg,stim/latef.jpg,CD,2,4,,,,,,,,,0,53,53,31,,,,,,,,,,4,1,0.733089796317,,,,,,PLC_L_D2S1,P18,60.0206881182,02,A,2015_Feb_19_1406,X,
stim/posf.jpg,stim/negf.jpg,stim/6.jpg,stim/3.jpg,stim/latef.jpg,EF,2,4,,,,,,,,,0,54,54,55,,,,,,,,,,4,1,0.81641553071,,,,,,PLC_L_D2S1,P18,60.0206881182,02,A,2015_Feb_19_1406,X,
stim/negf.jpg,stim/posf.jpg,stim/2.jpg,stim/5.jpg,stim/latef.jpg,CD,2,4,,,,,,,,,0,55,55,39,,,,,,,,,,4,1,0.749702501485,,,,,,PLC_L_D2S1,P18,60.0206881182,02,A,2015_Feb_19_1406,X,
stim/posf.jpg,stim/negf.jpg,stim/2.jpg,stim/5.jpg,stim/latef.jpg,CD,2,4,,,,,,,,,0,56,56,32,,,,,,,,,,4,1,0.666454850715,,,,,,PLC_L_D2S1,P18,60.0206881182,02,A,2015_Feb_19_1406,X,
stim/posf.jpg,stim/negf.jpg,stim/5.jpg,stim/2.jpg,stim/latef.jpg,CD,1,2,,,,,,,,,0,57,57,22,,,,,,,,,,2,1,0.966351528184,,,,,,PLC_L_D2S1,P18,60.0206881182,02,A,2015_Feb_19_1406,X,
stim/negf.jpg,stim/posf.jpg,stim/4.jpg,stim/1.jpg,stim/latef.jpg,AB,1,2,,,,,,,,,0,58,58,9,,,,,,,,,,2,1,0.783136812505,,,,,,PLC_L_D2S1,P18,60.0206881182,02,A,2015_Feb_19_1406,X,
stim/posf.jpg,stim/negf.jpg,stim/4.jpg,stim/1.jpg,stim/latef.jpg,AB,1,2,,,,,,,,,0,59,59,5,,,,,,,,,,2,1,0.633119411132,,,,,,PLC_L_D2S1,P18,60.0206881182,02,A,2015_Feb_19_1406,X,
,,,,,,,,,,,,,,,,,,,,,,,,,,,,,,,,0.9984375,1.0,1,0,0,PLC_L_D2S1,P18,60.0206881182,02,A,2015_Feb_19_1406,X,
stim/negf.jpg,stim/posf.jpg,stim/6.jpg,stim/3.jpg,stim/latef.jpg,EF,2,4,,,,,,,,,,,,,0,0,0,58,,,,,,2,0,0.966310039774,,,,,,PLC_L_D2S1,P18,60.0206881182,02,A,2015_Feb_19_1406,X,
stim/posf.jpg,stim/negf.jpg,stim/1.jpg,stim/4.jpg,stim/latef.jpg,AB,2,4,,,,,,,,,,,,,0,1,1,16,,,,,,4,1,0.716410893151,,,,,,PLC_L_D2S1,P18,60.0206881182,02,A,2015_Feb_19_1406,X,
stim/posf.jpg,stim/negf.jpg,stim/6.jpg,stim/3.jpg,stim/latef.jpg,EF,2,4,,,,,,,,,,,,,0,2,2,51,,,,,,4,1,0.716398787979,,,,,,PLC_L_D2S1,P18,60.0206881182,02,A,2015_Feb_19_1406,X,
stim/posf.jpg,stim/negf.jpg,stim/1.jpg,stim/4.jpg,stim/latef.jpg,AB,2,4,,,,,,,,,,,,,0,3,3,14,,,,,,4,1,0.649770034812,,,,,,PLC_L_D2S1,P18,60.0206881182,02,A,2015_Feb_19_1406,X,
stim/posf.jpg,stim/negf.jpg,stim/1.jpg,stim/4.jpg,stim/latef.jpg,AB,2,4,,,,,,,,,,,,,0,4,4,12,,,,,,4,1,0.583155058984,,,,,,PLC_L_D2S1,P18,60.0206881182,02,A,2015_Feb_19_1406,X,
stim/negf.jpg,stim/posf.jpg,stim/3.jpg,stim/6.jpg,stim/latef.jpg,EF,1,2,,,,,,,,,,,,,0,5,5,48,,,,,,4,0,0.666462116826,,,,,,PLC_L_D2S1,P18,60.0206881182,02,A,2015_Feb_19_1406,X,
stim/posf.jpg,stim/negf.jpg,stim/3.jpg,stim/6.jpg,stim/latef.jpg,EF,1,2,,,,,,,,,,,,,0,6,6,45,,,,,,4,0,0.899714083353,,,,,,PLC_L_D2S1,P18,60.0206881182,02,A,2015_Feb_19_1406,X,
stim/posf.jpg,stim/negf.jpg,stim/4.jpg,stim/1.jpg,stim/latef.jpg,AB,1,2,,,,,,,,,,,,,0,7,7,5,,,,,,2,1,0.549869727295,,,,,,PLC_L_D2S1,P18,60.0206881182,02,A,2015_Feb_19_1406,X,
stim/negf.jpg,stim/posf.jpg,stim/6.jpg,stim/3.jpg,stim/latef.jpg,EF,2,4,,,,,,,,,,,,,0,8,8,56,,,,,,2,0,1.3162369125,,,,,,PLC_L_D2S1,P18,60.0206881182,02,A,2015_Feb_19_1406,X,
stim/posf.jpg,stim/negf.jpg,stim/2.jpg,stim/5.jpg,stim/latef.jpg,CD,2,4,,,,,,,,,,,,,0,9,9,30,,,,,,4,1,0.749689879023,,,,,,PLC_L_D2S1,P18,60.0206881182,02,A,2015_Feb_19_1406,X,
stim/posf.jpg,stim/negf.jpg,stim/1.jpg,stim/4.jpg,stim/latef.jpg,AB,2,4,,,,,,,,,,,,,0,10,10,11,,,,,,4,1,0.666438673393,,,,,,PLC_L_D2S1,P18,60.0206881182,02,A,2015_Feb_19_1406,X,
stim/posf.jpg,stim/negf.jpg,stim/1.jpg,stim/4.jpg,stim/latef.jpg,AB,2,4,,,,,,,,,,,,,0,11,11,13,,,,,,4,1,0.716420484056,,,,,,PLC_L_D2S1,P18,60.0206881182,02,A,2015_Feb_19_1406,X,
stim/posf.jpg,stim/negf.jpg,stim/5.jpg,stim/2.jpg,stim/latef.jpg,CD,1,2,,,,,,,,,,,,,0,12,12,26,,,,,,2,1,0.949674225006,,,,,,PLC_L_D2S1,P18,60.0206881182,02,A,2015_Feb_19_1406,X,
stim/posf.jpg,stim/negf.jpg,stim/6.jpg,stim/3.jpg,stim/latef.jpg,EF,2,4,,,,,,,,,,,,,0,13,13,53,,,,,,4,1,0.616471440064,,,,,,PLC_L_D2S1,P18,60.0206881182,02,A,2015_Feb_19_1406,X,
stim/posf.jpg,stim/negf.jpg,stim/3.jpg,stim/6.jpg,stim/latef.jpg,EF,1,2,,,,,,,,,,,,,0,14,14,42,,,,,,4,0,0.699709217224,,,,,,PLC_L_D2S1,P18,60.0206881182,02,A,2015_Feb_19_1406,X,
stim/posf.jpg,stim/negf.jpg,stim/5.jpg,stim/2.jpg,stim/latef.jpg,CD,1,2,,,,,,,,,,,,,0,15,15,20,,,,,,2,1,0.733079709175,,,,,,PLC_L_D2S1,P18,60.0206881182,02,A,2015_Feb_19_1406,X,
stim/posf.jpg,stim/negf.jpg,stim/4.jpg,stim/1.jpg,stim/latef.jpg,AB,1,2,,,,,,,,,,,,,0,16,16,1,,,,,,2,1,0.733097958662,,,,,,PLC_L_D2S1,P18,60.0206881182,02,A,2015_Feb_19_1406,X,
stim/posf.jpg,stim/negf.jpg,stim/2.jpg,stim/5.jpg,stim/latef.jpg,CD,2,4,,,,,,,,,,,,,0,17,17,31,,,,,,4,1,0.849696047398,,,,,,PLC_L_D2S1,P18,60.0206881182,02,A,2015_Feb_19_1406,X,
stim/posf.jpg,stim/negf.jpg,stim/5.jpg,stim/2.jpg,stim/latef.jpg,CD,1,2,,,,,,,,,,,,,0,18,18,25,,,,,,2,1,0.683104773648,,,,,,PLC_L_D2S1,P18,60.0206881182,02,A,2015_Feb_19_1406,X,
stim/negf.jpg,stim/posf.jpg,stim/2.jpg,stim/5.jpg,stim/latef.jpg,CD,2,4,,,,,,,,,,,,,0,19,19,38,,,,,,4,1,0.599791962466,,,,,,PLC_L_D2S1,P18,60.0206881182,02,A,2015_Feb_19_1406,X,
stim/posf.jpg,stim/negf.jpg,stim/4.jpg,stim/1.jpg,stim/latef.jpg,AB,1,2,,,,,,,,,,,,,0,20,20,7,,,,,,2,1,0.716436008752,,,,,,PLC_L_D2S1,P18,60.0206881182,02,A,2015_Feb_19_1406,X,
stim/posf.jpg,stim/negf.jpg,stim/4.jpg,stim/1.jpg,stim/latef.jpg,AB,1,2,,,,,,,,,,,,,0,21,21,2,,,,,,2,1,0.766405326276,,,,,,PLC_L_D2S1,P18,60.0206881182,02,A,2015_Feb_19_1406,X,
stim/negf.jpg,stim/posf.jpg,stim/5.jpg,stim/2.jpg,stim/latef.jpg,CD,1,2,,,,,,,,,,,,,0,22,22,27,,,,,,2,1,0.833076575364,,,,,,PLC_L_D2S1,P18,60.0206881182,02,A,2015_Feb_19_1406,X,
stim/posf.jpg,stim/negf.jpg,stim/2.jpg,stim/5.jpg,stim/latef.jpg,CD,2,4,,,,,,,,,,,,,0,23,23,35,,,,,,4,1,0.633130593003,,,,,,PLC_L_D2S1,P18,60.0206881182,02,A,2015_Feb_19_1406,X,
stim/negf.jpg,stim/posf.jpg,stim/6.jpg,stim/3.jpg,stim/latef.jpg,EF,2,4,,,,,,,,,,,,,0,24,24,57,,,,,,2,0,1.0663080849,,,,,,PLC_L_D2S1,P18,60.0206881182,02,A,2015_Feb_19_1406,X,
stim/posf.jpg,stim/negf.jpg,stim/1.jpg,stim/4.jpg,stim/latef.jpg,AB,2,4,,,,,,,,,,,,,0,25,25,10,,,,,,4,1,0.416516967542,,,,,,PLC_L_D2S1,P18,60.0206881182,02,A,2015_Feb_19_1406,X,
stim/negf.jpg,stim/posf.jpg,stim/5.jpg,stim/2.jpg,stim/latef.jpg,CD,1,2,,,,,,,,,,,,,0,26,26,29,,,,,,2,1,0.849709394666,,,,,,PLC_L_D2S1,P18,60.0206881182,02,A,2015_Feb_19_1406,X,
stim/posf.jpg,stim/negf.jpg,stim/2.jpg,stim/5.jpg,stim/latef.jpg,CD,2,4,,,,,,,,,,,,,0,27,27,36,,,,,,4,1,0.749747989865,,,,,,PLC_L_D2S1,P18,60.0206881182,02,A,2015_Feb_19_1406,X,
stim/posf.jpg,stim/negf.jpg,stim/5.jpg,stim/2.jpg,stim/latef.jpg,CD,1,2,,,,,,,,,,,,,0,28,28,23,,,,,,2,1,0.533057333403,,,,,,PLC_L_D2S1,P18,60.0206881182,02,A,2015_Feb_19_1406,X,
stim/negf.jpg,stim/posf.jpg,stim/3.jpg,stim/6.jpg,stim/latef.jpg,EF,1,2,,,,,,,,,,,,,0,29,29,47,,,,,,2,1,0.983012672085,,,,,,PLC_L_D2S1,P18,60.0206881182,02,A,2015_Feb_19_1406,X,
stim/posf.jpg,stim/negf.jpg,stim/4.jpg,stim/1.jpg,stim/latef.jpg,AB,1,2,,,,,,,,,,,,,0,30,30,0,,,,,,2,1,0.583139552334,,,,,,PLC_L_D2S1,P18,60.0206881182,02,A,2015_Feb_19_1406,X,
stim/negf.jpg,stim/posf.jpg,stim/2.jpg,stim/5.jpg,stim/latef.jpg,CD,2,4,,,,,,,,,,,,,0,31,31,39,,,,,,4,1,0.599824488538,,,,,,PLC_L_D2S1,P18,60.0206881182,02,A,2015_Feb_19_1406,X,
stim/negf.jpg,stim/posf.jpg,stim/4.jpg,stim/1.jpg,stim/latef.jpg,AB,1,2,,,,,,,,,,,,,0,32,32,9,,,,,,2,1,0.716449762032,,,,,,PLC_L_D2S1,P18,60.0206881182,02,A,2015_Feb_19_1406,X,
stim/negf.jpg,stim/posf.jpg,stim/6.jpg,stim/3.jpg,stim/latef.jpg,EF,2,4,,,,,,,,,,,,,0,33,33,59,,,,,,2,0,0.49984996203,,,,,,PLC_L_D2S1,P18,60.0206881182,02,A,2015_Feb_19_1406,X,
stim/posf.jpg,stim/negf.jpg,stim/4.jpg,stim/1.jpg,stim/latef.jpg,AB,1,2,,,,,,,,,,,,,0,34,34,3,,,,,,2,1,0.616477277614,,,,,,PLC_L_D2S1,P18,60.0206881182,02,A,2015_Feb_19_1406,X,
stim/posf.jpg,stim/negf.jpg,stim/4.jpg,stim/1.jpg,stim/latef.jpg,AB,1,2,,,,,,,,,,,,,0,35,35,6,,,,,,2,1,0.583054557485,,,,,,PLC_L_D2S1,P18,60.0206881182,02,A,2015_Feb_19_1406,X,
stim/posf.jpg,stim/negf.jpg,stim/4.jpg,stim/1.jpg,stim/latef.jpg,AB,1,2,,,,,,,,,,,,,0,36,36,4,,,,,,2,1,0.533180045263,,,,,,PLC_L_D2S1,P18,60.0206881182,02,A,2015_Feb_19_1406,X,
stim/negf.jpg,stim/posf.jpg,stim/5.jpg,stim/2.jpg,stim/latef.jpg,CD,1,2,,,,,,,,,,,,,0,37,37,28,,,,,,2,1,0.933027405809,,,,,,PLC_L_D2S1,P18,60.0206881182,02,A,2015_Feb_19_1406,X,
stim/posf.jpg,stim/negf.jpg,stim/6.jpg,stim/3.jpg,stim/latef.jpg,EF,2,4,,,,,,,,,,,,,0,38,38,50,,,,,,4,1,1.33292401711,,,,,,PLC_L_D2S1,P18,60.0206881182,02,A,2015_Feb_19_1406,X,
stim/posf.jpg,stim/negf.jpg,stim/6.jpg,stim/3.jpg,stim/latef.jpg,EF,2,4,,,,,,,,,,,,,0,39,39,54,,,,,,4,1,0.866384261773,,,,,,PLC_L_D2S1,P18,60.0206881182,02,A,2015_Feb_19_1406,X,
stim/posf.jpg,stim/negf.jpg,stim/2.jpg,stim/5.jpg,stim/latef.jpg,CD,2,4,,,,,,,,,,,,,0,40,40,33,,,,,,4,1,0.649780386614,,,,,,PLC_L_D2S1,P18,60.0206881182,02,A,2015_Feb_19_1406,X,
stim/posf.jpg,stim/negf.jpg,stim/5.jpg,stim/2.jpg,stim/latef.jpg,CD,1,2,,,,,,,,,,,,,0,41,41,22,,,,,,2,1,0.66649654965,,,,,,PLC_L_D2S1,P18,60.0206881182,02,A,2015_Feb_19_1406,X,
stim/posf.jpg,stim/negf.jpg,stim/1.jpg,stim/4.jpg,stim/latef.jpg,AB,2,4,,,,,,,,,,,,,0,42,42,17,,,,,,4,1,0.766323744934,,,,,,PLC_L_D2S1,P18,60.0206881182,02,A,2015_Feb_19_1406,X,
stim/posf.jpg,stim/negf.jpg,stim/1.jpg,stim/4.jpg,stim/latef.jpg,AB,2,4,,,,,,,,,,,,,0,43,43,15,,,,,,4,1,0.716389651206,,,,,,PLC_L_D2S1,P18,60.0206881182,02,A,2015_Feb_19_1406,X,
stim/posf.jpg,stim/negf.jpg,stim/2.jpg,stim/5.jpg,stim/latef.jpg,CD,2,4,,,,,,,,,,,,,0,44,44,34,,,,,,4,1,0.733135191464,,,,,,PLC_L_D2S1,P18,60.0206881182,02,A,2015_Feb_19_1406,X,
stim/posf.jpg,stim/negf.jpg,stim/3.jpg,stim/6.jpg,stim/latef.jpg,EF,1,2,,,,,,,,,,,,,0,45,45,44,,,,,,4,0,0.7331266201,,,,,,PLC_L_D2S1,P18,60.0206881182,02,A,2015_Feb_19_1406,X,
stim/negf.jpg,stim/posf.jpg,stim/3.jpg,stim/6.jpg,stim/latef.jpg,EF,1,2,,,,,,,,,,,,,0,46,46,46,,,,,,2,1,0.516491033902,,,,,,PLC_L_D2S1,P18,60.0206881182,02,A,2015_Feb_19_1406,X,
stim/negf.jpg,stim/posf.jpg,stim/4.jpg,stim/1.jpg,stim/latef.jpg,AB,1,2,,,,,,,,,,,,,0,47,47,8,,,,,,2,1,0.59981503297,,,,,,PLC_L_D2S1,P18,60.0206881182,02,A,2015_Feb_19_1406,X,
stim/posf.jpg,stim/negf.jpg,stim/6.jpg,stim/3.jpg,stim/latef.jpg,EF,2,4,,,,,,,,,,,,,0,48,48,55,,,,,,2,0,0.816363088999,,,,,,PLC_L_D2S1,P18,60.0206881182,02,A,2015_Feb_19_1406,X,
stim/negf.jpg,stim/posf.jpg,stim/2.jpg,stim/5.jpg,stim/latef.jpg,CD,2,4,,,,,,,,,,,,,0,49,49,37,,,,,,4,1,0.53309316772,,,,,,PLC_L_D2S1,P18,60.0206881182,02,A,2015_Feb_19_1406,X,
stim/posf.jpg,stim/negf.jpg,stim/3.jpg,stim/6.jpg,stim/latef.jpg,EF,1,2,,,,,,,,,,,,,0,50,50,41,,,,,,2,1,1.26624648837,,,,,,PLC_L_D2S1,P18,60.0206881182,02,A,2015_Feb_19_1406,X,
stim/posf.jpg,stim/negf.jpg,stim/5.jpg,stim/2.jpg,stim/latef.jpg,CD,1,2,,,,,,,,,,,,,0,51,51,24,,,,,,2,1,0.683099940602,,,,,,PLC_L_D2S1,P18,60.0206881182,02,A,2015_Feb_19_1406,X,
stim/posf.jpg,stim/negf.jpg,stim/3.jpg,stim/6.jpg,stim/latef.jpg,EF,1,2,,,,,,,,,,,,,0,52,52,43,,,,,,2,1,0.766365329584,,,,,,PLC_L_D2S1,P18,60.0206881182,02,A,2015_Feb_19_1406,X,
stim/negf.jpg,stim/posf.jpg,stim/1.jpg,stim/4.jpg,stim/latef.jpg,AB,2,4,,,,,,,,,,,,,0,53,53,18,,,,,,4,1,0.749740558342,,,,,,PLC_L_D2S1,P18,60.0206881182,02,A,2015_Feb_19_1406,X,
stim/posf.jpg,stim/negf.jpg,stim/3.jpg,stim/6.jpg,stim/latef.jpg,EF,1,2,,,,,,,,,,,,,0,54,54,40,,,,,,2,1,0.616459485267,,,,,,PLC_L_D2S1,P18,60.0206881182,02,A,2015_Feb_19_1406,X,
stim/posf.jpg,stim/negf.jpg,stim/6.jpg,stim/3.jpg,stim/latef.jpg,EF,2,4,,,,,,,,,,,,,0,55,55,52,,,,,,2,0,0.499831802769,,,,,,PLC_L_D2S1,P18,60.0206881182,02,A,2015_Feb_19_1406,X,
stim/posf.jpg,stim/negf.jpg,stim/2.jpg,stim/5.jpg,stim/latef.jpg,CD,2,4,,,,,,,,,,,,,0,56,56,32,,,,,,4,1,0.599785959504,,,,,,PLC_L_D2S1,P18,60.0206881182,02,A,2015_Feb_19_1406,X,
stim/negf.jpg,stim/posf.jpg,stim/3.jpg,stim/6.jpg,stim/latef.jpg,EF,1,2,,,,,,,,,,,,,0,57,57,49,,,,,,4,0,0.849743878618,,,,,,PLC_L_D2S1,P18,60.0206881182,02,A,2015_Feb_19_1406,X,
stim/posf.jpg,stim/negf.jpg,stim/5.jpg,stim/2.jpg,stim/latef.jpg,CD,1,2,,,,,,,,,,,,,0,58,58,21,,,,,,2,1,0.666440910971,,,,,,PLC_L_D2S1,P18,60.0206881182,02,A,2015_Feb_19_1406,X,
stim/negf.jpg,stim/posf.jpg,stim/1.jpg,stim/4.jpg,stim/latef.jpg,AB,2,4,,,,,,,,,,,,,0,59,59,19,,,,,,4,1,0.666439196698,,,,,,PLC_L_D2S1,P18,60.0206881182,02,A,2015_Feb_19_1406,X,
