fb_corr,fb_incorr,symbol2,symbol1,fb_late,pair,position,correct,block_01.thisRepN,block_01.thisTrialN,block_01.thisN,block_01.thisIndex,block_02.thisRepN,block_02.thisTrialN,block_02.thisN,block_02.thisIndex,block_03.thisRepN,block_03.thisTrialN,block_03.thisN,block_03.thisIndex,block_04.thisRepN,block_04.thisTrialN,block_04.thisN,block_04.thisIndex,mouse.x,mouse.y,mouse.leftButton,mouse.midButton,mouse.rightButton,buttonBox_2.keys,buttonBox_2.corr,buttonBox_2.rt,mouse_2.x,mouse_2.y,mouse_2.leftButton,mouse_2.midButton,mouse_2.rightButton,expName,Participant,frameRate,SessionNumber,Version,date,Group,
,,,,,,,,,,,,,,,,,,,,,,,,0.996875,1.0,1,0,0,,,,,,,,,PLC_L_D2S1,P21,60.0229710242,02,C,2015_Feb_27_1622,X,
stim/negf.jpg,stim/posf.jpg,stim/1.jpg,stim/3.jpg,stim/latef.jpg,EF,1,2,0,0,0,49,,,,,,,,,,,,,,,,,,None,0,,,,,,,PLC_L_D2S1,P21,60.0229710242,02,C,2015_Feb_27_1622,X,
stim/posf.jpg,stim/negf.jpg,stim/4.jpg,stim/6.jpg,stim/latef.jpg,AB,2,4,0,1,1,11,,,,,,,,,,,,,,,,,,4,1,0.466513659296,,,,,,PLC_L_D2S1,P21,60.0229710242,02,C,2015_Feb_27_1622,X,
stim/negf.jpg,stim/posf.jpg,stim/4.jpg,stim/6.jpg,stim/latef.jpg,AB,2,4,0,2,2,19,,,,,,,,,,,,,,,,,,2,0,1.34854658236,,,,,,PLC_L_D2S1,P21,60.0229710242,02,C,2015_Feb_27_1622,X,
stim/posf.jpg,stim/negf.jpg,stim/1.jpg,stim/3.jpg,stim/latef.jpg,EF,1,2,0,3,3,42,,,,,,,,,,,,,,,,,,4,0,1.24957775054,,,,,,PLC_L_D2S1,P21,60.0229710242,02,C,2015_Feb_27_1622,X,
stim/posf.jpg,stim/negf.jpg,stim/2.jpg,stim/5.jpg,stim/latef.jpg,CD,1,2,0,4,4,21,,,,,,,,,,,,,,,,,,2,1,0.849729686242,,,,,,PLC_L_D2S1,P21,60.0229710242,02,C,2015_Feb_27_1622,X,
stim/posf.jpg,stim/negf.jpg,stim/3.jpg,stim/1.jpg,stim/latef.jpg,EF,2,4,0,5,5,51,,,,,,,,,,,,,,,,,,2,0,1.18296407395,,,,,,PLC_L_D2S1,P21,60.0229710242,02,C,2015_Feb_27_1622,X,
stim/negf.jpg,stim/posf.jpg,stim/6.jpg,stim/4.jpg,stim/latef.jpg,AB,1,2,0,6,6,8,,,,,,,,,,,,,,,,,,4,0,1.24956471004,,,,,,PLC_L_D2S1,P21,60.0229710242,02,C,2015_Feb_27_1622,X,
stim/posf.jpg,stim/negf.jpg,stim/5.jpg,stim/2.jpg,stim/latef.jpg,CD,2,4,0,7,7,31,,,,,,,,,,,,,,,,,,4,1,1.34955240036,,,,,,PLC_L_D2S1,P21,60.0229710242,02,C,2015_Feb_27_1622,X,
stim/negf.jpg,stim/posf.jpg,stim/5.jpg,stim/2.jpg,stim/latef.jpg,CD,2,4,0,8,8,39,,,,,,,,,,,,,,,,,,4,1,1.41619175194,,,,,,PLC_L_D2S1,P21,60.0229710242,02,C,2015_Feb_27_1622,X,
stim/posf.jpg,stim/negf.jpg,stim/4.jpg,stim/6.jpg,stim/latef.jpg,AB,2,4,0,9,9,17,,,,,,,,,,,,,,,,,,2,0,1.58280584056,,,,,,PLC_L_D2S1,P21,60.0229710242,02,C,2015_Feb_27_1622,X,
stim/posf.jpg,stim/negf.jpg,stim/4.jpg,stim/6.jpg,stim/latef.jpg,AB,2,4,0,10,10,13,,,,,,,,,,,,,,,,,,2,0,1.34955782889,,,,,,PLC_L_D2S1,P21,60.0229710242,02,C,2015_Feb_27_1622,X,
stim/posf.jpg,stim/negf.jpg,stim/5.jpg,stim/2.jpg,stim/latef.jpg,CD,2,4,0,11,11,33,,,,,,,,,,,,,,,,,,4,1,1.29958294148,,,,,,PLC_L_D2S1,P21,60.0229710242,02,C,2015_Feb_27_1622,X,
stim/posf.jpg,stim/negf.jpg,stim/5.jpg,stim/2.jpg,stim/latef.jpg,CD,2,4,0,12,12,34,,,,,,,,,,,,,,,,,,4,1,1.48286800851,,,,,,PLC_L_D2S1,P21,60.0229710242,02,C,2015_Feb_27_1622,X,
stim/negf.jpg,stim/posf.jpg,stim/2.jpg,stim/5.jpg,stim/latef.jpg,CD,1,2,0,13,13,28,,,,,,,,,,,,,,,,,,2,1,1.09964304629,,,,,,PLC_L_D2S1,P21,60.0229710242,02,C,2015_Feb_27_1622,X,
stim/posf.jpg,stim/negf.jpg,stim/4.jpg,stim/6.jpg,stim/latef.jpg,AB,2,4,0,14,14,14,,,,,,,,,,,,,,,,,,4,1,1.53283830949,,,,,,PLC_L_D2S1,P21,60.0229710242,02,C,2015_Feb_27_1622,X,
stim/posf.jpg,stim/negf.jpg,stim/5.jpg,stim/2.jpg,stim/latef.jpg,CD,2,4,0,15,15,30,,,,,,,,,,,,,,,,,,4,1,1.51616739122,,,,,,PLC_L_D2S1,P21,60.0229710242,02,C,2015_Feb_27_1622,X,
stim/posf.jpg,stim/negf.jpg,stim/6.jpg,stim/4.jpg,stim/latef.jpg,AB,1,2,0,16,16,1,,,,,,,,,,,,,,,,,,2,1,1.19961549763,,,,,,PLC_L_D2S1,P21,60.0229710242,02,C,2015_Feb_27_1622,X,
stim/negf.jpg,stim/posf.jpg,stim/1.jpg,stim/3.jpg,stim/latef.jpg,EF,1,2,0,17,17,48,,,,,,,,,,,,,,,,,,4,0,1.43294826355,,,,,,PLC_L_D2S1,P21,60.0229710242,02,C,2015_Feb_27_1622,X,
stim/posf.jpg,stim/negf.jpg,stim/6.jpg,stim/4.jpg,stim/latef.jpg,AB,1,2,0,18,18,5,,,,,,,,,,,,,,,,,,None,0,,,,,,,PLC_L_D2S1,P21,60.0229710242,02,C,2015_Feb_27_1622,X,
stim/posf.jpg,stim/negf.jpg,stim/1.jpg,stim/3.jpg,stim/latef.jpg,EF,1,2,0,19,19,45,,,,,,,,,,,,,,,,,,4,0,1.03290805031,,,,,,PLC_L_D2S1,P21,60.0229710242,02,C,2015_Feb_27_1622,X,
stim/posf.jpg,stim/negf.jpg,stim/4.jpg,stim/6.jpg,stim/latef.jpg,AB,2,4,0,20,20,15,,,,,,,,,,,,,,,,,,4,1,1.38288664596,,,,,,PLC_L_D2S1,P21,60.0229710242,02,C,2015_Feb_27_1622,X,
stim/posf.jpg,stim/negf.jpg,stim/6.jpg,stim/4.jpg,stim/latef.jpg,AB,1,2,0,21,21,2,,,,,,,,,,,,,,,,,,2,1,0.899723620123,,,,,,PLC_L_D2S1,P21,60.0229710242,02,C,2015_Feb_27_1622,X,
stim/negf.jpg,stim/posf.jpg,stim/3.jpg,stim/1.jpg,stim/latef.jpg,EF,2,4,0,22,22,56,,,,,,,,,,,,,,,,,,2,0,1.23298273847,,,,,,PLC_L_D2S1,P21,60.0229710242,02,C,2015_Feb_27_1622,X,
stim/posf.jpg,stim/negf.jpg,stim/1.jpg,stim/3.jpg,stim/latef.jpg,EF,1,2,0,23,23,40,,,,,,,,,,,,,,,,,,4,0,1.29957480921,,,,,,PLC_L_D2S1,P21,60.0229710242,02,C,2015_Feb_27_1622,X,
stim/posf.jpg,stim/negf.jpg,stim/1.jpg,stim/3.jpg,stim/latef.jpg,EF,1,2,0,24,24,44,,,,,,,,,,,,,,,,,,4,0,1.51616710852,,,,,,PLC_L_D2S1,P21,60.0229710242,02,C,2015_Feb_27_1622,X,
stim/posf.jpg,stim/negf.jpg,stim/2.jpg,stim/5.jpg,stim/latef.jpg,CD,1,2,0,25,25,25,,,,,,,,,,,,,,,,,,2,1,1.08301977278,,,,,,PLC_L_D2S1,P21,60.0229710242,02,C,2015_Feb_27_1622,X,
stim/posf.jpg,stim/negf.jpg,stim/4.jpg,stim/6.jpg,stim/latef.jpg,AB,2,4,0,26,26,16,,,,,,,,,,,,,,,,,,4,1,1.36622736671,,,,,,PLC_L_D2S1,P21,60.0229710242,02,C,2015_Feb_27_1622,X,
stim/posf.jpg,stim/negf.jpg,stim/3.jpg,stim/1.jpg,stim/latef.jpg,EF,2,4,0,27,27,50,,,,,,,,,,,,,,,,,,2,0,1.23286053188,,,,,,PLC_L_D2S1,P21,60.0229710242,02,C,2015_Feb_27_1622,X,
stim/negf.jpg,stim/posf.jpg,stim/1.jpg,stim/3.jpg,stim/latef.jpg,EF,1,2,0,28,28,46,,,,,,,,,,,,,,,,,,2,1,1.38288711513,,,,,,PLC_L_D2S1,P21,60.0229710242,02,C,2015_Feb_27_1622,X,
stim/posf.jpg,stim/negf.jpg,stim/6.jpg,stim/4.jpg,stim/latef.jpg,AB,1,2,0,29,29,6,,,,,,,,,,,,,,,,,,2,1,1.09963975008,,,,,,PLC_L_D2S1,P21,60.0229710242,02,C,2015_Feb_27_1622,X,
stim/posf.jpg,stim/negf.jpg,stim/2.jpg,stim/5.jpg,stim/latef.jpg,CD,1,2,0,30,30,26,,,,,,,,,,,,,,,,,,2,1,1.23294530718,,,,,,PLC_L_D2S1,P21,60.0229710242,02,C,2015_Feb_27_1622,X,
stim/posf.jpg,stim/negf.jpg,stim/6.jpg,stim/4.jpg,stim/latef.jpg,AB,1,2,0,31,31,7,,,,,,,,,,,,,,,,,,2,1,1.08296237171,,,,,,PLC_L_D2S1,P21,60.0229710242,02,C,2015_Feb_27_1622,X,
stim/posf.jpg,stim/negf.jpg,stim/1.jpg,stim/3.jpg,stim/latef.jpg,EF,1,2,0,32,32,43,,,,,,,,,,,,,,,,,,4,0,1.21623219675,,,,,,PLC_L_D2S1,P21,60.0229710242,02,C,2015_Feb_27_1622,X,
stim/posf.jpg,stim/negf.jpg,stim/2.jpg,stim/5.jpg,stim/latef.jpg,CD,1,2,0,33,33,20,,,,,,,,,,,,,,,,,,2,1,0.749736411004,,,,,,PLC_L_D2S1,P21,60.0229710242,02,C,2015_Feb_27_1622,X,
stim/negf.jpg,stim/posf.jpg,stim/6.jpg,stim/4.jpg,stim/latef.jpg,AB,1,2,0,34,34,9,,,,,,,,,,,,,,,,,,2,1,1.38289974662,,,,,,PLC_L_D2S1,P21,60.0229710242,02,C,2015_Feb_27_1622,X,
stim/posf.jpg,stim/negf.jpg,stim/2.jpg,stim/5.jpg,stim/latef.jpg,CD,1,2,0,35,35,24,,,,,,,,,,,,,,,,,,2,1,0.866390336914,,,,,,PLC_L_D2S1,P21,60.0229710242,02,C,2015_Feb_27_1622,X,
stim/negf.jpg,stim/posf.jpg,stim/5.jpg,stim/2.jpg,stim/latef.jpg,CD,2,4,0,36,36,37,,,,,,,,,,,,,,,,,,4,1,0.999653614634,,,,,,PLC_L_D2S1,P21,60.0229710242,02,C,2015_Feb_27_1622,X,
stim/negf.jpg,stim/posf.jpg,stim/1.jpg,stim/3.jpg,stim/latef.jpg,EF,1,2,0,37,37,47,,,,,,,,,,,,,,,,,,4,0,1.04963995459,,,,,,PLC_L_D2S1,P21,60.0229710242,02,C,2015_Feb_27_1622,X,
stim/posf.jpg,stim/negf.jpg,stim/5.jpg,stim/2.jpg,stim/latef.jpg,CD,2,4,0,38,38,35,,,,,,,,,,,,,,,,,,2,0,0.749691082023,,,,,,PLC_L_D2S1,P21,60.0229710242,02,C,2015_Feb_27_1622,X,
stim/posf.jpg,stim/negf.jpg,stim/3.jpg,stim/1.jpg,stim/latef.jpg,EF,2,4,0,39,39,52,,,,,,,,,,,,,,,,,,2,0,0.98304844926,,,,,,PLC_L_D2S1,P21,60.0229710242,02,C,2015_Feb_27_1622,X,
stim/posf.jpg,stim/negf.jpg,stim/4.jpg,stim/6.jpg,stim/latef.jpg,AB,2,4,0,40,40,10,,,,,,,,,,,,,,,,,,4,1,0.999680252027,,,,,,PLC_L_D2S1,P21,60.0229710242,02,C,2015_Feb_27_1622,X,
stim/posf.jpg,stim/negf.jpg,stim/6.jpg,stim/4.jpg,stim/latef.jpg,AB,1,2,0,41,41,0,,,,,,,,,,,,,,,,,,2,1,1.09965913339,,,,,,PLC_L_D2S1,P21,60.0229710242,02,C,2015_Feb_27_1622,X,
stim/negf.jpg,stim/posf.jpg,stim/3.jpg,stim/1.jpg,stim/latef.jpg,EF,2,4,0,42,42,58,,,,,,,,,,,,,,,,,,2,0,1.23290868791,,,,,,PLC_L_D2S1,P21,60.0229710242,02,C,2015_Feb_27_1622,X,
stim/posf.jpg,stim/negf.jpg,stim/6.jpg,stim/4.jpg,stim/latef.jpg,AB,1,2,0,43,43,3,,,,,,,,,,,,,,,,,,2,1,0.93301888858,,,,,,PLC_L_D2S1,P21,60.0229710242,02,C,2015_Feb_27_1622,X,
stim/posf.jpg,stim/negf.jpg,stim/2.jpg,stim/5.jpg,stim/latef.jpg,CD,1,2,0,44,44,22,,,,,,,,,,,,,,,,,,2,1,1.08296135818,,,,,,PLC_L_D2S1,P21,60.0229710242,02,C,2015_Feb_27_1622,X,
stim/negf.jpg,stim/posf.jpg,stim/3.jpg,stim/1.jpg,stim/latef.jpg,EF,2,4,0,45,45,59,,,,,,,,,,,,,,,,,,2,0,0.916277200922,,,,,,PLC_L_D2S1,P21,60.0229710242,02,C,2015_Feb_27_1622,X,
stim/negf.jpg,stim/posf.jpg,stim/4.jpg,stim/6.jpg,stim/latef.jpg,AB,2,4,0,46,46,18,,,,,,,,,,,,,,,,,,4,1,1.21617488289,,,,,,PLC_L_D2S1,P21,60.0229710242,02,C,2015_Feb_27_1622,X,
stim/negf.jpg,stim/posf.jpg,stim/3.jpg,stim/1.jpg,stim/latef.jpg,EF,2,4,0,47,47,57,,,,,,,,,,,,,,,,,,None,0,,,,,,,PLC_L_D2S1,P21,60.0229710242,02,C,2015_Feb_27_1622,X,
stim/posf.jpg,stim/negf.jpg,stim/3.jpg,stim/1.jpg,stim/latef.jpg,EF,2,4,0,48,48,55,,,,,,,,,,,,,,,,,,2,0,0.816393666213,,,,,,PLC_L_D2S1,P21,60.0229710242,02,C,2015_Feb_27_1622,X,
stim/posf.jpg,stim/negf.jpg,stim/2.jpg,stim/5.jpg,stim/latef.jpg,CD,1,2,0,49,49,23,,,,,,,,,,,,,,,,,,2,1,0.86638312494,,,,,,PLC_L_D2S1,P21,60.0229710242,02,C,2015_Feb_27_1622,X,
stim/posf.jpg,stim/negf.jpg,stim/4.jpg,stim/6.jpg,stim/latef.jpg,AB,2,4,0,50,50,12,,,,,,,,,,,,,,,,,,4,1,0.966344556808,,,,,,PLC_L_D2S1,P21,60.0229710242,02,C,2015_Feb_27_1622,X,
stim/negf.jpg,stim/posf.jpg,stim/2.jpg,stim/5.jpg,stim/latef.jpg,CD,1,2,0,51,51,27,,,,,,,,,,,,,,,,,,2,1,1.64950729393,,,,,,PLC_L_D2S1,P21,60.0229710242,02,C,2015_Feb_27_1622,X,
stim/posf.jpg,stim/negf.jpg,stim/3.jpg,stim/1.jpg,stim/latef.jpg,EF,2,4,0,52,52,53,,,,,,,,,,,,,,,,,,2,0,1.04966059203,,,,,,PLC_L_D2S1,P21,60.0229710242,02,C,2015_Feb_27_1622,X,
stim/posf.jpg,stim/negf.jpg,stim/6.jpg,stim/4.jpg,stim/latef.jpg,AB,1,2,0,53,53,4,,,,,,,,,,,,,,,,,,2,1,1.19953741701,,,,,,PLC_L_D2S1,P21,60.0229710242,02,C,2015_Feb_27_1622,X,
stim/posf.jpg,stim/negf.jpg,stim/5.jpg,stim/2.jpg,stim/latef.jpg,CD,2,4,0,54,54,32,,,,,,,,,,,,,,,,,,4,1,1.13295309058,,,,,,PLC_L_D2S1,P21,60.0229710242,02,C,2015_Feb_27_1622,X,
stim/posf.jpg,stim/negf.jpg,stim/1.jpg,stim/3.jpg,stim/latef.jpg,EF,1,2,0,55,55,41,,,,,,,,,,,,,,,,,,4,0,1.06631347434,,,,,,PLC_L_D2S1,P21,60.0229710242,02,C,2015_Feb_27_1622,X,
stim/posf.jpg,stim/negf.jpg,stim/3.jpg,stim/1.jpg,stim/latef.jpg,EF,2,4,0,56,56,54,,,,,,,,,,,,,,,,,,4,1,0.733075152817,,,,,,PLC_L_D2S1,P21,60.0229710242,02,C,2015_Feb_27_1622,X,
stim/posf.jpg,stim/negf.jpg,stim/5.jpg,stim/2.jpg,stim/latef.jpg,CD,2,4,0,57,57,36,,,,,,,,,,,,,,,,,,2,0,1.26622711107,,,,,,PLC_L_D2S1,P21,60.0229710242,02,C,2015_Feb_27_1622,X,
stim/negf.jpg,stim/posf.jpg,stim/5.jpg,stim/2.jpg,stim/latef.jpg,CD,2,4,0,58,58,38,,,,,,,,,,,,,,,,,,4,1,0.816391864722,,,,,,PLC_L_D2S1,P21,60.0229710242,02,C,2015_Feb_27_1622,X,
stim/negf.jpg,stim/posf.jpg,stim/2.jpg,stim/5.jpg,stim/latef.jpg,CD,1,2,0,59,59,29,,,,,,,,,,,,,,,,,,2,1,0.883088656477,,,,,,PLC_L_D2S1,P21,60.0229710242,02,C,2015_Feb_27_1622,X,
,,,,,,,,,,,,,,,,,,,,,,,,,,,,,,,,0.9875,1.0,1,0,0,PLC_L_D2S1,P21,60.0229710242,02,C,2015_Feb_27_1622,X,
stim/negf.jpg,stim/posf.jpg,stim/1.jpg,stim/3.jpg,stim/latef.jpg,EF,1,2,,,,,0,0,0,46,,,,,,,,,,,,,,4,0,0.883034416282,,,,,,PLC_L_D2S1,P21,60.0229710242,02,C,2015_Feb_27_1622,X,
stim/posf.jpg,stim/negf.jpg,stim/4.jpg,stim/6.jpg,stim/latef.jpg,AB,2,4,,,,,0,1,1,14,,,,,,,,,,,,,,4,1,0.999689656468,,,,,,PLC_L_D2S1,P21,60.0229710242,02,C,2015_Feb_27_1622,X,
stim/negf.jpg,stim/posf.jpg,stim/3.jpg,stim/1.jpg,stim/latef.jpg,EF,2,4,,,,,0,2,2,59,,,,,,,,,,,,,,2,0,1.04966653484,,,,,,PLC_L_D2S1,P21,60.0229710242,02,C,2015_Feb_27_1622,X,
stim/posf.jpg,stim/negf.jpg,stim/6.jpg,stim/4.jpg,stim/latef.jpg,AB,1,2,,,,,0,3,3,1,,,,,,,,,,,,,,2,1,1.11630500523,,,,,,PLC_L_D2S1,P21,60.0229710242,02,C,2015_Feb_27_1622,X,
stim/posf.jpg,stim/negf.jpg,stim/4.jpg,stim/6.jpg,stim/latef.jpg,AB,2,4,,,,,0,4,4,12,,,,,,,,,,,,,,4,1,1.01637781069,,,,,,PLC_L_D2S1,P21,60.0229710242,02,C,2015_Feb_27_1622,X,
stim/posf.jpg,stim/negf.jpg,stim/3.jpg,stim/1.jpg,stim/latef.jpg,EF,2,4,,,,,0,5,5,55,,,,,,,,,,,,,,2,0,0.816379732483,,,,,,PLC_L_D2S1,P21,60.0229710242,02,C,2015_Feb_27_1622,X,
stim/posf.jpg,stim/negf.jpg,stim/4.jpg,stim/6.jpg,stim/latef.jpg,AB,2,4,,,,,0,6,6,13,,,,,,,,,,,,,,4,1,1.11629828648,,,,,,PLC_L_D2S1,P21,60.0229710242,02,C,2015_Feb_27_1622,X,
stim/posf.jpg,stim/negf.jpg,stim/5.jpg,stim/2.jpg,stim/latef.jpg,CD,2,4,,,,,0,7,7,32,,,,,,,,,,,,,,2,0,1.21623467493,,,,,,PLC_L_D2S1,P21,60.0229710242,02,C,2015_Feb_27_1622,X,
stim/posf.jpg,stim/negf.jpg,stim/6.jpg,stim/4.jpg,stim/latef.jpg,AB,1,2,,,,,0,8,8,2,,,,,,,,,,,,,,2,1,1.16629822332,,,,,,PLC_L_D2S1,P21,60.0229710242,02,C,2015_Feb_27_1622,X,
stim/negf.jpg,stim/posf.jpg,stim/1.jpg,stim/3.jpg,stim/latef.jpg,EF,1,2,,,,,0,9,9,48,,,,,,,,,,,,,,4,0,1.11630286389,,,,,,PLC_L_D2S1,P21,60.0229710242,02,C,2015_Feb_27_1622,X,
stim/posf.jpg,stim/negf.jpg,stim/1.jpg,stim/3.jpg,stim/latef.jpg,EF,1,2,,,,,0,10,10,40,,,,,,,,,,,,,,4,0,0.949706137548,,,,,,PLC_L_D2S1,P21,60.0229710242,02,C,2015_Feb_27_1622,X,
stim/posf.jpg,stim/negf.jpg,stim/3.jpg,stim/1.jpg,stim/latef.jpg,EF,2,4,,,,,0,11,11,51,,,,,,,,,,,,,,4,1,0.999665662663,,,,,,PLC_L_D2S1,P21,60.0229710242,02,C,2015_Feb_27_1622,X,
stim/posf.jpg,stim/negf.jpg,stim/3.jpg,stim/1.jpg,stim/latef.jpg,EF,2,4,,,,,0,12,12,54,,,,,,,,,,,,,,4,1,0.899741782394,,,,,,PLC_L_D2S1,P21,60.0229710242,02,C,2015_Feb_27_1622,X,
stim/negf.jpg,stim/posf.jpg,stim/3.jpg,stim/1.jpg,stim/latef.jpg,EF,2,4,,,,,0,13,13,57,,,,,,,,,,,,,,4,1,0.883039234292,,,,,,PLC_L_D2S1,P21,60.0229710242,02,C,2015_Feb_27_1622,X,
stim/negf.jpg,stim/posf.jpg,stim/4.jpg,stim/6.jpg,stim/latef.jpg,AB,2,4,,,,,0,14,14,19,,,,,,,,,,,,,,4,1,1.06631296005,,,,,,PLC_L_D2S1,P21,60.0229710242,02,C,2015_Feb_27_1622,X,
stim/negf.jpg,stim/posf.jpg,stim/5.jpg,stim/2.jpg,stim/latef.jpg,CD,2,4,,,,,0,15,15,38,,,,,,,,,,,,,,4,1,0.916415696121,,,,,,PLC_L_D2S1,P21,60.0229710242,02,C,2015_Feb_27_1622,X,
stim/posf.jpg,stim/negf.jpg,stim/4.jpg,stim/6.jpg,stim/latef.jpg,AB,2,4,,,,,0,16,16,11,,,,,,,,,,,,,,2,0,1.13295595371,,,,,,PLC_L_D2S1,P21,60.0229710242,02,C,2015_Feb_27_1622,X,
stim/negf.jpg,stim/posf.jpg,stim/2.jpg,stim/5.jpg,stim/latef.jpg,CD,1,2,,,,,0,17,17,27,,,,,,,,,,,,,,4,0,0.999684267035,,,,,,PLC_L_D2S1,P21,60.0229710242,02,C,2015_Feb_27_1622,X,
stim/posf.jpg,stim/negf.jpg,stim/6.jpg,stim/4.jpg,stim/latef.jpg,AB,1,2,,,,,0,18,18,7,,,,,,,,,,,,,,2,1,1.06631140518,,,,,,PLC_L_D2S1,P21,60.0229710242,02,C,2015_Feb_27_1622,X,
stim/posf.jpg,stim/negf.jpg,stim/1.jpg,stim/3.jpg,stim/latef.jpg,EF,1,2,,,,,0,19,19,41,,,,,,,,,,,,,,2,1,1.39954064105,,,,,,PLC_L_D2S1,P21,60.0229710242,02,C,2015_Feb_27_1622,X,
stim/posf.jpg,stim/negf.jpg,stim/2.jpg,stim/5.jpg,stim/latef.jpg,CD,1,2,,,,,0,20,20,21,,,,,,,,,,,,,,4,0,1.16629180232,,,,,,PLC_L_D2S1,P21,60.0229710242,02,C,2015_Feb_27_1622,X,
stim/negf.jpg,stim/posf.jpg,stim/5.jpg,stim/2.jpg,stim/latef.jpg,CD,2,4,,,,,0,21,21,37,,,,,,,,,,,,,,4,1,1.21624569138,,,,,,PLC_L_D2S1,P21,60.0229710242,02,C,2015_Feb_27_1622,X,
stim/posf.jpg,stim/negf.jpg,stim/4.jpg,stim/6.jpg,stim/latef.jpg,AB,2,4,,,,,0,22,22,16,,,,,,,,,,,,,,4,1,0.966331459162,,,,,,PLC_L_D2S1,P21,60.0229710242,02,C,2015_Feb_27_1622,X,
stim/posf.jpg,stim/negf.jpg,stim/6.jpg,stim/4.jpg,stim/latef.jpg,AB,1,2,,,,,0,23,23,0,,,,,,,,,,,,,,2,1,0.849720311877,,,,,,PLC_L_D2S1,P21,60.0229710242,02,C,2015_Feb_27_1622,X,
stim/negf.jpg,stim/posf.jpg,stim/1.jpg,stim/3.jpg,stim/latef.jpg,EF,1,2,,,,,0,24,24,49,,,,,,,,,,,,,,4,0,1.31621533372,,,,,,PLC_L_D2S1,P21,60.0229710242,02,C,2015_Feb_27_1622,X,
stim/posf.jpg,stim/negf.jpg,stim/6.jpg,stim/4.jpg,stim/latef.jpg,AB,1,2,,,,,0,25,25,5,,,,,,,,,,,,,,2,1,0.982998013549,,,,,,PLC_L_D2S1,P21,60.0229710242,02,C,2015_Feb_27_1622,X,
stim/posf.jpg,stim/negf.jpg,stim/1.jpg,stim/3.jpg,stim/latef.jpg,EF,1,2,,,,,0,26,26,43,,,,,,,,,,,,,,4,0,0.816409906693,,,,,,PLC_L_D2S1,P21,60.0229710242,02,C,2015_Feb_27_1622,X,
stim/posf.jpg,stim/negf.jpg,stim/5.jpg,stim/2.jpg,stim/latef.jpg,CD,2,4,,,,,0,27,27,30,,,,,,,,,,,,,,4,1,1.03299516846,,,,,,PLC_L_D2S1,P21,60.0229710242,02,C,2015_Feb_27_1622,X,
stim/posf.jpg,stim/negf.jpg,stim/1.jpg,stim/3.jpg,stim/latef.jpg,EF,1,2,,,,,0,28,28,42,,,,,,,,,,,,,,4,0,1.19959721807,,,,,,PLC_L_D2S1,P21,60.0229710242,02,C,2015_Feb_27_1622,X,
stim/negf.jpg,stim/posf.jpg,stim/6.jpg,stim/4.jpg,stim/latef.jpg,AB,1,2,,,,,0,29,29,8,,,,,,,,,,,,,,2,1,0.833077438514,,,,,,PLC_L_D2S1,P21,60.0229710242,02,C,2015_Feb_27_1622,X,
stim/negf.jpg,stim/posf.jpg,stim/6.jpg,stim/4.jpg,stim/latef.jpg,AB,1,2,,,,,0,30,30,9,,,,,,,,,,,,,,4,0,1.1662853753,,,,,,PLC_L_D2S1,P21,60.0229710242,02,C,2015_Feb_27_1622,X,
stim/posf.jpg,stim/negf.jpg,stim/2.jpg,stim/5.jpg,stim/latef.jpg,CD,1,2,,,,,0,31,31,23,,,,,,,,,,,,,,2,1,0.933027318591,,,,,,PLC_L_D2S1,P21,60.0229710242,02,C,2015_Feb_27_1622,X,
stim/posf.jpg,stim/negf.jpg,stim/5.jpg,stim/2.jpg,stim/latef.jpg,CD,2,4,,,,,0,32,32,36,,,,,,,,,,,,,,4,1,1.44959331133,,,,,,PLC_L_D2S1,P21,60.0229710242,02,C,2015_Feb_27_1622,X,
stim/posf.jpg,stim/negf.jpg,stim/2.jpg,stim/5.jpg,stim/latef.jpg,CD,1,2,,,,,0,33,33,25,,,,,,,,,,,,,,2,1,0.733064725828,,,,,,PLC_L_D2S1,P21,60.0229710242,02,C,2015_Feb_27_1622,X,
stim/posf.jpg,stim/negf.jpg,stim/2.jpg,stim/5.jpg,stim/latef.jpg,CD,1,2,,,,,0,34,34,22,,,,,,,,,,,,,,2,1,1.2662390779,,,,,,PLC_L_D2S1,P21,60.0229710242,02,C,2015_Feb_27_1622,X,
stim/posf.jpg,stim/negf.jpg,stim/5.jpg,stim/2.jpg,stim/latef.jpg,CD,2,4,,,,,0,35,35,34,,,,,,,,,,,,,,4,1,0.916304972143,,,,,,PLC_L_D2S1,P21,60.0229710242,02,C,2015_Feb_27_1622,X,
stim/negf.jpg,stim/posf.jpg,stim/3.jpg,stim/1.jpg,stim/latef.jpg,EF,2,4,,,,,0,36,36,56,,,,,,,,,,,,,,2,0,1.31622891557,,,,,,PLC_L_D2S1,P21,60.0229710242,02,C,2015_Feb_27_1622,X,
stim/posf.jpg,stim/negf.jpg,stim/6.jpg,stim/4.jpg,stim/latef.jpg,AB,1,2,,,,,0,37,37,3,,,,,,,,,,,,,,4,0,1.06630138721,,,,,,PLC_L_D2S1,P21,60.0229710242,02,C,2015_Feb_27_1622,X,
stim/negf.jpg,stim/posf.jpg,stim/1.jpg,stim/3.jpg,stim/latef.jpg,EF,1,2,,,,,0,38,38,47,,,,,,,,,,,,,,4,0,0.933016299125,,,,,,PLC_L_D2S1,P21,60.0229710242,02,C,2015_Feb_27_1622,X,
stim/posf.jpg,stim/negf.jpg,stim/6.jpg,stim/4.jpg,stim/latef.jpg,AB,1,2,,,,,0,39,39,4,,,,,,,,,,,,,,2,1,0.916384318914,,,,,,PLC_L_D2S1,P21,60.0229710242,02,C,2015_Feb_27_1622,X,
stim/posf.jpg,stim/negf.jpg,stim/6.jpg,stim/4.jpg,stim/latef.jpg,AB,1,2,,,,,0,40,40,6,,,,,,,,,,,,,,2,1,0.866359437898,,,,,,PLC_L_D2S1,P21,60.0229710242,02,C,2015_Feb_27_1622,X,
stim/posf.jpg,stim/negf.jpg,stim/4.jpg,stim/6.jpg,stim/latef.jpg,AB,2,4,,,,,0,41,41,10,,,,,,,,,,,,,,4,1,1.14961812618,,,,,,PLC_L_D2S1,P21,60.0229710242,02,C,2015_Feb_27_1622,X,
stim/negf.jpg,stim/posf.jpg,stim/2.jpg,stim/5.jpg,stim/latef.jpg,CD,1,2,,,,,0,42,42,28,,,,,,,,,,,,,,2,1,1.23291570439,,,,,,PLC_L_D2S1,P21,60.0229710242,02,C,2015_Feb_27_1622,X,
stim/posf.jpg,stim/negf.jpg,stim/2.jpg,stim/5.jpg,stim/latef.jpg,CD,1,2,,,,,0,43,43,26,,,,,,,,,,,,,,4,0,0.866389597071,,,,,,PLC_L_D2S1,P21,60.0229710242,02,C,2015_Feb_27_1622,X,
stim/posf.jpg,stim/negf.jpg,stim/4.jpg,stim/6.jpg,stim/latef.jpg,AB,2,4,,,,,0,44,44,15,,,,,,,,,,,,,,4,1,1.04966089879,,,,,,PLC_L_D2S1,P21,60.0229710242,02,C,2015_Feb_27_1622,X,
stim/negf.jpg,stim/posf.jpg,stim/3.jpg,stim/1.jpg,stim/latef.jpg,EF,2,4,,,,,0,45,45,58,,,,,,,,,,,,,,2,0,0.999677283629,,,,,,PLC_L_D2S1,P21,60.0229710242,02,C,2015_Feb_27_1622,X,
stim/negf.jpg,stim/posf.jpg,stim/5.jpg,stim/2.jpg,stim/latef.jpg,CD,2,4,,,,,0,46,46,39,,,,,,,,,,,,,,4,1,1.03294056736,,,,,,PLC_L_D2S1,P21,60.0229710242,02,C,2015_Feb_27_1622,X,
stim/posf.jpg,stim/negf.jpg,stim/5.jpg,stim/2.jpg,stim/latef.jpg,CD,2,4,,,,,0,47,47,35,,,,,,,,,,,,,,4,1,1.19961599086,,,,,,PLC_L_D2S1,P21,60.0229710242,02,C,2015_Feb_27_1622,X,
stim/posf.jpg,stim/negf.jpg,stim/1.jpg,stim/3.jpg,stim/latef.jpg,EF,1,2,,,,,0,48,48,45,,,,,,,,,,,,,,4,0,1.23287890467,,,,,,PLC_L_D2S1,P21,60.0229710242,02,C,2015_Feb_27_1622,X,
stim/negf.jpg,stim/posf.jpg,stim/2.jpg,stim/5.jpg,stim/latef.jpg,CD,1,2,,,,,0,49,49,29,,,,,,,,,,,,,,2,1,1.08303573958,,,,,,PLC_L_D2S1,P21,60.0229710242,02,C,2015_Feb_27_1622,X,
stim/posf.jpg,stim/negf.jpg,stim/3.jpg,stim/1.jpg,stim/latef.jpg,EF,2,4,,,,,0,50,50,50,,,,,,,,,,,,,,4,1,0.883042271862,,,,,,PLC_L_D2S1,P21,60.0229710242,02,C,2015_Feb_27_1622,X,
stim/negf.jpg,stim/posf.jpg,stim/4.jpg,stim/6.jpg,stim/latef.jpg,AB,2,4,,,,,0,51,51,18,,,,,,,,,,,,,,2,0,1.03298451891,,,,,,PLC_L_D2S1,P21,60.0229710242,02,C,2015_Feb_27_1622,X,
stim/posf.jpg,stim/negf.jpg,stim/2.jpg,stim/5.jpg,stim/latef.jpg,CD,1,2,,,,,0,52,52,20,,,,,,,,,,,,,,4,0,0.899662769452,,,,,,PLC_L_D2S1,P21,60.0229710242,02,C,2015_Feb_27_1622,X,
stim/posf.jpg,stim/negf.jpg,stim/5.jpg,stim/2.jpg,stim/latef.jpg,CD,2,4,,,,,0,53,53,31,,,,,,,,,,,,,,4,1,1.06632021413,,,,,,PLC_L_D2S1,P21,60.0229710242,02,C,2015_Feb_27_1622,X,
stim/posf.jpg,stim/negf.jpg,stim/5.jpg,stim/2.jpg,stim/latef.jpg,CD,2,4,,,,,0,54,54,33,,,,,,,,,,,,,,4,1,1.21626198901,,,,,,PLC_L_D2S1,P21,60.0229710242,02,C,2015_Feb_27_1622,X,
stim/posf.jpg,stim/negf.jpg,stim/4.jpg,stim/6.jpg,stim/latef.jpg,AB,2,4,,,,,0,55,55,17,,,,,,,,,,,,,,2,0,0.949702318028,,,,,,PLC_L_D2S1,P21,60.0229710242,02,C,2015_Feb_27_1622,X,
stim/posf.jpg,stim/negf.jpg,stim/3.jpg,stim/1.jpg,stim/latef.jpg,EF,2,4,,,,,0,56,56,53,,,,,,,,,,,,,,4,1,1.36620798039,,,,,,PLC_L_D2S1,P21,60.0229710242,02,C,2015_Feb_27_1622,X,
stim/posf.jpg,stim/negf.jpg,stim/3.jpg,stim/1.jpg,stim/latef.jpg,EF,2,4,,,,,0,57,57,52,,,,,,,,,,,,,,4,1,1.31622607048,,,,,,PLC_L_D2S1,P21,60.0229710242,02,C,2015_Feb_27_1622,X,
stim/posf.jpg,stim/negf.jpg,stim/1.jpg,stim/3.jpg,stim/latef.jpg,EF,1,2,,,,,0,58,58,44,,,,,,,,,,,,,,2,1,1.31623445839,,,,,,PLC_L_D2S1,P21,60.0229710242,02,C,2015_Feb_27_1622,X,
stim/posf.jpg,stim/negf.jpg,stim/2.jpg,stim/5.jpg,stim/latef.jpg,CD,1,2,,,,,0,59,59,24,,,,,,,,,,,,,,2,1,1.5661500109,,,,,,PLC_L_D2S1,P21,60.0229710242,02,C,2015_Feb_27_1622,X,
,,,,,,,,,,,,,,,,,,,,,,,,,,,,,,,,0.9984375,0.955078125,1,0,0,PLC_L_D2S1,P21,60.0229710242,02,C,2015_Feb_27_1622,X,
stim/posf.jpg,stim/negf.jpg,stim/2.jpg,stim/5.jpg,stim/latef.jpg,CD,1,2,,,,,,,,,0,0,0,21,,,,,,,,,,2,1,0.832974356583,,,,,,PLC_L_D2S1,P21,60.0229710242,02,C,2015_Feb_27_1622,X,
stim/posf.jpg,stim/negf.jpg,stim/5.jpg,stim/2.jpg,stim/latef.jpg,CD,2,4,,,,,,,,,0,1,1,35,,,,,,,,,,4,1,0.982996651152,,,,,,PLC_L_D2S1,P21,60.0229710242,02,C,2015_Feb_27_1622,X,
stim/negf.jpg,stim/posf.jpg,stim/3.jpg,stim/1.jpg,stim/latef.jpg,EF,2,4,,,,,,,,,0,2,2,59,,,,,,,,,,2,0,1.14960626461,,,,,,PLC_L_D2S1,P21,60.0229710242,02,C,2015_Feb_27_1622,X,
stim/posf.jpg,stim/negf.jpg,stim/5.jpg,stim/2.jpg,stim/latef.jpg,CD,2,4,,,,,,,,,0,3,3,34,,,,,,,,,,4,1,1.26626556793,,,,,,PLC_L_D2S1,P21,60.0229710242,02,C,2015_Feb_27_1622,X,
stim/posf.jpg,stim/negf.jpg,stim/2.jpg,stim/5.jpg,stim/latef.jpg,CD,1,2,,,,,,,,,0,4,4,22,,,,,,,,,,2,1,1.18294569515,,,,,,PLC_L_D2S1,P21,60.0229710242,02,C,2015_Feb_27_1622,X,
stim/posf.jpg,stim/negf.jpg,stim/3.jpg,stim/1.jpg,stim/latef.jpg,EF,2,4,,,,,,,,,0,5,5,51,,,,,,,,,,2,0,0.833053992075,,,,,,PLC_L_D2S1,P21,60.0229710242,02,C,2015_Feb_27_1622,X,
stim/posf.jpg,stim/negf.jpg,stim/4.jpg,stim/6.jpg,stim/latef.jpg,AB,2,4,,,,,,,,,0,6,6,17,,,,,,,,,,4,1,1.08296025443,,,,,,PLC_L_D2S1,P21,60.0229710242,02,C,2015_Feb_27_1622,X,
stim/posf.jpg,stim/negf.jpg,stim/2.jpg,stim/5.jpg,stim/latef.jpg,CD,1,2,,,,,,,,,0,7,7,26,,,,,,,,,,2,1,0.749742173366,,,,,,PLC_L_D2S1,P21,60.0229710242,02,C,2015_Feb_27_1622,X,
stim/posf.jpg,stim/negf.jpg,stim/6.jpg,stim/4.jpg,stim/latef.jpg,AB,1,2,,,,,,,,,0,8,8,3,,,,,,,,,,2,1,0.849726396042,,,,,,PLC_L_D2S1,P21,60.0229710242,02,C,2015_Feb_27_1622,X,
stim/negf.jpg,stim/posf.jpg,stim/1.jpg,stim/3.jpg,stim/latef.jpg,EF,1,2,,,,,,,,,0,9,9,47,,,,,,,,,,2,1,1.13296548447,,,,,,PLC_L_D2S1,P21,60.0229710242,02,C,2015_Feb_27_1622,X,
stim/posf.jpg,stim/negf.jpg,stim/4.jpg,stim/6.jpg,stim/latef.jpg,AB,2,4,,,,,,,,,0,10,10,11,,,,,,,,,,4,1,0.916360316087,,,,,,PLC_L_D2S1,P21,60.0229710242,02,C,2015_Feb_27_1622,X,
stim/posf.jpg,stim/negf.jpg,stim/3.jpg,stim/1.jpg,stim/latef.jpg,EF,2,4,,,,,,,,,0,11,11,50,,,,,,,,,,2,0,1.5162004827,,,,,,PLC_L_D2S1,P21,60.0229710242,02,C,2015_Feb_27_1622,X,
stim/posf.jpg,stim/negf.jpg,stim/2.jpg,stim/5.jpg,stim/latef.jpg,CD,1,2,,,,,,,,,0,12,12,20,,,,,,,,,,2,1,0.816413593882,,,,,,PLC_L_D2S1,P21,60.0229710242,02,C,2015_Feb_27_1622,X,
stim/posf.jpg,stim/negf.jpg,stim/3.jpg,stim/1.jpg,stim/latef.jpg,EF,2,4,,,,,,,,,0,13,13,53,,,,,,,,,,4,1,0.666459822107,,,,,,PLC_L_D2S1,P21,60.0229710242,02,C,2015_Feb_27_1622,X,
stim/posf.jpg,stim/negf.jpg,stim/6.jpg,stim/4.jpg,stim/latef.jpg,AB,1,2,,,,,,,,,0,14,14,7,,,,,,,,,,2,1,1.41619278953,,,,,,PLC_L_D2S1,P21,60.0229710242,02,C,2015_Feb_27_1622,X,
stim/negf.jpg,stim/posf.jpg,stim/1.jpg,stim/3.jpg,stim/latef.jpg,EF,1,2,,,,,,,,,0,15,15,49,,,,,,,,,,2,1,1.43285812889,,,,,,PLC_L_D2S1,P21,60.0229710242,02,C,2015_Feb_27_1622,X,
stim/posf.jpg,stim/negf.jpg,stim/4.jpg,stim/6.jpg,stim/latef.jpg,AB,2,4,,,,,,,,,0,16,16,13,,,,,,,,,,4,1,1.08298440463,,,,,,PLC_L_D2S1,P21,60.0229710242,02,C,2015_Feb_27_1622,X,
stim/negf.jpg,stim/posf.jpg,stim/2.jpg,stim/5.jpg,stim/latef.jpg,CD,1,2,,,,,,,,,0,17,17,28,,,,,,,,,,2,1,1.28292274795,,,,,,PLC_L_D2S1,P21,60.0229710242,02,C,2015_Feb_27_1622,X,
stim/posf.jpg,stim/negf.jpg,stim/6.jpg,stim/4.jpg,stim/latef.jpg,AB,1,2,,,,,,,,,0,18,18,4,,,,,,,,,,2,1,0.733105005225,,,,,,PLC_L_D2S1,P21,60.0229710242,02,C,2015_Feb_27_1622,X,
stim/negf.jpg,stim/posf.jpg,stim/5.jpg,stim/2.jpg,stim/latef.jpg,CD,2,4,,,,,,,,,0,19,19,39,,,,,,,,,,2,0,1.41620592627,,,,,,PLC_L_D2S1,P21,60.0229710242,02,C,2015_Feb_27_1622,X,
stim/negf.jpg,stim/posf.jpg,stim/5.jpg,stim/2.jpg,stim/latef.jpg,CD,2,4,,,,,,,,,0,20,20,37,,,,,,,,,,2,0,1.11631149841,,,,,,PLC_L_D2S1,P21,60.0229710242,02,C,2015_Feb_27_1622,X,
stim/negf.jpg,stim/posf.jpg,stim/1.jpg,stim/3.jpg,stim/latef.jpg,EF,1,2,,,,,,,,,0,21,21,48,,,,,,,,,,4,0,1.11621038037,,,,,,PLC_L_D2S1,P21,60.0229710242,02,C,2015_Feb_27_1622,X,
stim/posf.jpg,stim/negf.jpg,stim/2.jpg,stim/5.jpg,stim/latef.jpg,CD,1,2,,,,,,,,,0,22,22,23,,,,,,,,,,4,0,1.1162906715,,,,,,PLC_L_D2S1,P21,60.0229710242,02,C,2015_Feb_27_1622,X,
stim/posf.jpg,stim/negf.jpg,stim/5.jpg,stim/2.jpg,stim/latef.jpg,CD,2,4,,,,,,,,,0,23,23,33,,,,,,,,,,4,1,0.999663843129,,,,,,PLC_L_D2S1,P21,60.0229710242,02,C,2015_Feb_27_1622,X,
stim/posf.jpg,stim/negf.jpg,stim/4.jpg,stim/6.jpg,stim/latef.jpg,AB,2,4,,,,,,,,,0,24,24,14,,,,,,,,,,4,1,0.833074791919,,,,,,PLC_L_D2S1,P21,60.0229710242,02,C,2015_Feb_27_1622,X,
stim/posf.jpg,stim/negf.jpg,stim/5.jpg,stim/2.jpg,stim/latef.jpg,CD,2,4,,,,,,,,,0,25,25,30,,,,,,,,,,4,1,1.58281922692,,,,,,PLC_L_D2S1,P21,60.0229710242,02,C,2015_Feb_27_1622,X,
stim/negf.jpg,stim/posf.jpg,stim/2.jpg,stim/5.jpg,stim/latef.jpg,CD,1,2,,,,,,,,,0,26,26,29,,,,,,,,,,2,1,0.766395957926,,,,,,PLC_L_D2S1,P21,60.0229710242,02,C,2015_Feb_27_1622,X,
stim/posf.jpg,stim/negf.jpg,stim/6.jpg,stim/4.jpg,stim/latef.jpg,AB,1,2,,,,,,,,,0,27,27,1,,,,,,,,,,2,1,0.866374406207,,,,,,PLC_L_D2S1,P21,60.0229710242,02,C,2015_Feb_27_1622,X,
stim/posf.jpg,stim/negf.jpg,stim/4.jpg,stim/6.jpg,stim/latef.jpg,AB,2,4,,,,,,,,,0,28,28,15,,,,,,,,,,4,1,0.966360403307,,,,,,PLC_L_D2S1,P21,60.0229710242,02,C,2015_Feb_27_1622,X,
stim/negf.jpg,stim/posf.jpg,stim/2.jpg,stim/5.jpg,stim/latef.jpg,CD,1,2,,,,,,,,,0,29,29,27,,,,,,,,,,2,1,0.949687716633,,,,,,PLC_L_D2S1,P21,60.0229710242,02,C,2015_Feb_27_1622,X,
stim/negf.jpg,stim/posf.jpg,stim/4.jpg,stim/6.jpg,stim/latef.jpg,AB,2,4,,,,,,,,,0,30,30,19,,,,,,,,,,4,1,1.16636475816,,,,,,PLC_L_D2S1,P21,60.0229710242,02,C,2015_Feb_27_1622,X,
stim/posf.jpg,stim/negf.jpg,stim/2.jpg,stim/5.jpg,stim/latef.jpg,CD,1,2,,,,,,,,,0,31,31,25,,,,,,,,,,4,0,0.899710835258,,,,,,PLC_L_D2S1,P21,60.0229710242,02,C,2015_Feb_27_1622,X,
stim/posf.jpg,stim/negf.jpg,stim/1.jpg,stim/3.jpg,stim/latef.jpg,EF,1,2,,,,,,,,,0,32,32,45,,,,,,,,,,4,0,1.1496038496,,,,,,PLC_L_D2S1,P21,60.0229710242,02,C,2015_Feb_27_1622,X,
stim/posf.jpg,stim/negf.jpg,stim/1.jpg,stim/3.jpg,stim/latef.jpg,EF,1,2,,,,,,,,,0,33,33,42,,,,,,,,,,2,1,1.26618877753,,,,,,PLC_L_D2S1,P21,60.0229710242,02,C,2015_Feb_27_1622,X,
stim/negf.jpg,stim/posf.jpg,stim/4.jpg,stim/6.jpg,stim/latef.jpg,AB,2,4,,,,,,,,,0,34,34,18,,,,,,,,,,4,1,1.18293843806,,,,,,PLC_L_D2S1,P21,60.0229710242,02,C,2015_Feb_27_1622,X,
stim/posf.jpg,stim/negf.jpg,stim/5.jpg,stim/2.jpg,stim/latef.jpg,CD,2,4,,,,,,,,,0,35,35,36,,,,,,,,,,2,0,0.966354592823,,,,,,PLC_L_D2S1,P21,60.0229710242,02,C,2015_Feb_27_1622,X,
stim/posf.jpg,stim/negf.jpg,stim/1.jpg,stim/3.jpg,stim/latef.jpg,EF,1,2,,,,,,,,,0,36,36,43,,,,,,,,,,2,1,1.16629313765,,,,,,PLC_L_D2S1,P21,60.0229710242,02,C,2015_Feb_27_1622,X,
stim/posf.jpg,stim/negf.jpg,stim/4.jpg,stim/6.jpg,stim/latef.jpg,AB,2,4,,,,,,,,,0,37,37,10,,,,,,,,,,2,0,1.49951539913,,,,,,PLC_L_D2S1,P21,60.0229710242,02,C,2015_Feb_27_1622,X,
stim/posf.jpg,stim/negf.jpg,stim/6.jpg,stim/4.jpg,stim/latef.jpg,AB,1,2,,,,,,,,,0,38,38,6,,,,,,,,,,2,1,1.49949874963,,,,,,PLC_L_D2S1,P21,60.0229710242,02,C,2015_Feb_27_1622,X,
stim/posf.jpg,stim/negf.jpg,stim/2.jpg,stim/5.jpg,stim/latef.jpg,CD,1,2,,,,,,,,,0,39,39,24,,,,,,,,,,2,1,1.06632031037,,,,,,PLC_L_D2S1,P21,60.0229710242,02,C,2015_Feb_27_1622,X,
stim/negf.jpg,stim/posf.jpg,stim/3.jpg,stim/1.jpg,stim/latef.jpg,EF,2,4,,,,,,,,,0,40,40,57,,,,,,,,,,2,0,0.916366463411,,,,,,PLC_L_D2S1,P21,60.0229710242,02,C,2015_Feb_27_1622,X,
stim/posf.jpg,stim/negf.jpg,stim/3.jpg,stim/1.jpg,stim/latef.jpg,EF,2,4,,,,,,,,,0,41,41,55,,,,,,,,,,2,0,0.74874622296,,,,,,PLC_L_D2S1,P21,60.0229710242,02,C,2015_Feb_27_1622,X,
stim/posf.jpg,stim/negf.jpg,stim/3.jpg,stim/1.jpg,stim/latef.jpg,EF,2,4,,,,,,,,,0,42,42,52,,,,,,,,,,4,1,1.34955772363,,,,,,PLC_L_D2S1,P21,60.0229710242,02,C,2015_Feb_27_1622,X,
stim/negf.jpg,stim/posf.jpg,stim/6.jpg,stim/4.jpg,stim/latef.jpg,AB,1,2,,,,,,,,,0,43,43,9,,,,,,,,,,2,1,0.799748747753,,,,,,PLC_L_D2S1,P21,60.0229710242,02,C,2015_Feb_27_1622,X,
stim/posf.jpg,stim/negf.jpg,stim/1.jpg,stim/3.jpg,stim/latef.jpg,EF,1,2,,,,,,,,,0,44,44,44,,,,,,,,,,2,1,0.983003673657,,,,,,PLC_L_D2S1,P21,60.0229710242,02,C,2015_Feb_27_1622,X,
stim/posf.jpg,stim/negf.jpg,stim/6.jpg,stim/4.jpg,stim/latef.jpg,AB,1,2,,,,,,,,,0,45,45,5,,,,,,,,,,4,0,0.883028729108,,,,,,PLC_L_D2S1,P21,60.0229710242,02,C,2015_Feb_27_1622,X,
stim/posf.jpg,stim/negf.jpg,stim/1.jpg,stim/3.jpg,stim/latef.jpg,EF,1,2,,,,,,,,,0,46,46,40,,,,,,,,,,4,0,1.2162666416,,,,,,PLC_L_D2S1,P21,60.0229710242,02,C,2015_Feb_27_1622,X,
stim/negf.jpg,stim/posf.jpg,stim/3.jpg,stim/1.jpg,stim/latef.jpg,EF,2,4,,,,,,,,,0,47,47,58,,,,,,,,,,4,1,0.999687403855,,,,,,PLC_L_D2S1,P21,60.0229710242,02,C,2015_Feb_27_1622,X,
stim/posf.jpg,stim/negf.jpg,stim/6.jpg,stim/4.jpg,stim/latef.jpg,AB,1,2,,,,,,,,,0,48,48,0,,,,,,,,,,4,0,0.783093703054,,,,,,PLC_L_D2S1,P21,60.0229710242,02,C,2015_Feb_27_1622,X,
stim/negf.jpg,stim/posf.jpg,stim/1.jpg,stim/3.jpg,stim/latef.jpg,EF,1,2,,,,,,,,,0,49,49,46,,,,,,,,,,4,0,1.13296150255,,,,,,PLC_L_D2S1,P21,60.0229710242,02,C,2015_Feb_27_1622,X,
stim/posf.jpg,stim/negf.jpg,stim/1.jpg,stim/3.jpg,stim/latef.jpg,EF,1,2,,,,,,,,,0,50,50,41,,,,,,,,,,4,0,1.16627912271,,,,,,PLC_L_D2S1,P21,60.0229710242,02,C,2015_Feb_27_1622,X,
stim/posf.jpg,stim/negf.jpg,stim/5.jpg,stim/2.jpg,stim/latef.jpg,CD,2,4,,,,,,,,,0,51,51,31,,,,,,,,,,4,1,1.08297243479,,,,,,PLC_L_D2S1,P21,60.0229710242,02,C,2015_Feb_27_1622,X,
stim/posf.jpg,stim/negf.jpg,stim/5.jpg,stim/2.jpg,stim/latef.jpg,CD,2,4,,,,,,,,,0,52,52,32,,,,,,,,,,4,1,1.04972848024,,,,,,PLC_L_D2S1,P21,60.0229710242,02,C,2015_Feb_27_1622,X,
stim/posf.jpg,stim/negf.jpg,stim/6.jpg,stim/4.jpg,stim/latef.jpg,AB,1,2,,,,,,,,,0,53,53,2,,,,,,,,,,2,1,0.933019002865,,,,,,PLC_L_D2S1,P21,60.0229710242,02,C,2015_Feb_27_1622,X,
stim/negf.jpg,stim/posf.jpg,stim/5.jpg,stim/2.jpg,stim/latef.jpg,CD,2,4,,,,,,,,,0,54,54,38,,,,,,,,,,4,1,0.966369708498,,,,,,PLC_L_D2S1,P21,60.0229710242,02,C,2015_Feb_27_1622,X,
stim/negf.jpg,stim/posf.jpg,stim/3.jpg,stim/1.jpg,stim/latef.jpg,EF,2,4,,,,,,,,,0,55,55,56,,,,,,,,,,2,0,1.14963082684,,,,,,PLC_L_D2S1,P21,60.0229710242,02,C,2015_Feb_27_1622,X,
stim/posf.jpg,stim/negf.jpg,stim/3.jpg,stim/1.jpg,stim/latef.jpg,EF,2,4,,,,,,,,,0,56,56,54,,,,,,,,,,2,0,1.24959324516,,,,,,PLC_L_D2S1,P21,60.0229710242,02,C,2015_Feb_27_1622,X,
stim/posf.jpg,stim/negf.jpg,stim/4.jpg,stim/6.jpg,stim/latef.jpg,AB,2,4,,,,,,,,,0,57,57,12,,,,,,,,,,4,1,1.13292274795,,,,,,PLC_L_D2S1,P21,60.0229710242,02,C,2015_Feb_27_1622,X,
stim/negf.jpg,stim/posf.jpg,stim/6.jpg,stim/4.jpg,stim/latef.jpg,AB,1,2,,,,,,,,,0,58,58,8,,,,,,,,,,2,1,0.933018660011,,,,,,PLC_L_D2S1,P21,60.0229710242,02,C,2015_Feb_27_1622,X,
stim/posf.jpg,stim/negf.jpg,stim/4.jpg,stim/6.jpg,stim/latef.jpg,AB,2,4,,,,,,,,,0,59,59,16,,,,,,,,,,2,0,1.09965568981,,,,,,PLC_L_D2S1,P21,60.0229710242,02,C,2015_Feb_27_1622,X,
,,,,,,,,,,,,,,,,,,,,,,,,,,,,,,,,0.9984375,0.955078125,1,0,0,PLC_L_D2S1,P21,60.0229710242,02,C,2015_Feb_27_1622,X,
stim/posf.jpg,stim/negf.jpg,stim/6.jpg,stim/4.jpg,stim/latef.jpg,AB,1,2,,,,,,,,,,,,,0,0,0,5,,,,,,2,1,1.03297133706,,,,,,PLC_L_D2S1,P21,60.0229710242,02,C,2015_Feb_27_1622,X,
stim/posf.jpg,stim/negf.jpg,stim/5.jpg,stim/2.jpg,stim/latef.jpg,CD,2,4,,,,,,,,,,,,,0,1,1,30,,,,,,4,1,0.649777998662,,,,,,PLC_L_D2S1,P21,60.0229710242,02,C,2015_Feb_27_1622,X,
stim/negf.jpg,stim/posf.jpg,stim/4.jpg,stim/6.jpg,stim/latef.jpg,AB,2,4,,,,,,,,,,,,,0,2,2,18,,,,,,4,1,1.21626942955,,,,,,PLC_L_D2S1,P21,60.0229710242,02,C,2015_Feb_27_1622,X,
stim/posf.jpg,stim/negf.jpg,stim/6.jpg,stim/4.jpg,stim/latef.jpg,AB,1,2,,,,,,,,,,,,,0,3,3,7,,,,,,4,0,1.06630512553,,,,,,PLC_L_D2S1,P21,60.0229710242,02,C,2015_Feb_27_1622,X,
stim/negf.jpg,stim/posf.jpg,stim/4.jpg,stim/6.jpg,stim/latef.jpg,AB,2,4,,,,,,,,,,,,,0,4,4,19,,,,,,4,1,1.08290026992,,,,,,PLC_L_D2S1,P21,60.0229710242,02,C,2015_Feb_27_1622,X,
stim/negf.jpg,stim/posf.jpg,stim/2.jpg,stim/5.jpg,stim/latef.jpg,CD,1,2,,,,,,,,,,,,,0,5,5,27,,,,,,2,1,0.833048106404,,,,,,PLC_L_D2S1,P21,60.0229710242,02,C,2015_Feb_27_1622,X,
stim/posf.jpg,stim/negf.jpg,stim/2.jpg,stim/5.jpg,stim/latef.jpg,CD,1,2,,,,,,,,,,,,,0,6,6,20,,,,,,2,1,0.716432294494,,,,,,PLC_L_D2S1,P21,60.0229710242,02,C,2015_Feb_27_1622,X,
stim/negf.jpg,stim/posf.jpg,stim/3.jpg,stim/1.jpg,stim/latef.jpg,EF,2,4,,,,,,,,,,,,,0,7,7,58,,,,,,2,0,0.949744450041,,,,,,PLC_L_D2S1,P21,60.0229710242,02,C,2015_Feb_27_1622,X,
stim/posf.jpg,stim/negf.jpg,stim/2.jpg,stim/5.jpg,stim/latef.jpg,CD,1,2,,,,,,,,,,,,,0,8,8,25,,,,,,2,1,0.816386385064,,,,,,PLC_L_D2S1,P21,60.0229710242,02,C,2015_Feb_27_1622,X,
stim/posf.jpg,stim/negf.jpg,stim/2.jpg,stim/5.jpg,stim/latef.jpg,CD,1,2,,,,,,,,,,,,,0,9,9,26,,,,,,2,1,0.783040335034,,,,,,PLC_L_D2S1,P21,60.0229710242,02,C,2015_Feb_27_1622,X,
stim/posf.jpg,stim/negf.jpg,stim/3.jpg,stim/1.jpg,stim/latef.jpg,EF,2,4,,,,,,,,,,,,,0,10,10,55,,,,,,2,0,0.783081823445,,,,,,PLC_L_D2S1,P21,60.0229710242,02,C,2015_Feb_27_1622,X,
stim/posf.jpg,stim/negf.jpg,stim/1.jpg,stim/3.jpg,stim/latef.jpg,EF,1,2,,,,,,,,,,,,,0,11,11,43,,,,,,4,0,1.24956700175,,,,,,PLC_L_D2S1,P21,60.0229710242,02,C,2015_Feb_27_1622,X,
stim/negf.jpg,stim/posf.jpg,stim/5.jpg,stim/2.jpg,stim/latef.jpg,CD,2,4,,,,,,,,,,,,,0,12,12,39,,,,,,4,1,0.916345311689,,,,,,PLC_L_D2S1,P21,60.0229710242,02,C,2015_Feb_27_1622,X,
stim/posf.jpg,stim/negf.jpg,stim/3.jpg,stim/1.jpg,stim/latef.jpg,EF,2,4,,,,,,,,,,,,,0,13,13,51,,,,,,2,0,0.733102827799,,,,,,PLC_L_D2S1,P21,60.0229710242,02,C,2015_Feb_27_1622,X,
stim/posf.jpg,stim/negf.jpg,stim/6.jpg,stim/4.jpg,stim/latef.jpg,AB,1,2,,,,,,,,,,,,,0,14,14,0,,,,,,2,1,0.649781415177,,,,,,PLC_L_D2S1,P21,60.0229710242,02,C,2015_Feb_27_1622,X,
stim/posf.jpg,stim/negf.jpg,stim/2.jpg,stim/5.jpg,stim/latef.jpg,CD,1,2,,,,,,,,,,,,,0,15,15,23,,,,,,2,1,0.683112151037,,,,,,PLC_L_D2S1,P21,60.0229710242,02,C,2015_Feb_27_1622,X,
stim/posf.jpg,stim/negf.jpg,stim/3.jpg,stim/1.jpg,stim/latef.jpg,EF,2,4,,,,,,,,,,,,,0,16,16,54,,,,,,2,0,0.749760479997,,,,,,PLC_L_D2S1,P21,60.0229710242,02,C,2015_Feb_27_1622,X,
stim/negf.jpg,stim/posf.jpg,stim/3.jpg,stim/1.jpg,stim/latef.jpg,EF,2,4,,,,,,,,,,,,,0,17,17,56,,,,,,2,0,1.03299417298,,,,,,PLC_L_D2S1,P21,60.0229710242,02,C,2015_Feb_27_1622,X,
stim/posf.jpg,stim/negf.jpg,stim/2.jpg,stim/5.jpg,stim/latef.jpg,CD,1,2,,,,,,,,,,,,,0,18,18,21,,,,,,2,1,0.882991878256,,,,,,PLC_L_D2S1,P21,60.0229710242,02,C,2015_Feb_27_1622,X,
stim/posf.jpg,stim/negf.jpg,stim/6.jpg,stim/4.jpg,stim/latef.jpg,AB,1,2,,,,,,,,,,,,,0,19,19,3,,,,,,2,1,0.849685385825,,,,,,PLC_L_D2S1,P21,60.0229710242,02,C,2015_Feb_27_1622,X,
stim/posf.jpg,stim/negf.jpg,stim/1.jpg,stim/3.jpg,stim/latef.jpg,EF,1,2,,,,,,,,,,,,,0,20,20,41,,,,,,4,0,0.866353071031,,,,,,PLC_L_D2S1,P21,60.0229710242,02,C,2015_Feb_27_1622,X,
stim/posf.jpg,stim/negf.jpg,stim/3.jpg,stim/1.jpg,stim/latef.jpg,EF,2,4,,,,,,,,,,,,,0,21,21,50,,,,,,4,1,1.28291682619,,,,,,PLC_L_D2S1,P21,60.0229710242,02,C,2015_Feb_27_1622,X,
stim/negf.jpg,stim/posf.jpg,stim/5.jpg,stim/2.jpg,stim/latef.jpg,CD,2,4,,,,,,,,,,,,,0,22,22,38,,,,,,4,1,1.03298878956,,,,,,PLC_L_D2S1,P21,60.0229710242,02,C,2015_Feb_27_1622,X,
stim/posf.jpg,stim/negf.jpg,stim/6.jpg,stim/4.jpg,stim/latef.jpg,AB,1,2,,,,,,,,,,,,,0,23,23,6,,,,,,2,1,1.0996209021,,,,,,PLC_L_D2S1,P21,60.0229710242,02,C,2015_Feb_27_1622,X,
stim/negf.jpg,stim/posf.jpg,stim/1.jpg,stim/3.jpg,stim/latef.jpg,EF,1,2,,,,,,,,,,,,,0,24,24,46,,,,,,4,0,1.19960517289,,,,,,PLC_L_D2S1,P21,60.0229710242,02,C,2015_Feb_27_1622,X,
stim/posf.jpg,stim/negf.jpg,stim/1.jpg,stim/3.jpg,stim/latef.jpg,EF,1,2,,,,,,,,,,,,,0,25,25,40,,,,,,4,0,1.09965809881,,,,,,PLC_L_D2S1,P21,60.0229710242,02,C,2015_Feb_27_1622,X,
stim/posf.jpg,stim/negf.jpg,stim/6.jpg,stim/4.jpg,stim/latef.jpg,AB,1,2,,,,,,,,,,,,,0,26,26,2,,,,,,2,1,1.13291274502,,,,,,PLC_L_D2S1,P21,60.0229710242,02,C,2015_Feb_27_1622,X,
stim/posf.jpg,stim/negf.jpg,stim/5.jpg,stim/2.jpg,stim/latef.jpg,CD,2,4,,,,,,,,,,,,,0,27,27,36,,,,,,4,1,1.33282839377,,,,,,PLC_L_D2S1,P21,60.0229710242,02,C,2015_Feb_27_1622,X,
stim/posf.jpg,stim/negf.jpg,stim/4.jpg,stim/6.jpg,stim/latef.jpg,AB,2,4,,,,,,,,,,,,,0,28,28,13,,,,,,4,1,1.14956818069,,,,,,PLC_L_D2S1,P21,60.0229710242,02,C,2015_Feb_27_1622,X,
stim/posf.jpg,stim/negf.jpg,stim/1.jpg,stim/3.jpg,stim/latef.jpg,EF,1,2,,,,,,,,,,,,,0,29,29,44,,,,,,4,0,1.13295120488,,,,,,PLC_L_D2S1,P21,60.0229710242,02,C,2015_Feb_27_1622,X,
stim/posf.jpg,stim/negf.jpg,stim/2.jpg,stim/5.jpg,stim/latef.jpg,CD,1,2,,,,,,,,,,,,,0,30,30,22,,,,,,2,1,0.766420706612,,,,,,PLC_L_D2S1,P21,60.0229710242,02,C,2015_Feb_27_1622,X,
stim/posf.jpg,stim/negf.jpg,stim/3.jpg,stim/1.jpg,stim/latef.jpg,EF,2,4,,,,,,,,,,,,,0,31,31,52,,,,,,4,1,1.4661969098,,,,,,PLC_L_D2S1,P21,60.0229710242,02,C,2015_Feb_27_1622,X,
stim/posf.jpg,stim/negf.jpg,stim/4.jpg,stim/6.jpg,stim/latef.jpg,AB,2,4,,,,,,,,,,,,,0,32,32,16,,,,,,4,1,1.03294990263,,,,,,PLC_L_D2S1,P21,60.0229710242,02,C,2015_Feb_27_1622,X,
stim/posf.jpg,stim/negf.jpg,stim/1.jpg,stim/3.jpg,stim/latef.jpg,EF,1,2,,,,,,,,,,,,,0,33,33,42,,,,,,4,0,1.03298297908,,,,,,PLC_L_D2S1,P21,60.0229710242,02,C,2015_Feb_27_1622,X,
stim/posf.jpg,stim/negf.jpg,stim/6.jpg,stim/4.jpg,stim/latef.jpg,AB,1,2,,,,,,,,,,,,,0,34,34,4,,,,,,2,1,0.849714483351,,,,,,PLC_L_D2S1,P21,60.0229710242,02,C,2015_Feb_27_1622,X,
stim/posf.jpg,stim/negf.jpg,stim/5.jpg,stim/2.jpg,stim/latef.jpg,CD,2,4,,,,,,,,,,,,,0,35,35,35,,,,,,4,1,0.966351849987,,,,,,PLC_L_D2S1,P21,60.0229710242,02,C,2015_Feb_27_1622,X,
stim/posf.jpg,stim/negf.jpg,stim/4.jpg,stim/6.jpg,stim/latef.jpg,AB,2,4,,,,,,,,,,,,,0,36,36,10,,,,,,4,1,0.84972093443,,,,,,PLC_L_D2S1,P21,60.0229710242,02,C,2015_Feb_27_1622,X,
stim/negf.jpg,stim/posf.jpg,stim/3.jpg,stim/1.jpg,stim/latef.jpg,EF,2,4,,,,,,,,,,,,,0,37,37,57,,,,,,4,1,1.16625846723,,,,,,PLC_L_D2S1,P21,60.0229710242,02,C,2015_Feb_27_1622,X,
stim/negf.jpg,stim/posf.jpg,stim/2.jpg,stim/5.jpg,stim/latef.jpg,CD,1,2,,,,,,,,,,,,,0,38,38,29,,,,,,2,1,1.01631644273,,,,,,PLC_L_D2S1,P21,60.0229710242,02,C,2015_Feb_27_1622,X,
stim/negf.jpg,stim/posf.jpg,stim/1.jpg,stim/3.jpg,stim/latef.jpg,EF,1,2,,,,,,,,,,,,,0,39,39,48,,,,,,2,1,0.899689085043,,,,,,PLC_L_D2S1,P21,60.0229710242,02,C,2015_Feb_27_1622,X,
stim/negf.jpg,stim/posf.jpg,stim/3.jpg,stim/1.jpg,stim/latef.jpg,EF,2,4,,,,,,,,,,,,,0,40,40,59,,,,,,2,0,1.34948168811,,,,,,PLC_L_D2S1,P21,60.0229710242,02,C,2015_Feb_27_1622,X,
stim/posf.jpg,stim/negf.jpg,stim/4.jpg,stim/6.jpg,stim/latef.jpg,AB,2,4,,,,,,,,,,,,,0,41,41,11,,,,,,4,1,0.866386451229,,,,,,PLC_L_D2S1,P21,60.0229710242,02,C,2015_Feb_27_1622,X,
stim/negf.jpg,stim/posf.jpg,stim/6.jpg,stim/4.jpg,stim/latef.jpg,AB,1,2,,,,,,,,,,,,,0,42,42,8,,,,,,2,1,0.733104472898,,,,,,PLC_L_D2S1,P21,60.0229710242,02,C,2015_Feb_27_1622,X,
stim/negf.jpg,stim/posf.jpg,stim/5.jpg,stim/2.jpg,stim/latef.jpg,CD,2,4,,,,,,,,,,,,,0,43,43,37,,,,,,4,1,0.966365976195,,,,,,PLC_L_D2S1,P21,60.0229710242,02,C,2015_Feb_27_1622,X,
stim/negf.jpg,stim/posf.jpg,stim/2.jpg,stim/5.jpg,stim/latef.jpg,CD,1,2,,,,,,,,,,,,,0,44,44,28,,,,,,4,0,1.0996323787,,,,,,PLC_L_D2S1,P21,60.0229710242,02,C,2015_Feb_27_1622,X,
stim/posf.jpg,stim/negf.jpg,stim/2.jpg,stim/5.jpg,stim/latef.jpg,CD,1,2,,,,,,,,,,,,,0,45,45,24,,,,,,4,0,1.08298367381,,,,,,PLC_L_D2S1,P21,60.0229710242,02,C,2015_Feb_27_1622,X,
stim/posf.jpg,stim/negf.jpg,stim/3.jpg,stim/1.jpg,stim/latef.jpg,EF,2,4,,,,,,,,,,,,,0,46,46,53,,,,,,2,0,1.08300228419,,,,,,PLC_L_D2S1,P21,60.0229710242,02,C,2015_Feb_27_1622,X,
stim/posf.jpg,stim/negf.jpg,stim/5.jpg,stim/2.jpg,stim/latef.jpg,CD,2,4,,,,,,,,,,,,,0,47,47,33,,,,,,None,0,,,,,,,PLC_L_D2S1,P21,60.0229710242,02,C,2015_Feb_27_1622,X,
stim/posf.jpg,stim/negf.jpg,stim/4.jpg,stim/6.jpg,stim/latef.jpg,AB,2,4,,,,,,,,,,,,,0,48,48,14,,,,,,4,1,0.916358758204,,,,,,PLC_L_D2S1,P21,60.0229710242,02,C,2015_Feb_27_1622,X,
stim/posf.jpg,stim/negf.jpg,stim/4.jpg,stim/6.jpg,stim/latef.jpg,AB,2,4,,,,,,,,,,,,,0,49,49,15,,,,,,4,1,0.999654423651,,,,,,PLC_L_D2S1,P21,60.0229710242,02,C,2015_Feb_27_1622,X,
stim/negf.jpg,stim/posf.jpg,stim/1.jpg,stim/3.jpg,stim/latef.jpg,EF,1,2,,,,,,,,,,,,,0,50,50,47,,,,,,4,0,0.949681674574,,,,,,PLC_L_D2S1,P21,60.0229710242,02,C,2015_Feb_27_1622,X,
stim/posf.jpg,stim/negf.jpg,stim/5.jpg,stim/2.jpg,stim/latef.jpg,CD,2,4,,,,,,,,,,,,,0,51,51,31,,,,,,4,1,0.51647080849,,,,,,PLC_L_D2S1,P21,60.0229710242,02,C,2015_Feb_27_1622,X,
stim/posf.jpg,stim/negf.jpg,stim/5.jpg,stim/2.jpg,stim/latef.jpg,CD,2,4,,,,,,,,,,,,,0,52,52,34,,,,,,4,1,0.683099167674,,,,,,PLC_L_D2S1,P21,60.0229710242,02,C,2015_Feb_27_1622,X,
stim/negf.jpg,stim/posf.jpg,stim/1.jpg,stim/3.jpg,stim/latef.jpg,EF,1,2,,,,,,,,,,,,,0,53,53,49,,,,,,4,0,0.916360523604,,,,,,PLC_L_D2S1,P21,60.0229710242,02,C,2015_Feb_27_1622,X,
stim/negf.jpg,stim/posf.jpg,stim/6.jpg,stim/4.jpg,stim/latef.jpg,AB,1,2,,,,,,,,,,,,,0,54,54,9,,,,,,2,1,0.899703887941,,,,,,PLC_L_D2S1,P21,60.0229710242,02,C,2015_Feb_27_1622,X,
stim/posf.jpg,stim/negf.jpg,stim/6.jpg,stim/4.jpg,stim/latef.jpg,AB,1,2,,,,,,,,,,,,,0,55,55,1,,,,,,2,1,0.666428736626,,,,,,PLC_L_D2S1,P21,60.0229710242,02,C,2015_Feb_27_1622,X,
stim/posf.jpg,stim/negf.jpg,stim/4.jpg,stim/6.jpg,stim/latef.jpg,AB,2,4,,,,,,,,,,,,,0,56,56,12,,,,,,4,1,1.11629252412,,,,,,PLC_L_D2S1,P21,60.0229710242,02,C,2015_Feb_27_1622,X,
stim/posf.jpg,stim/negf.jpg,stim/1.jpg,stim/3.jpg,stim/latef.jpg,EF,1,2,,,,,,,,,,,,,0,57,57,45,,,,,,4,0,0.866375636273,,,,,,PLC_L_D2S1,P21,60.0229710242,02,C,2015_Feb_27_1622,X,
stim/posf.jpg,stim/negf.jpg,stim/5.jpg,stim/2.jpg,stim/latef.jpg,CD,2,4,,,,,,,,,,,,,0,58,58,32,,,,,,4,1,1.29960918189,,,,,,PLC_L_D2S1,P21,60.0229710242,02,C,2015_Feb_27_1622,X,
stim/posf.jpg,stim/negf.jpg,stim/4.jpg,stim/6.jpg,stim/latef.jpg,AB,2,4,,,,,,,,,,,,,0,59,59,17,,,,,,4,1,1.09966104616,,,,,,PLC_L_D2S1,P21,60.0229710242,02,C,2015_Feb_27_1622,X,
