fb_corr,fb_incorr,symbol2,symbol1,fb_late,pair,position,correct,block_01.thisRepN,block_01.thisTrialN,block_01.thisN,block_01.thisIndex,block_02.thisRepN,block_02.thisTrialN,block_02.thisN,block_02.thisIndex,block_03.thisRepN,block_03.thisTrialN,block_03.thisN,block_03.thisIndex,block_04.thisRepN,block_04.thisTrialN,block_04.thisN,block_04.thisIndex,mouse.x,mouse.y,mouse.leftButton,mouse.midButton,mouse.rightButton,buttonBox_2.keys,buttonBox_2.corr,buttonBox_2.rt,mouse_2.x,mouse_2.y,mouse_2.leftButton,mouse_2.midButton,mouse_2.rightButton,expName,Participant,frameRate,SessionNumber,Version,date,Group,
,,,,,,,,,,,,,,,,,,,,,,,,0.9984375,0.904296875,1,0,0,,,,,,,,,PLC_L_D2S1,P29,60.0189256943,02,A,2015_Aug_06_1427,X,
stim/posf.jpg,stim/negf.jpg,stim/5.jpg,stim/1.jpg,stim/latef.jpg,EF,2,4,0,0,0,51,,,,,,,,,,,,,,,,,,4,1,0.666477689349,,,,,,PLC_L_D2S1,P29,60.0189256943,02,A,2015_Aug_06_1427,X,
stim/posf.jpg,stim/negf.jpg,stim/3.jpg,stim/2.jpg,stim/latef.jpg,AB,2,4,0,1,1,10,,,,,,,,,,,,,,,,,,2,0,0.783056699361,,,,,,PLC_L_D2S1,P29,60.0189256943,02,A,2015_Aug_06_1427,X,
stim/posf.jpg,stim/negf.jpg,stim/3.jpg,stim/2.jpg,stim/latef.jpg,AB,2,4,0,2,2,13,,,,,,,,,,,,,,,,,,2,0,0.749750650933,,,,,,PLC_L_D2S1,P29,60.0189256943,02,A,2015_Aug_06_1427,X,
stim/posf.jpg,stim/negf.jpg,stim/4.jpg,stim/6.jpg,stim/latef.jpg,CD,2,4,0,3,3,36,,,,,,,,,,,,,,,,,,2,0,0.716362558317,,,,,,PLC_L_D2S1,P29,60.0189256943,02,A,2015_Aug_06_1427,X,
stim/posf.jpg,stim/negf.jpg,stim/3.jpg,stim/2.jpg,stim/latef.jpg,AB,2,4,0,4,4,14,,,,,,,,,,,,,,,,,,4,1,0.699715410728,,,,,,PLC_L_D2S1,P29,60.0189256943,02,A,2015_Aug_06_1427,X,
stim/negf.jpg,stim/posf.jpg,stim/5.jpg,stim/1.jpg,stim/latef.jpg,EF,2,4,0,5,5,58,,,,,,,,,,,,,,,,,,4,1,0.51652252343,,,,,,PLC_L_D2S1,P29,60.0189256943,02,A,2015_Aug_06_1427,X,
stim/negf.jpg,stim/posf.jpg,stim/5.jpg,stim/1.jpg,stim/latef.jpg,EF,2,4,0,6,6,59,,,,,,,,,,,,,,,,,,4,1,0.833105298812,,,,,,PLC_L_D2S1,P29,60.0189256943,02,A,2015_Aug_06_1427,X,
stim/posf.jpg,stim/negf.jpg,stim/6.jpg,stim/4.jpg,stim/latef.jpg,CD,1,2,0,7,7,24,,,,,,,,,,,,,,,,,,4,0,0.916382940042,,,,,,PLC_L_D2S1,P29,60.0189256943,02,A,2015_Aug_06_1427,X,
stim/posf.jpg,stim/negf.jpg,stim/1.jpg,stim/5.jpg,stim/latef.jpg,EF,1,2,0,8,8,43,,,,,,,,,,,,,,,,,,2,1,1.14964318448,,,,,,PLC_L_D2S1,P29,60.0189256943,02,A,2015_Aug_06_1427,X,
stim/negf.jpg,stim/posf.jpg,stim/2.jpg,stim/3.jpg,stim/latef.jpg,AB,1,2,0,9,9,9,,,,,,,,,,,,,,,,,,2,1,0.816344471303,,,,,,PLC_L_D2S1,P29,60.0189256943,02,A,2015_Aug_06_1427,X,
stim/posf.jpg,stim/negf.jpg,stim/6.jpg,stim/4.jpg,stim/latef.jpg,CD,1,2,0,10,10,21,,,,,,,,,,,,,,,,,,2,1,1.03300271952,,,,,,PLC_L_D2S1,P29,60.0189256943,02,A,2015_Aug_06_1427,X,
stim/posf.jpg,stim/negf.jpg,stim/4.jpg,stim/6.jpg,stim/latef.jpg,CD,2,4,0,11,11,33,,,,,,,,,,,,,,,,,,4,1,0.899691922272,,,,,,PLC_L_D2S1,P29,60.0189256943,02,A,2015_Aug_06_1427,X,
stim/negf.jpg,stim/posf.jpg,stim/5.jpg,stim/1.jpg,stim/latef.jpg,EF,2,4,0,12,12,56,,,,,,,,,,,,,,,,,,4,1,0.833100080826,,,,,,PLC_L_D2S1,P29,60.0189256943,02,A,2015_Aug_06_1427,X,
stim/posf.jpg,stim/negf.jpg,stim/6.jpg,stim/4.jpg,stim/latef.jpg,CD,1,2,0,13,13,25,,,,,,,,,,,,,,,,,,2,1,0.849718058819,,,,,,PLC_L_D2S1,P29,60.0189256943,02,A,2015_Aug_06_1427,X,
stim/posf.jpg,stim/negf.jpg,stim/6.jpg,stim/4.jpg,stim/latef.jpg,CD,1,2,0,14,14,22,,,,,,,,,,,,,,,,,,2,1,0.549813925407,,,,,,PLC_L_D2S1,P29,60.0189256943,02,A,2015_Aug_06_1427,X,
stim/posf.jpg,stim/negf.jpg,stim/2.jpg,stim/3.jpg,stim/latef.jpg,AB,1,2,0,15,15,0,,,,,,,,,,,,,,,,,,2,1,0.633129289519,,,,,,PLC_L_D2S1,P29,60.0189256943,02,A,2015_Aug_06_1427,X,
stim/posf.jpg,stim/negf.jpg,stim/3.jpg,stim/2.jpg,stim/latef.jpg,AB,2,4,0,16,16,17,,,,,,,,,,,,,,,,,,2,0,1.11631122657,,,,,,PLC_L_D2S1,P29,60.0189256943,02,A,2015_Aug_06_1427,X,
stim/posf.jpg,stim/negf.jpg,stim/4.jpg,stim/6.jpg,stim/latef.jpg,CD,2,4,0,17,17,30,,,,,,,,,,,,,,,,,,4,1,0.982989815904,,,,,,PLC_L_D2S1,P29,60.0189256943,02,A,2015_Aug_06_1427,X,
stim/posf.jpg,stim/negf.jpg,stim/3.jpg,stim/2.jpg,stim/latef.jpg,AB,2,4,0,18,18,16,,,,,,,,,,,,,,,,,,4,1,0.799666608271,,,,,,PLC_L_D2S1,P29,60.0189256943,02,A,2015_Aug_06_1427,X,
stim/posf.jpg,stim/negf.jpg,stim/5.jpg,stim/1.jpg,stim/latef.jpg,EF,2,4,0,19,19,54,,,,,,,,,,,,,,,,,,2,0,0.849762148547,,,,,,PLC_L_D2S1,P29,60.0189256943,02,A,2015_Aug_06_1427,X,
stim/posf.jpg,stim/negf.jpg,stim/4.jpg,stim/6.jpg,stim/latef.jpg,CD,2,4,0,20,20,35,,,,,,,,,,,,,,,,,,4,1,0.749756831314,,,,,,PLC_L_D2S1,P29,60.0189256943,02,A,2015_Aug_06_1427,X,
stim/negf.jpg,stim/posf.jpg,stim/3.jpg,stim/2.jpg,stim/latef.jpg,AB,2,4,0,21,21,19,,,,,,,,,,,,,,,,,,4,1,0.63310786119,,,,,,PLC_L_D2S1,P29,60.0189256943,02,A,2015_Aug_06_1427,X,
stim/negf.jpg,stim/posf.jpg,stim/2.jpg,stim/3.jpg,stim/latef.jpg,AB,1,2,0,22,22,8,,,,,,,,,,,,,,,,,,2,1,0.633133130077,,,,,,PLC_L_D2S1,P29,60.0189256943,02,A,2015_Aug_06_1427,X,
stim/posf.jpg,stim/negf.jpg,stim/4.jpg,stim/6.jpg,stim/latef.jpg,CD,2,4,0,23,23,32,,,,,,,,,,,,,,,,,,4,1,0.733104174013,,,,,,PLC_L_D2S1,P29,60.0189256943,02,A,2015_Aug_06_1427,X,
stim/negf.jpg,stim/posf.jpg,stim/1.jpg,stim/5.jpg,stim/latef.jpg,EF,1,2,0,24,24,46,,,,,,,,,,,,,,,,,,4,0,0.916375553659,,,,,,PLC_L_D2S1,P29,60.0189256943,02,A,2015_Aug_06_1427,X,
stim/posf.jpg,stim/negf.jpg,stim/4.jpg,stim/6.jpg,stim/latef.jpg,CD,2,4,0,25,25,34,,,,,,,,,,,,,,,,,,4,1,0.833013747965,,,,,,PLC_L_D2S1,P29,60.0189256943,02,A,2015_Aug_06_1427,X,
stim/negf.jpg,stim/posf.jpg,stim/4.jpg,stim/6.jpg,stim/latef.jpg,CD,2,4,0,26,26,39,,,,,,,,,,,,,,,,,,4,1,0.599799115048,,,,,,PLC_L_D2S1,P29,60.0189256943,02,A,2015_Aug_06_1427,X,
stim/negf.jpg,stim/posf.jpg,stim/6.jpg,stim/4.jpg,stim/latef.jpg,CD,1,2,0,27,27,28,,,,,,,,,,,,,,,,,,2,1,0.716425285429,,,,,,PLC_L_D2S1,P29,60.0189256943,02,A,2015_Aug_06_1427,X,
stim/posf.jpg,stim/negf.jpg,stim/5.jpg,stim/1.jpg,stim/latef.jpg,EF,2,4,0,28,28,55,,,,,,,,,,,,,,,,,,2,0,0.766421377203,,,,,,PLC_L_D2S1,P29,60.0189256943,02,A,2015_Aug_06_1427,X,
stim/posf.jpg,stim/negf.jpg,stim/2.jpg,stim/3.jpg,stim/latef.jpg,AB,1,2,0,29,29,7,,,,,,,,,,,,,,,,,,2,1,0.599798432349,,,,,,PLC_L_D2S1,P29,60.0189256943,02,A,2015_Aug_06_1427,X,
stim/negf.jpg,stim/posf.jpg,stim/4.jpg,stim/6.jpg,stim/latef.jpg,CD,2,4,0,30,30,37,,,,,,,,,,,,,,,,,,4,1,0.61643609433,,,,,,PLC_L_D2S1,P29,60.0189256943,02,A,2015_Aug_06_1427,X,
stim/negf.jpg,stim/posf.jpg,stim/6.jpg,stim/4.jpg,stim/latef.jpg,CD,1,2,0,31,31,27,,,,,,,,,,,,,,,,,,2,1,0.683115859596,,,,,,PLC_L_D2S1,P29,60.0189256943,02,A,2015_Aug_06_1427,X,
stim/posf.jpg,stim/negf.jpg,stim/1.jpg,stim/5.jpg,stim/latef.jpg,EF,1,2,0,32,32,40,,,,,,,,,,,,,,,,,,2,1,0.833012620158,,,,,,PLC_L_D2S1,P29,60.0189256943,02,A,2015_Aug_06_1427,X,
stim/posf.jpg,stim/negf.jpg,stim/5.jpg,stim/1.jpg,stim/latef.jpg,EF,2,4,0,33,33,52,,,,,,,,,,,,,,,,,,4,1,1.08296630339,,,,,,PLC_L_D2S1,P29,60.0189256943,02,A,2015_Aug_06_1427,X,
stim/posf.jpg,stim/negf.jpg,stim/2.jpg,stim/3.jpg,stim/latef.jpg,AB,1,2,0,34,34,5,,,,,,,,,,,,,,,,,,2,1,0.666428622234,,,,,,PLC_L_D2S1,P29,60.0189256943,02,A,2015_Aug_06_1427,X,
stim/posf.jpg,stim/negf.jpg,stim/3.jpg,stim/2.jpg,stim/latef.jpg,AB,2,4,0,35,35,11,,,,,,,,,,,,,,,,,,4,1,0.616459612861,,,,,,PLC_L_D2S1,P29,60.0189256943,02,A,2015_Aug_06_1427,X,
stim/posf.jpg,stim/negf.jpg,stim/5.jpg,stim/1.jpg,stim/latef.jpg,EF,2,4,0,36,36,50,,,,,,,,,,,,,,,,,,4,1,0.583132599256,,,,,,PLC_L_D2S1,P29,60.0189256943,02,A,2015_Aug_06_1427,X,
stim/posf.jpg,stim/negf.jpg,stim/2.jpg,stim/3.jpg,stim/latef.jpg,AB,1,2,0,37,37,3,,,,,,,,,,,,,,,,,,2,1,0.633113653605,,,,,,PLC_L_D2S1,P29,60.0189256943,02,A,2015_Aug_06_1427,X,
stim/posf.jpg,stim/negf.jpg,stim/3.jpg,stim/2.jpg,stim/latef.jpg,AB,2,4,0,38,38,12,,,,,,,,,,,,,,,,,,4,1,0.599797560178,,,,,,PLC_L_D2S1,P29,60.0189256943,02,A,2015_Aug_06_1427,X,
stim/posf.jpg,stim/negf.jpg,stim/6.jpg,stim/4.jpg,stim/latef.jpg,CD,1,2,0,39,39,20,,,,,,,,,,,,,,,,,,2,1,0.69969868009,,,,,,PLC_L_D2S1,P29,60.0189256943,02,A,2015_Aug_06_1427,X,
stim/posf.jpg,stim/negf.jpg,stim/3.jpg,stim/2.jpg,stim/latef.jpg,AB,2,4,0,40,40,15,,,,,,,,,,,,,,,,,,4,1,0.516497272587,,,,,,PLC_L_D2S1,P29,60.0189256943,02,A,2015_Aug_06_1427,X,
stim/posf.jpg,stim/negf.jpg,stim/1.jpg,stim/5.jpg,stim/latef.jpg,EF,1,2,0,41,41,44,,,,,,,,,,,,,,,,,,2,1,0.666461256452,,,,,,PLC_L_D2S1,P29,60.0189256943,02,A,2015_Aug_06_1427,X,
stim/posf.jpg,stim/negf.jpg,stim/6.jpg,stim/4.jpg,stim/latef.jpg,CD,1,2,0,42,42,23,,,,,,,,,,,,,,,,,,2,1,0.733076703646,,,,,,PLC_L_D2S1,P29,60.0189256943,02,A,2015_Aug_06_1427,X,
stim/posf.jpg,stim/negf.jpg,stim/6.jpg,stim/4.jpg,stim/latef.jpg,CD,1,2,0,43,43,26,,,,,,,,,,,,,,,,,,2,1,0.483232556024,,,,,,PLC_L_D2S1,P29,60.0189256943,02,A,2015_Aug_06_1427,X,
stim/negf.jpg,stim/posf.jpg,stim/1.jpg,stim/5.jpg,stim/latef.jpg,EF,1,2,0,44,44,49,,,,,,,,,,,,,,,,,,2,1,0.666497637996,,,,,,PLC_L_D2S1,P29,60.0189256943,02,A,2015_Aug_06_1427,X,
stim/posf.jpg,stim/negf.jpg,stim/2.jpg,stim/3.jpg,stim/latef.jpg,AB,1,2,0,45,45,6,,,,,,,,,,,,,,,,,,2,1,0.649790247478,,,,,,PLC_L_D2S1,P29,60.0189256943,02,A,2015_Aug_06_1427,X,
stim/posf.jpg,stim/negf.jpg,stim/2.jpg,stim/3.jpg,stim/latef.jpg,AB,1,2,0,46,46,2,,,,,,,,,,,,,,,,,,2,1,0.516458566257,,,,,,PLC_L_D2S1,P29,60.0189256943,02,A,2015_Aug_06_1427,X,
stim/posf.jpg,stim/negf.jpg,stim/4.jpg,stim/6.jpg,stim/latef.jpg,CD,2,4,0,47,47,31,,,,,,,,,,,,,,,,,,4,1,0.799726141435,,,,,,PLC_L_D2S1,P29,60.0189256943,02,A,2015_Aug_06_1427,X,
stim/posf.jpg,stim/negf.jpg,stim/1.jpg,stim/5.jpg,stim/latef.jpg,EF,1,2,0,48,48,45,,,,,,,,,,,,,,,,,,2,1,0.69977034244,,,,,,PLC_L_D2S1,P29,60.0189256943,02,A,2015_Aug_06_1427,X,
stim/posf.jpg,stim/negf.jpg,stim/1.jpg,stim/5.jpg,stim/latef.jpg,EF,1,2,0,49,49,41,,,,,,,,,,,,,,,,,,2,1,0.89969411172,,,,,,PLC_L_D2S1,P29,60.0189256943,02,A,2015_Aug_06_1427,X,
stim/negf.jpg,stim/posf.jpg,stim/6.jpg,stim/4.jpg,stim/latef.jpg,CD,1,2,0,50,50,29,,,,,,,,,,,,,,,,,,2,1,0.633118396409,,,,,,PLC_L_D2S1,P29,60.0189256943,02,A,2015_Aug_06_1427,X,
stim/posf.jpg,stim/negf.jpg,stim/2.jpg,stim/3.jpg,stim/latef.jpg,AB,1,2,0,51,51,4,,,,,,,,,,,,,,,,,,2,1,0.78307669312,,,,,,PLC_L_D2S1,P29,60.0189256943,02,A,2015_Aug_06_1427,X,
stim/posf.jpg,stim/negf.jpg,stim/5.jpg,stim/1.jpg,stim/latef.jpg,EF,2,4,0,52,52,53,,,,,,,,,,,,,,,,,,4,1,0.999682487791,,,,,,PLC_L_D2S1,P29,60.0189256943,02,A,2015_Aug_06_1427,X,
stim/negf.jpg,stim/posf.jpg,stim/1.jpg,stim/5.jpg,stim/latef.jpg,EF,1,2,0,53,53,47,,,,,,,,,,,,,,,,,,2,1,0.466510040864,,,,,,PLC_L_D2S1,P29,60.0189256943,02,A,2015_Aug_06_1427,X,
stim/posf.jpg,stim/negf.jpg,stim/1.jpg,stim/5.jpg,stim/latef.jpg,EF,1,2,0,54,54,42,,,,,,,,,,,,,,,,,,2,1,0.63318933997,,,,,,PLC_L_D2S1,P29,60.0189256943,02,A,2015_Aug_06_1427,X,
stim/negf.jpg,stim/posf.jpg,stim/1.jpg,stim/5.jpg,stim/latef.jpg,EF,1,2,0,55,55,48,,,,,,,,,,,,,,,,,,2,1,0.616516752067,,,,,,PLC_L_D2S1,P29,60.0189256943,02,A,2015_Aug_06_1427,X,
stim/posf.jpg,stim/negf.jpg,stim/2.jpg,stim/3.jpg,stim/latef.jpg,AB,1,2,0,56,56,1,,,,,,,,,,,,,,,,,,2,1,0.649793375263,,,,,,PLC_L_D2S1,P29,60.0189256943,02,A,2015_Aug_06_1427,X,
stim/negf.jpg,stim/posf.jpg,stim/5.jpg,stim/1.jpg,stim/latef.jpg,EF,2,4,0,57,57,57,,,,,,,,,,,,,,,,,,4,1,0.683122283583,,,,,,PLC_L_D2S1,P29,60.0189256943,02,A,2015_Aug_06_1427,X,
stim/negf.jpg,stim/posf.jpg,stim/4.jpg,stim/6.jpg,stim/latef.jpg,CD,2,4,0,58,58,38,,,,,,,,,,,,,,,,,,4,1,0.799737873633,,,,,,PLC_L_D2S1,P29,60.0189256943,02,A,2015_Aug_06_1427,X,
stim/negf.jpg,stim/posf.jpg,stim/3.jpg,stim/2.jpg,stim/latef.jpg,AB,2,4,0,59,59,18,,,,,,,,,,,,,,,,,,4,1,0.84964876336,,,,,,PLC_L_D2S1,P29,60.0189256943,02,A,2015_Aug_06_1427,X,
,,,,,,,,,,,,,,,,,,,,,,,,,,,,,,,,0.9984375,0.904296875,1,0,0,PLC_L_D2S1,P29,60.0189256943,02,A,2015_Aug_06_1427,X,
stim/negf.jpg,stim/posf.jpg,stim/4.jpg,stim/6.jpg,stim/latef.jpg,CD,2,4,,,,,0,0,0,38,,,,,,,,,,,,,,4,1,0.866366815412,,,,,,PLC_L_D2S1,P29,60.0189256943,02,A,2015_Aug_06_1427,X,
stim/posf.jpg,stim/negf.jpg,stim/5.jpg,stim/1.jpg,stim/latef.jpg,EF,2,4,,,,,0,1,1,54,,,,,,,,,,,,,,4,1,0.749763646275,,,,,,PLC_L_D2S1,P29,60.0189256943,02,A,2015_Aug_06_1427,X,
stim/negf.jpg,stim/posf.jpg,stim/1.jpg,stim/5.jpg,stim/latef.jpg,EF,1,2,,,,,0,2,2,49,,,,,,,,,,,,,,2,1,0.71643645222,,,,,,PLC_L_D2S1,P29,60.0189256943,02,A,2015_Aug_06_1427,X,
stim/negf.jpg,stim/posf.jpg,stim/3.jpg,stim/2.jpg,stim/latef.jpg,AB,2,4,,,,,0,3,3,19,,,,,,,,,,,,,,4,1,0.633049888911,,,,,,PLC_L_D2S1,P29,60.0189256943,02,A,2015_Aug_06_1427,X,
stim/posf.jpg,stim/negf.jpg,stim/1.jpg,stim/5.jpg,stim/latef.jpg,EF,1,2,,,,,0,4,4,41,,,,,,,,,,,,,,2,1,0.616471026267,,,,,,PLC_L_D2S1,P29,60.0189256943,02,A,2015_Aug_06_1427,X,
stim/posf.jpg,stim/negf.jpg,stim/6.jpg,stim/4.jpg,stim/latef.jpg,CD,1,2,,,,,0,5,5,21,,,,,,,,,,,,,,2,1,0.783066930824,,,,,,PLC_L_D2S1,P29,60.0189256943,02,A,2015_Aug_06_1427,X,
stim/posf.jpg,stim/negf.jpg,stim/1.jpg,stim/5.jpg,stim/latef.jpg,EF,1,2,,,,,0,6,6,42,,,,,,,,,,,,,,2,1,0.699783584396,,,,,,PLC_L_D2S1,P29,60.0189256943,02,A,2015_Aug_06_1427,X,
stim/negf.jpg,stim/posf.jpg,stim/5.jpg,stim/1.jpg,stim/latef.jpg,EF,2,4,,,,,0,7,7,59,,,,,,,,,,,,,,4,1,0.58314877351,,,,,,PLC_L_D2S1,P29,60.0189256943,02,A,2015_Aug_06_1427,X,
stim/posf.jpg,stim/negf.jpg,stim/5.jpg,stim/1.jpg,stim/latef.jpg,EF,2,4,,,,,0,8,8,50,,,,,,,,,,,,,,4,1,0.766408162314,,,,,,PLC_L_D2S1,P29,60.0189256943,02,A,2015_Aug_06_1427,X,
stim/posf.jpg,stim/negf.jpg,stim/5.jpg,stim/1.jpg,stim/latef.jpg,EF,2,4,,,,,0,9,9,52,,,,,,,,,,,,,,4,1,0.899715218249,,,,,,PLC_L_D2S1,P29,60.0189256943,02,A,2015_Aug_06_1427,X,
stim/posf.jpg,stim/negf.jpg,stim/3.jpg,stim/2.jpg,stim/latef.jpg,AB,2,4,,,,,0,10,10,17,,,,,,,,,,,,,,4,1,0.649811823175,,,,,,PLC_L_D2S1,P29,60.0189256943,02,A,2015_Aug_06_1427,X,
stim/posf.jpg,stim/negf.jpg,stim/2.jpg,stim/3.jpg,stim/latef.jpg,AB,1,2,,,,,0,11,11,7,,,,,,,,,,,,,,2,1,0.616459727146,,,,,,PLC_L_D2S1,P29,60.0189256943,02,A,2015_Aug_06_1427,X,
stim/posf.jpg,stim/negf.jpg,stim/1.jpg,stim/5.jpg,stim/latef.jpg,EF,1,2,,,,,0,12,12,40,,,,,,,,,,,,,,2,1,0.783076386357,,,,,,PLC_L_D2S1,P29,60.0189256943,02,A,2015_Aug_06_1427,X,
stim/negf.jpg,stim/posf.jpg,stim/4.jpg,stim/6.jpg,stim/latef.jpg,CD,2,4,,,,,0,13,13,37,,,,,,,,,,,,,,2,0,0.883009963046,,,,,,PLC_L_D2S1,P29,60.0189256943,02,A,2015_Aug_06_1427,X,
stim/negf.jpg,stim/posf.jpg,stim/5.jpg,stim/1.jpg,stim/latef.jpg,EF,2,4,,,,,0,14,14,56,,,,,,,,,,,,,,4,1,0.783065959406,,,,,,PLC_L_D2S1,P29,60.0189256943,02,A,2015_Aug_06_1427,X,
stim/posf.jpg,stim/negf.jpg,stim/4.jpg,stim/6.jpg,stim/latef.jpg,CD,2,4,,,,,0,15,15,31,,,,,,,,,,,,,,4,1,0.799768017654,,,,,,PLC_L_D2S1,P29,60.0189256943,02,A,2015_Aug_06_1427,X,
stim/posf.jpg,stim/negf.jpg,stim/6.jpg,stim/4.jpg,stim/latef.jpg,CD,1,2,,,,,0,16,16,22,,,,,,,,,,,,,,2,1,0.716421213294,,,,,,PLC_L_D2S1,P29,60.0189256943,02,A,2015_Aug_06_1427,X,
stim/posf.jpg,stim/negf.jpg,stim/3.jpg,stim/2.jpg,stim/latef.jpg,AB,2,4,,,,,0,17,17,11,,,,,,,,,,,,,,4,1,0.633100956004,,,,,,PLC_L_D2S1,P29,60.0189256943,02,A,2015_Aug_06_1427,X,
stim/posf.jpg,stim/negf.jpg,stim/6.jpg,stim/4.jpg,stim/latef.jpg,CD,1,2,,,,,0,18,18,26,,,,,,,,,,,,,,2,1,0.53320978786,,,,,,PLC_L_D2S1,P29,60.0189256943,02,A,2015_Aug_06_1427,X,
stim/negf.jpg,stim/posf.jpg,stim/4.jpg,stim/6.jpg,stim/latef.jpg,CD,2,4,,,,,0,19,19,39,,,,,,,,,,,,,,4,1,1.06635750123,,,,,,PLC_L_D2S1,P29,60.0189256943,02,A,2015_Aug_06_1427,X,
stim/posf.jpg,stim/negf.jpg,stim/3.jpg,stim/2.jpg,stim/latef.jpg,AB,2,4,,,,,0,20,20,15,,,,,,,,,,,,,,4,1,0.616509531095,,,,,,PLC_L_D2S1,P29,60.0189256943,02,A,2015_Aug_06_1427,X,
stim/posf.jpg,stim/negf.jpg,stim/4.jpg,stim/6.jpg,stim/latef.jpg,CD,2,4,,,,,0,21,21,33,,,,,,,,,,,,,,4,1,0.616458797833,,,,,,PLC_L_D2S1,P29,60.0189256943,02,A,2015_Aug_06_1427,X,
stim/negf.jpg,stim/posf.jpg,stim/6.jpg,stim/4.jpg,stim/latef.jpg,CD,1,2,,,,,0,22,22,28,,,,,,,,,,,,,,2,1,0.549824099728,,,,,,PLC_L_D2S1,P29,60.0189256943,02,A,2015_Aug_06_1427,X,
stim/posf.jpg,stim/negf.jpg,stim/6.jpg,stim/4.jpg,stim/latef.jpg,CD,1,2,,,,,0,23,23,23,,,,,,,,,,,,,,2,1,0.583130196276,,,,,,PLC_L_D2S1,P29,60.0189256943,02,A,2015_Aug_06_1427,X,
stim/posf.jpg,stim/negf.jpg,stim/3.jpg,stim/2.jpg,stim/latef.jpg,AB,2,4,,,,,0,24,24,10,,,,,,,,,,,,,,4,1,0.699756923042,,,,,,PLC_L_D2S1,P29,60.0189256943,02,A,2015_Aug_06_1427,X,
stim/posf.jpg,stim/negf.jpg,stim/4.jpg,stim/6.jpg,stim/latef.jpg,CD,2,4,,,,,0,25,25,34,,,,,,,,,,,,,,4,1,1.0329928279,,,,,,PLC_L_D2S1,P29,60.0189256943,02,A,2015_Aug_06_1427,X,
stim/posf.jpg,stim/negf.jpg,stim/5.jpg,stim/1.jpg,stim/latef.jpg,EF,2,4,,,,,0,26,26,53,,,,,,,,,,,,,,4,1,0.68311500547,,,,,,PLC_L_D2S1,P29,60.0189256943,02,A,2015_Aug_06_1427,X,
stim/negf.jpg,stim/posf.jpg,stim/6.jpg,stim/4.jpg,stim/latef.jpg,CD,1,2,,,,,0,27,27,27,,,,,,,,,,,,,,2,1,0.616494054578,,,,,,PLC_L_D2S1,P29,60.0189256943,02,A,2015_Aug_06_1427,X,
stim/posf.jpg,stim/negf.jpg,stim/3.jpg,stim/2.jpg,stim/latef.jpg,AB,2,4,,,,,0,28,28,13,,,,,,,,,,,,,,4,1,0.566482032158,,,,,,PLC_L_D2S1,P29,60.0189256943,02,A,2015_Aug_06_1427,X,
stim/negf.jpg,stim/posf.jpg,stim/1.jpg,stim/5.jpg,stim/latef.jpg,EF,1,2,,,,,0,29,29,46,,,,,,,,,,,,,,2,1,0.583159257602,,,,,,PLC_L_D2S1,P29,60.0189256943,02,A,2015_Aug_06_1427,X,
stim/posf.jpg,stim/negf.jpg,stim/4.jpg,stim/6.jpg,stim/latef.jpg,CD,2,4,,,,,0,30,30,35,,,,,,,,,,,,,,4,1,0.549793540674,,,,,,PLC_L_D2S1,P29,60.0189256943,02,A,2015_Aug_06_1427,X,
stim/posf.jpg,stim/negf.jpg,stim/3.jpg,stim/2.jpg,stim/latef.jpg,AB,2,4,,,,,0,31,31,16,,,,,,,,,,,,,,4,1,0.54972282869,,,,,,PLC_L_D2S1,P29,60.0189256943,02,A,2015_Aug_06_1427,X,
stim/posf.jpg,stim/negf.jpg,stim/6.jpg,stim/4.jpg,stim/latef.jpg,CD,1,2,,,,,0,32,32,24,,,,,,,,,,,,,,2,1,0.799714126532,,,,,,PLC_L_D2S1,P29,60.0189256943,02,A,2015_Aug_06_1427,X,
stim/posf.jpg,stim/negf.jpg,stim/2.jpg,stim/3.jpg,stim/latef.jpg,AB,1,2,,,,,0,33,33,3,,,,,,,,,,,,,,2,1,0.666455560276,,,,,,PLC_L_D2S1,P29,60.0189256943,02,A,2015_Aug_06_1427,X,
stim/negf.jpg,stim/posf.jpg,stim/2.jpg,stim/3.jpg,stim/latef.jpg,AB,1,2,,,,,0,34,34,8,,,,,,,,,,,,,,2,1,0.666430255298,,,,,,PLC_L_D2S1,P29,60.0189256943,02,A,2015_Aug_06_1427,X,
stim/negf.jpg,stim/posf.jpg,stim/3.jpg,stim/2.jpg,stim/latef.jpg,AB,2,4,,,,,0,35,35,18,,,,,,,,,,,,,,4,1,0.799718911441,,,,,,PLC_L_D2S1,P29,60.0189256943,02,A,2015_Aug_06_1427,X,
stim/posf.jpg,stim/negf.jpg,stim/2.jpg,stim/3.jpg,stim/latef.jpg,AB,1,2,,,,,0,36,36,2,,,,,,,,,,,,,,2,1,0.433166119179,,,,,,PLC_L_D2S1,P29,60.0189256943,02,A,2015_Aug_06_1427,X,
stim/posf.jpg,stim/negf.jpg,stim/1.jpg,stim/5.jpg,stim/latef.jpg,EF,1,2,,,,,0,37,37,43,,,,,,,,,,,,,,2,1,0.599782540799,,,,,,PLC_L_D2S1,P29,60.0189256943,02,A,2015_Aug_06_1427,X,
stim/posf.jpg,stim/negf.jpg,stim/2.jpg,stim/3.jpg,stim/latef.jpg,AB,1,2,,,,,0,38,38,6,,,,,,,,,,,,,,2,1,0.599738285658,,,,,,PLC_L_D2S1,P29,60.0189256943,02,A,2015_Aug_06_1427,X,
stim/posf.jpg,stim/negf.jpg,stim/5.jpg,stim/1.jpg,stim/latef.jpg,EF,2,4,,,,,0,39,39,51,,,,,,,,,,,,,,4,1,1.11629708838,,,,,,PLC_L_D2S1,P29,60.0189256943,02,A,2015_Aug_06_1427,X,
stim/posf.jpg,stim/negf.jpg,stim/5.jpg,stim/1.jpg,stim/latef.jpg,EF,2,4,,,,,0,40,40,55,,,,,,,,,,,,,,4,1,0.866384803179,,,,,,PLC_L_D2S1,P29,60.0189256943,02,A,2015_Aug_06_1427,X,
stim/posf.jpg,stim/negf.jpg,stim/3.jpg,stim/2.jpg,stim/latef.jpg,AB,2,4,,,,,0,41,41,14,,,,,,,,,,,,,,4,1,0.633128745164,,,,,,PLC_L_D2S1,P29,60.0189256943,02,A,2015_Aug_06_1427,X,
stim/posf.jpg,stim/negf.jpg,stim/6.jpg,stim/4.jpg,stim/latef.jpg,CD,1,2,,,,,0,42,42,20,,,,,,,,,,,,,,2,1,0.599805205205,,,,,,PLC_L_D2S1,P29,60.0189256943,02,A,2015_Aug_06_1427,X,
stim/posf.jpg,stim/negf.jpg,stim/1.jpg,stim/5.jpg,stim/latef.jpg,EF,1,2,,,,,0,43,43,45,,,,,,,,,,,,,,2,1,0.51649812972,,,,,,PLC_L_D2S1,P29,60.0189256943,02,A,2015_Aug_06_1427,X,
stim/negf.jpg,stim/posf.jpg,stim/6.jpg,stim/4.jpg,stim/latef.jpg,CD,1,2,,,,,0,44,44,29,,,,,,,,,,,,,,2,1,0.666410667549,,,,,,PLC_L_D2S1,P29,60.0189256943,02,A,2015_Aug_06_1427,X,
stim/posf.jpg,stim/negf.jpg,stim/2.jpg,stim/3.jpg,stim/latef.jpg,AB,1,2,,,,,0,45,45,4,,,,,,,,,,,,,,2,1,0.59972151893,,,,,,PLC_L_D2S1,P29,60.0189256943,02,A,2015_Aug_06_1427,X,
stim/negf.jpg,stim/posf.jpg,stim/1.jpg,stim/5.jpg,stim/latef.jpg,EF,1,2,,,,,0,46,46,48,,,,,,,,,,,,,,2,1,0.749762022233,,,,,,PLC_L_D2S1,P29,60.0189256943,02,A,2015_Aug_06_1427,X,
stim/posf.jpg,stim/negf.jpg,stim/2.jpg,stim/3.jpg,stim/latef.jpg,AB,1,2,,,,,0,47,47,1,,,,,,,,,,,,,,2,1,0.766401633064,,,,,,PLC_L_D2S1,P29,60.0189256943,02,A,2015_Aug_06_1427,X,
stim/negf.jpg,stim/posf.jpg,stim/2.jpg,stim/3.jpg,stim/latef.jpg,AB,1,2,,,,,0,48,48,9,,,,,,,,,,,,,,2,1,0.616491501224,,,,,,PLC_L_D2S1,P29,60.0189256943,02,A,2015_Aug_06_1427,X,
stim/posf.jpg,stim/negf.jpg,stim/4.jpg,stim/6.jpg,stim/latef.jpg,CD,2,4,,,,,0,49,49,32,,,,,,,,,,,,,,4,1,0.616483047184,,,,,,PLC_L_D2S1,P29,60.0189256943,02,A,2015_Aug_06_1427,X,
stim/posf.jpg,stim/negf.jpg,stim/4.jpg,stim/6.jpg,stim/latef.jpg,CD,2,4,,,,,0,50,50,36,,,,,,,,,,,,,,4,1,0.733105870234,,,,,,PLC_L_D2S1,P29,60.0189256943,02,A,2015_Aug_06_1427,X,
stim/posf.jpg,stim/negf.jpg,stim/2.jpg,stim/3.jpg,stim/latef.jpg,AB,1,2,,,,,0,51,51,5,,,,,,,,,,,,,,2,1,0.583099664289,,,,,,PLC_L_D2S1,P29,60.0189256943,02,A,2015_Aug_06_1427,X,
stim/posf.jpg,stim/negf.jpg,stim/6.jpg,stim/4.jpg,stim/latef.jpg,CD,1,2,,,,,0,52,52,25,,,,,,,,,,,,,,2,1,0.56644920546,,,,,,PLC_L_D2S1,P29,60.0189256943,02,A,2015_Aug_06_1427,X,
stim/negf.jpg,stim/posf.jpg,stim/5.jpg,stim/1.jpg,stim/latef.jpg,EF,2,4,,,,,0,53,53,58,,,,,,,,,,,,,,4,1,0.683109270196,,,,,,PLC_L_D2S1,P29,60.0189256943,02,A,2015_Aug_06_1427,X,
stim/negf.jpg,stim/posf.jpg,stim/5.jpg,stim/1.jpg,stim/latef.jpg,EF,2,4,,,,,0,54,54,57,,,,,,,,,,,,,,4,1,0.549801531562,,,,,,PLC_L_D2S1,P29,60.0189256943,02,A,2015_Aug_06_1427,X,
stim/posf.jpg,stim/negf.jpg,stim/1.jpg,stim/5.jpg,stim/latef.jpg,EF,1,2,,,,,0,55,55,44,,,,,,,,,,,,,,2,1,0.766407660064,,,,,,PLC_L_D2S1,P29,60.0189256943,02,A,2015_Aug_06_1427,X,
stim/posf.jpg,stim/negf.jpg,stim/4.jpg,stim/6.jpg,stim/latef.jpg,CD,2,4,,,,,0,56,56,30,,,,,,,,,,,,,,4,1,0.716432626699,,,,,,PLC_L_D2S1,P29,60.0189256943,02,A,2015_Aug_06_1427,X,
stim/posf.jpg,stim/negf.jpg,stim/3.jpg,stim/2.jpg,stim/latef.jpg,AB,2,4,,,,,0,57,57,12,,,,,,,,,,,,,,4,1,0.466519752033,,,,,,PLC_L_D2S1,P29,60.0189256943,02,A,2015_Aug_06_1427,X,
stim/posf.jpg,stim/negf.jpg,stim/2.jpg,stim/3.jpg,stim/latef.jpg,AB,1,2,,,,,0,58,58,0,,,,,,,,,,,,,,2,1,0.549809651771,,,,,,PLC_L_D2S1,P29,60.0189256943,02,A,2015_Aug_06_1427,X,
stim/negf.jpg,stim/posf.jpg,stim/1.jpg,stim/5.jpg,stim/latef.jpg,EF,1,2,,,,,0,59,59,47,,,,,,,,,,,,,,2,1,0.783060927884,,,,,,PLC_L_D2S1,P29,60.0189256943,02,A,2015_Aug_06_1427,X,
,,,,,,,,,,,,,,,,,,,,,,,,,,,,,,,,0.9984375,0.904296875,1,0,0,PLC_L_D2S1,P29,60.0189256943,02,A,2015_Aug_06_1427,X,
stim/posf.jpg,stim/negf.jpg,stim/2.jpg,stim/3.jpg,stim/latef.jpg,AB,1,2,,,,,,,,,0,0,0,7,,,,,,,,,,2,1,0.6497774386,,,,,,PLC_L_D2S1,P29,60.0189256943,02,A,2015_Aug_06_1427,X,
stim/negf.jpg,stim/posf.jpg,stim/6.jpg,stim/4.jpg,stim/latef.jpg,CD,1,2,,,,,,,,,0,1,1,27,,,,,,,,,,2,1,0.566461903061,,,,,,PLC_L_D2S1,P29,60.0189256943,02,A,2015_Aug_06_1427,X,
stim/posf.jpg,stim/negf.jpg,stim/6.jpg,stim/4.jpg,stim/latef.jpg,CD,1,2,,,,,,,,,0,2,2,25,,,,,,,,,,2,1,0.61646487596,,,,,,PLC_L_D2S1,P29,60.0189256943,02,A,2015_Aug_06_1427,X,
stim/posf.jpg,stim/negf.jpg,stim/5.jpg,stim/1.jpg,stim/latef.jpg,EF,2,4,,,,,,,,,0,3,3,54,,,,,,,,,,4,1,0.649837507096,,,,,,PLC_L_D2S1,P29,60.0189256943,02,A,2015_Aug_06_1427,X,
stim/posf.jpg,stim/negf.jpg,stim/4.jpg,stim/6.jpg,stim/latef.jpg,CD,2,4,,,,,,,,,0,4,4,33,,,,,,,,,,4,1,0.616450361838,,,,,,PLC_L_D2S1,P29,60.0189256943,02,A,2015_Aug_06_1427,X,
stim/negf.jpg,stim/posf.jpg,stim/1.jpg,stim/5.jpg,stim/latef.jpg,EF,1,2,,,,,,,,,0,5,5,49,,,,,,,,,,2,1,0.533215345692,,,,,,PLC_L_D2S1,P29,60.0189256943,02,A,2015_Aug_06_1427,X,
stim/posf.jpg,stim/negf.jpg,stim/4.jpg,stim/6.jpg,stim/latef.jpg,CD,2,4,,,,,,,,,0,6,6,32,,,,,,,,,,4,1,0.583129826356,,,,,,PLC_L_D2S1,P29,60.0189256943,02,A,2015_Aug_06_1427,X,
stim/posf.jpg,stim/negf.jpg,stim/1.jpg,stim/5.jpg,stim/latef.jpg,EF,1,2,,,,,,,,,0,7,7,45,,,,,,,,,,2,1,0.533173767213,,,,,,PLC_L_D2S1,P29,60.0189256943,02,A,2015_Aug_06_1427,X,
stim/posf.jpg,stim/negf.jpg,stim/4.jpg,stim/6.jpg,stim/latef.jpg,CD,2,4,,,,,,,,,0,8,8,31,,,,,,,,,,4,1,0.549833290602,,,,,,PLC_L_D2S1,P29,60.0189256943,02,A,2015_Aug_06_1427,X,
stim/negf.jpg,stim/posf.jpg,stim/5.jpg,stim/1.jpg,stim/latef.jpg,EF,2,4,,,,,,,,,0,9,9,58,,,,,,,,,,4,1,0.599793939166,,,,,,PLC_L_D2S1,P29,60.0189256943,02,A,2015_Aug_06_1427,X,
stim/negf.jpg,stim/posf.jpg,stim/2.jpg,stim/3.jpg,stim/latef.jpg,AB,1,2,,,,,,,,,0,10,10,9,,,,,,,,,,2,1,0.49987469615,,,,,,PLC_L_D2S1,P29,60.0189256943,02,A,2015_Aug_06_1427,X,
stim/posf.jpg,stim/negf.jpg,stim/4.jpg,stim/6.jpg,stim/latef.jpg,CD,2,4,,,,,,,,,0,11,11,36,,,,,,,,,,4,1,0.54975914407,,,,,,PLC_L_D2S1,P29,60.0189256943,02,A,2015_Aug_06_1427,X,
stim/posf.jpg,stim/negf.jpg,stim/5.jpg,stim/1.jpg,stim/latef.jpg,EF,2,4,,,,,,,,,0,12,12,50,,,,,,,,,,4,1,0.616446653609,,,,,,PLC_L_D2S1,P29,60.0189256943,02,A,2015_Aug_06_1427,X,
stim/posf.jpg,stim/negf.jpg,stim/2.jpg,stim/3.jpg,stim/latef.jpg,AB,1,2,,,,,,,,,0,13,13,2,,,,,,,,,,2,1,0.566469262377,,,,,,PLC_L_D2S1,P29,60.0189256943,02,A,2015_Aug_06_1427,X,
stim/posf.jpg,stim/negf.jpg,stim/2.jpg,stim/3.jpg,stim/latef.jpg,AB,1,2,,,,,,,,,0,14,14,4,,,,,,,,,,2,1,0.616510102518,,,,,,PLC_L_D2S1,P29,60.0189256943,02,A,2015_Aug_06_1427,X,
stim/posf.jpg,stim/negf.jpg,stim/1.jpg,stim/5.jpg,stim/latef.jpg,EF,1,2,,,,,,,,,0,15,15,41,,,,,,,,,,2,1,0.699779283692,,,,,,PLC_L_D2S1,P29,60.0189256943,02,A,2015_Aug_06_1427,X,
stim/negf.jpg,stim/posf.jpg,stim/4.jpg,stim/6.jpg,stim/latef.jpg,CD,2,4,,,,,,,,,0,16,16,38,,,,,,,,,,4,1,0.733097449277,,,,,,PLC_L_D2S1,P29,60.0189256943,02,A,2015_Aug_06_1427,X,
stim/negf.jpg,stim/posf.jpg,stim/6.jpg,stim/4.jpg,stim/latef.jpg,CD,1,2,,,,,,,,,0,17,17,28,,,,,,,,,,2,1,0.666373332631,,,,,,PLC_L_D2S1,P29,60.0189256943,02,A,2015_Aug_06_1427,X,
stim/negf.jpg,stim/posf.jpg,stim/3.jpg,stim/2.jpg,stim/latef.jpg,AB,2,4,,,,,,,,,0,18,18,18,,,,,,,,,,4,1,0.633057353489,,,,,,PLC_L_D2S1,P29,60.0189256943,02,A,2015_Aug_06_1427,X,
stim/posf.jpg,stim/negf.jpg,stim/1.jpg,stim/5.jpg,stim/latef.jpg,EF,1,2,,,,,,,,,0,19,19,44,,,,,,,,,,2,1,0.583144541979,,,,,,PLC_L_D2S1,P29,60.0189256943,02,A,2015_Aug_06_1427,X,
stim/posf.jpg,stim/negf.jpg,stim/2.jpg,stim/3.jpg,stim/latef.jpg,AB,1,2,,,,,,,,,0,20,20,3,,,,,,,,,,2,1,0.566467003755,,,,,,PLC_L_D2S1,P29,60.0189256943,02,A,2015_Aug_06_1427,X,
stim/negf.jpg,stim/posf.jpg,stim/5.jpg,stim/1.jpg,stim/latef.jpg,EF,2,4,,,,,,,,,0,21,21,56,,,,,,,,,,4,1,0.649805720988,,,,,,PLC_L_D2S1,P29,60.0189256943,02,A,2015_Aug_06_1427,X,
stim/posf.jpg,stim/negf.jpg,stim/3.jpg,stim/2.jpg,stim/latef.jpg,AB,2,4,,,,,,,,,0,22,22,14,,,,,,,,,,4,1,0.599791713627,,,,,,PLC_L_D2S1,P29,60.0189256943,02,A,2015_Aug_06_1427,X,
stim/posf.jpg,stim/negf.jpg,stim/3.jpg,stim/2.jpg,stim/latef.jpg,AB,2,4,,,,,,,,,0,23,23,16,,,,,,,,,,4,1,0.533165418435,,,,,,PLC_L_D2S1,P29,60.0189256943,02,A,2015_Aug_06_1427,X,
stim/posf.jpg,stim/negf.jpg,stim/1.jpg,stim/5.jpg,stim/latef.jpg,EF,1,2,,,,,,,,,0,24,24,43,,,,,,,,,,2,1,0.649768840201,,,,,,PLC_L_D2S1,P29,60.0189256943,02,A,2015_Aug_06_1427,X,
stim/posf.jpg,stim/negf.jpg,stim/6.jpg,stim/4.jpg,stim/latef.jpg,CD,1,2,,,,,,,,,0,25,25,26,,,,,,,,,,2,1,0.616404660098,,,,,,PLC_L_D2S1,P29,60.0189256943,02,A,2015_Aug_06_1427,X,
stim/negf.jpg,stim/posf.jpg,stim/3.jpg,stim/2.jpg,stim/latef.jpg,AB,2,4,,,,,,,,,0,26,26,19,,,,,,,,,,4,1,0.51649320346,,,,,,PLC_L_D2S1,P29,60.0189256943,02,A,2015_Aug_06_1427,X,
stim/posf.jpg,stim/negf.jpg,stim/2.jpg,stim/3.jpg,stim/latef.jpg,AB,1,2,,,,,,,,,0,27,27,0,,,,,,,,,,2,1,0.566473665334,,,,,,PLC_L_D2S1,P29,60.0189256943,02,A,2015_Aug_06_1427,X,
stim/posf.jpg,stim/negf.jpg,stim/4.jpg,stim/6.jpg,stim/latef.jpg,CD,2,4,,,,,,,,,0,28,28,30,,,,,,,,,,4,1,0.633128844412,,,,,,PLC_L_D2S1,P29,60.0189256943,02,A,2015_Aug_06_1427,X,
stim/posf.jpg,stim/negf.jpg,stim/3.jpg,stim/2.jpg,stim/latef.jpg,AB,2,4,,,,,,,,,0,29,29,12,,,,,,,,,,4,1,0.566480122405,,,,,,PLC_L_D2S1,P29,60.0189256943,02,A,2015_Aug_06_1427,X,
stim/negf.jpg,stim/posf.jpg,stim/1.jpg,stim/5.jpg,stim/latef.jpg,EF,1,2,,,,,,,,,0,30,30,47,,,,,,,,,,2,1,0.533136387184,,,,,,PLC_L_D2S1,P29,60.0189256943,02,A,2015_Aug_06_1427,X,
stim/posf.jpg,stim/negf.jpg,stim/1.jpg,stim/5.jpg,stim/latef.jpg,EF,1,2,,,,,,,,,0,31,31,42,,,,,,,,,,2,1,0.766404781901,,,,,,PLC_L_D2S1,P29,60.0189256943,02,A,2015_Aug_06_1427,X,
stim/negf.jpg,stim/posf.jpg,stim/5.jpg,stim/1.jpg,stim/latef.jpg,EF,2,4,,,,,,,,,0,32,32,59,,,,,,,,,,4,1,0.733067681192,,,,,,PLC_L_D2S1,P29,60.0189256943,02,A,2015_Aug_06_1427,X,
stim/posf.jpg,stim/negf.jpg,stim/3.jpg,stim/2.jpg,stim/latef.jpg,AB,2,4,,,,,,,,,0,33,33,15,,,,,,,,,,4,1,0.666489926805,,,,,,PLC_L_D2S1,P29,60.0189256943,02,A,2015_Aug_06_1427,X,
stim/posf.jpg,stim/negf.jpg,stim/6.jpg,stim/4.jpg,stim/latef.jpg,CD,1,2,,,,,,,,,0,34,34,24,,,,,,,,,,2,1,0.649786367823,,,,,,PLC_L_D2S1,P29,60.0189256943,02,A,2015_Aug_06_1427,X,
stim/posf.jpg,stim/negf.jpg,stim/3.jpg,stim/2.jpg,stim/latef.jpg,AB,2,4,,,,,,,,,0,35,35,17,,,,,,,,,,4,1,0.516494493671,,,,,,PLC_L_D2S1,P29,60.0189256943,02,A,2015_Aug_06_1427,X,
stim/negf.jpg,stim/posf.jpg,stim/4.jpg,stim/6.jpg,stim/latef.jpg,CD,2,4,,,,,,,,,0,36,36,37,,,,,,,,,,4,1,0.566476447258,,,,,,PLC_L_D2S1,P29,60.0189256943,02,A,2015_Aug_06_1427,X,
stim/posf.jpg,stim/negf.jpg,stim/2.jpg,stim/3.jpg,stim/latef.jpg,AB,1,2,,,,,,,,,0,37,37,1,,,,,,,,,,2,1,0.649795639899,,,,,,PLC_L_D2S1,P29,60.0189256943,02,A,2015_Aug_06_1427,X,
stim/negf.jpg,stim/posf.jpg,stim/4.jpg,stim/6.jpg,stim/latef.jpg,CD,2,4,,,,,,,,,0,38,38,39,,,,,,,,,,4,1,0.516554992237,,,,,,PLC_L_D2S1,P29,60.0189256943,02,A,2015_Aug_06_1427,X,
stim/posf.jpg,stim/negf.jpg,stim/6.jpg,stim/4.jpg,stim/latef.jpg,CD,1,2,,,,,,,,,0,39,39,20,,,,,,,,,,2,1,0.566471632275,,,,,,PLC_L_D2S1,P29,60.0189256943,02,A,2015_Aug_06_1427,X,
stim/posf.jpg,stim/negf.jpg,stim/5.jpg,stim/1.jpg,stim/latef.jpg,EF,2,4,,,,,,,,,0,40,40,55,,,,,,,,,,4,1,0.549804704458,,,,,,PLC_L_D2S1,P29,60.0189256943,02,A,2015_Aug_06_1427,X,
stim/posf.jpg,stim/negf.jpg,stim/4.jpg,stim/6.jpg,stim/latef.jpg,CD,2,4,,,,,,,,,0,41,41,34,,,,,,,,,,4,1,0.616480099849,,,,,,PLC_L_D2S1,P29,60.0189256943,02,A,2015_Aug_06_1427,X,
stim/posf.jpg,stim/negf.jpg,stim/6.jpg,stim/4.jpg,stim/latef.jpg,CD,1,2,,,,,,,,,0,42,42,21,,,,,,,,,,2,1,0.483170971756,,,,,,PLC_L_D2S1,P29,60.0189256943,02,A,2015_Aug_06_1427,X,
stim/posf.jpg,stim/negf.jpg,stim/2.jpg,stim/3.jpg,stim/latef.jpg,AB,1,2,,,,,,,,,0,43,43,6,,,,,,,,,,2,1,0.649836117638,,,,,,PLC_L_D2S1,P29,60.0189256943,02,A,2015_Aug_06_1427,X,
stim/posf.jpg,stim/negf.jpg,stim/3.jpg,stim/2.jpg,stim/latef.jpg,AB,2,4,,,,,,,,,0,44,44,10,,,,,,,,,,4,1,0.533148784036,,,,,,PLC_L_D2S1,P29,60.0189256943,02,A,2015_Aug_06_1427,X,
stim/posf.jpg,stim/negf.jpg,stim/3.jpg,stim/2.jpg,stim/latef.jpg,AB,2,4,,,,,,,,,0,45,45,13,,,,,,,,,,4,1,0.566477996113,,,,,,PLC_L_D2S1,P29,60.0189256943,02,A,2015_Aug_06_1427,X,
stim/posf.jpg,stim/negf.jpg,stim/3.jpg,stim/2.jpg,stim/latef.jpg,AB,2,4,,,,,,,,,0,46,46,11,,,,,,,,,,4,1,0.516410097631,,,,,,PLC_L_D2S1,P29,60.0189256943,02,A,2015_Aug_06_1427,X,
stim/posf.jpg,stim/negf.jpg,stim/5.jpg,stim/1.jpg,stim/latef.jpg,EF,2,4,,,,,,,,,0,47,47,52,,,,,,,,,,4,1,0.866377185219,,,,,,PLC_L_D2S1,P29,60.0189256943,02,A,2015_Aug_06_1427,X,
stim/posf.jpg,stim/negf.jpg,stim/6.jpg,stim/4.jpg,stim/latef.jpg,CD,1,2,,,,,,,,,0,48,48,23,,,,,,,,,,2,1,0.666447617508,,,,,,PLC_L_D2S1,P29,60.0189256943,02,A,2015_Aug_06_1427,X,
stim/posf.jpg,stim/negf.jpg,stim/6.jpg,stim/4.jpg,stim/latef.jpg,CD,1,2,,,,,,,,,0,49,49,22,,,,,,,,,,2,1,0.583159711732,,,,,,PLC_L_D2S1,P29,60.0189256943,02,A,2015_Aug_06_1427,X,
stim/negf.jpg,stim/posf.jpg,stim/6.jpg,stim/4.jpg,stim/latef.jpg,CD,1,2,,,,,,,,,0,50,50,29,,,,,,,,,,2,1,0.599791800844,,,,,,PLC_L_D2S1,P29,60.0189256943,02,A,2015_Aug_06_1427,X,
stim/posf.jpg,stim/negf.jpg,stim/2.jpg,stim/3.jpg,stim/latef.jpg,AB,1,2,,,,,,,,,0,51,51,5,,,,,,,,,,2,1,0.499832134224,,,,,,PLC_L_D2S1,P29,60.0189256943,02,A,2015_Aug_06_1427,X,
stim/negf.jpg,stim/posf.jpg,stim/1.jpg,stim/5.jpg,stim/latef.jpg,EF,1,2,,,,,,,,,0,52,52,46,,,,,,,,,,2,1,0.966321751258,,,,,,PLC_L_D2S1,P29,60.0189256943,02,A,2015_Aug_06_1427,X,
stim/posf.jpg,stim/negf.jpg,stim/4.jpg,stim/6.jpg,stim/latef.jpg,CD,2,4,,,,,,,,,0,53,53,35,,,,,,,,,,4,1,0.566411807386,,,,,,PLC_L_D2S1,P29,60.0189256943,02,A,2015_Aug_06_1427,X,
stim/negf.jpg,stim/posf.jpg,stim/1.jpg,stim/5.jpg,stim/latef.jpg,EF,1,2,,,,,,,,,0,54,54,48,,,,,,,,,,2,1,0.566483051695,,,,,,PLC_L_D2S1,P29,60.0189256943,02,A,2015_Aug_06_1427,X,
stim/posf.jpg,stim/negf.jpg,stim/5.jpg,stim/1.jpg,stim/latef.jpg,EF,2,4,,,,,,,,,0,55,55,51,,,,,,,,,,4,1,0.516490950854,,,,,,PLC_L_D2S1,P29,60.0189256943,02,A,2015_Aug_06_1427,X,
stim/negf.jpg,stim/posf.jpg,stim/2.jpg,stim/3.jpg,stim/latef.jpg,AB,1,2,,,,,,,,,0,56,56,8,,,,,,,,,,2,1,0.533166889095,,,,,,PLC_L_D2S1,P29,60.0189256943,02,A,2015_Aug_06_1427,X,
stim/posf.jpg,stim/negf.jpg,stim/1.jpg,stim/5.jpg,stim/latef.jpg,EF,1,2,,,,,,,,,0,57,57,40,,,,,,,,,,2,1,0.666435389074,,,,,,PLC_L_D2S1,P29,60.0189256943,02,A,2015_Aug_06_1427,X,
stim/negf.jpg,stim/posf.jpg,stim/5.jpg,stim/1.jpg,stim/latef.jpg,EF,2,4,,,,,,,,,0,58,58,57,,,,,,,,,,4,1,0.78306468724,,,,,,PLC_L_D2S1,P29,60.0189256943,02,A,2015_Aug_06_1427,X,
stim/posf.jpg,stim/negf.jpg,stim/5.jpg,stim/1.jpg,stim/latef.jpg,EF,2,4,,,,,,,,,0,59,59,53,,,,,,,,,,4,1,0.866401196979,,,,,,PLC_L_D2S1,P29,60.0189256943,02,A,2015_Aug_06_1427,X,
,,,,,,,,,,,,,,,,,,,,,,,,,,,,,,,,0.9984375,0.904296875,1,0,0,PLC_L_D2S1,P29,60.0189256943,02,A,2015_Aug_06_1427,X,
stim/posf.jpg,stim/negf.jpg,stim/1.jpg,stim/5.jpg,stim/latef.jpg,EF,1,2,,,,,,,,,,,,,0,0,0,42,,,,,,2,1,0.799734941335,,,,,,PLC_L_D2S1,P29,60.0189256943,02,A,2015_Aug_06_1427,X,
stim/negf.jpg,stim/posf.jpg,stim/2.jpg,stim/3.jpg,stim/latef.jpg,AB,1,2,,,,,,,,,,,,,0,1,1,8,,,,,,2,1,0.549800893975,,,,,,PLC_L_D2S1,P29,60.0189256943,02,A,2015_Aug_06_1427,X,
stim/posf.jpg,stim/negf.jpg,stim/3.jpg,stim/2.jpg,stim/latef.jpg,AB,2,4,,,,,,,,,,,,,0,2,2,17,,,,,,4,1,0.48309965226,,,,,,PLC_L_D2S1,P29,60.0189256943,02,A,2015_Aug_06_1427,X,
stim/posf.jpg,stim/negf.jpg,stim/6.jpg,stim/4.jpg,stim/latef.jpg,CD,1,2,,,,,,,,,,,,,0,3,3,25,,,,,,2,1,0.699725576028,,,,,,PLC_L_D2S1,P29,60.0189256943,02,A,2015_Aug_06_1427,X,
stim/posf.jpg,stim/negf.jpg,stim/1.jpg,stim/5.jpg,stim/latef.jpg,EF,1,2,,,,,,,,,,,,,0,4,4,40,,,,,,2,1,0.666438219117,,,,,,PLC_L_D2S1,P29,60.0189256943,02,A,2015_Aug_06_1427,X,
stim/posf.jpg,stim/negf.jpg,stim/5.jpg,stim/1.jpg,stim/latef.jpg,EF,2,4,,,,,,,,,,,,,0,5,5,54,,,,,,4,1,0.733131391751,,,,,,PLC_L_D2S1,P29,60.0189256943,02,A,2015_Aug_06_1427,X,
stim/posf.jpg,stim/negf.jpg,stim/2.jpg,stim/3.jpg,stim/latef.jpg,AB,1,2,,,,,,,,,,,,,0,6,6,2,,,,,,2,1,0.499873321729,,,,,,PLC_L_D2S1,P29,60.0189256943,02,A,2015_Aug_06_1427,X,
stim/negf.jpg,stim/posf.jpg,stim/6.jpg,stim/4.jpg,stim/latef.jpg,CD,1,2,,,,,,,,,,,,,0,7,7,27,,,,,,2,1,0.599847694951,,,,,,PLC_L_D2S1,P29,60.0189256943,02,A,2015_Aug_06_1427,X,
stim/posf.jpg,stim/negf.jpg,stim/3.jpg,stim/2.jpg,stim/latef.jpg,AB,2,4,,,,,,,,,,,,,0,8,8,16,,,,,,4,1,0.666447040071,,,,,,PLC_L_D2S1,P29,60.0189256943,02,A,2015_Aug_06_1427,X,
stim/negf.jpg,stim/posf.jpg,stim/4.jpg,stim/6.jpg,stim/latef.jpg,CD,2,4,,,,,,,,,,,,,0,9,9,37,,,,,,4,1,0.84972226629,,,,,,PLC_L_D2S1,P29,60.0189256943,02,A,2015_Aug_06_1427,X,
stim/posf.jpg,stim/negf.jpg,stim/3.jpg,stim/2.jpg,stim/latef.jpg,AB,2,4,,,,,,,,,,,,,0,10,10,11,,,,,,4,1,0.816454229463,,,,,,PLC_L_D2S1,P29,60.0189256943,02,A,2015_Aug_06_1427,X,
stim/posf.jpg,stim/negf.jpg,stim/2.jpg,stim/3.jpg,stim/latef.jpg,AB,1,2,,,,,,,,,,,,,0,11,11,7,,,,,,2,1,0.583132653391,,,,,,PLC_L_D2S1,P29,60.0189256943,02,A,2015_Aug_06_1427,X,
stim/posf.jpg,stim/negf.jpg,stim/4.jpg,stim/6.jpg,stim/latef.jpg,CD,2,4,,,,,,,,,,,,,0,12,12,35,,,,,,4,1,0.583131008297,,,,,,PLC_L_D2S1,P29,60.0189256943,02,A,2015_Aug_06_1427,X,
stim/posf.jpg,stim/negf.jpg,stim/6.jpg,stim/4.jpg,stim/latef.jpg,CD,1,2,,,,,,,,,,,,,0,13,13,22,,,,,,2,1,0.616519958046,,,,,,PLC_L_D2S1,P29,60.0189256943,02,A,2015_Aug_06_1427,X,
stim/negf.jpg,stim/posf.jpg,stim/5.jpg,stim/1.jpg,stim/latef.jpg,EF,2,4,,,,,,,,,,,,,0,14,14,57,,,,,,4,1,0.783096464325,,,,,,PLC_L_D2S1,P29,60.0189256943,02,A,2015_Aug_06_1427,X,
stim/posf.jpg,stim/negf.jpg,stim/2.jpg,stim/3.jpg,stim/latef.jpg,AB,1,2,,,,,,,,,,,,,0,15,15,1,,,,,,2,1,0.649786301658,,,,,,PLC_L_D2S1,P29,60.0189256943,02,A,2015_Aug_06_1427,X,
stim/negf.jpg,stim/posf.jpg,stim/4.jpg,stim/6.jpg,stim/latef.jpg,CD,2,4,,,,,,,,,,,,,0,16,16,39,,,,,,4,1,0.783098007165,,,,,,PLC_L_D2S1,P29,60.0189256943,02,A,2015_Aug_06_1427,X,
stim/posf.jpg,stim/negf.jpg,stim/4.jpg,stim/6.jpg,stim/latef.jpg,CD,2,4,,,,,,,,,,,,,0,17,17,34,,,,,,4,1,0.616383691913,,,,,,PLC_L_D2S1,P29,60.0189256943,02,A,2015_Aug_06_1427,X,
stim/negf.jpg,stim/posf.jpg,stim/2.jpg,stim/3.jpg,stim/latef.jpg,AB,1,2,,,,,,,,,,,,,0,18,18,9,,,,,,2,1,0.833051921971,,,,,,PLC_L_D2S1,P29,60.0189256943,02,A,2015_Aug_06_1427,X,
stim/posf.jpg,stim/negf.jpg,stim/5.jpg,stim/1.jpg,stim/latef.jpg,EF,2,4,,,,,,,,,,,,,0,19,19,55,,,,,,4,1,0.766410255523,,,,,,PLC_L_D2S1,P29,60.0189256943,02,A,2015_Aug_06_1427,X,
stim/posf.jpg,stim/negf.jpg,stim/6.jpg,stim/4.jpg,stim/latef.jpg,CD,1,2,,,,,,,,,,,,,0,20,20,24,,,,,,2,1,0.616459573764,,,,,,PLC_L_D2S1,P29,60.0189256943,02,A,2015_Aug_06_1427,X,
stim/negf.jpg,stim/posf.jpg,stim/5.jpg,stim/1.jpg,stim/latef.jpg,EF,2,4,,,,,,,,,,,,,0,21,21,58,,,,,,4,1,0.666472456326,,,,,,PLC_L_D2S1,P29,60.0189256943,02,A,2015_Aug_06_1427,X,
stim/negf.jpg,stim/posf.jpg,stim/3.jpg,stim/2.jpg,stim/latef.jpg,AB,2,4,,,,,,,,,,,,,0,22,22,18,,,,,,4,1,0.799743858528,,,,,,PLC_L_D2S1,P29,60.0189256943,02,A,2015_Aug_06_1427,X,
stim/posf.jpg,stim/negf.jpg,stim/2.jpg,stim/3.jpg,stim/latef.jpg,AB,1,2,,,,,,,,,,,,,0,23,23,6,,,,,,2,1,0.783101381563,,,,,,PLC_L_D2S1,P29,60.0189256943,02,A,2015_Aug_06_1427,X,
stim/posf.jpg,stim/negf.jpg,stim/5.jpg,stim/1.jpg,stim/latef.jpg,EF,2,4,,,,,,,,,,,,,0,24,24,53,,,,,,4,1,0.599745759258,,,,,,PLC_L_D2S1,P29,60.0189256943,02,A,2015_Aug_06_1427,X,
stim/negf.jpg,stim/posf.jpg,stim/1.jpg,stim/5.jpg,stim/latef.jpg,EF,1,2,,,,,,,,,,,,,0,25,25,49,,,,,,2,1,0.683104121382,,,,,,PLC_L_D2S1,P29,60.0189256943,02,A,2015_Aug_06_1427,X,
stim/negf.jpg,stim/posf.jpg,stim/1.jpg,stim/5.jpg,stim/latef.jpg,EF,1,2,,,,,,,,,,,,,0,26,26,47,,,,,,2,1,0.549799480457,,,,,,PLC_L_D2S1,P29,60.0189256943,02,A,2015_Aug_06_1427,X,
stim/posf.jpg,stim/negf.jpg,stim/5.jpg,stim/1.jpg,stim/latef.jpg,EF,2,4,,,,,,,,,,,,,0,27,27,52,,,,,,4,1,0.616470560106,,,,,,PLC_L_D2S1,P29,60.0189256943,02,A,2015_Aug_06_1427,X,
stim/negf.jpg,stim/posf.jpg,stim/1.jpg,stim/5.jpg,stim/latef.jpg,EF,1,2,,,,,,,,,,,,,0,28,28,46,,,,,,2,1,0.483159191438,,,,,,PLC_L_D2S1,P29,60.0189256943,02,A,2015_Aug_06_1427,X,
stim/posf.jpg,stim/negf.jpg,stim/4.jpg,stim/6.jpg,stim/latef.jpg,CD,2,4,,,,,,,,,,,,,0,29,29,33,,,,,,4,1,0.583153426089,,,,,,PLC_L_D2S1,P29,60.0189256943,02,A,2015_Aug_06_1427,X,
stim/posf.jpg,stim/negf.jpg,stim/5.jpg,stim/1.jpg,stim/latef.jpg,EF,2,4,,,,,,,,,,,,,0,30,30,50,,,,,,2,0,0.449831850017,,,,,,PLC_L_D2S1,P29,60.0189256943,02,A,2015_Aug_06_1427,X,
stim/negf.jpg,stim/posf.jpg,stim/5.jpg,stim/1.jpg,stim/latef.jpg,EF,2,4,,,,,,,,,,,,,0,31,31,56,,,,,,4,1,0.53312565347,,,,,,PLC_L_D2S1,P29,60.0189256943,02,A,2015_Aug_06_1427,X,
stim/posf.jpg,stim/negf.jpg,stim/2.jpg,stim/3.jpg,stim/latef.jpg,AB,1,2,,,,,,,,,,,,,0,32,32,4,,,,,,2,1,0.616466954132,,,,,,PLC_L_D2S1,P29,60.0189256943,02,A,2015_Aug_06_1427,X,
stim/posf.jpg,stim/negf.jpg,stim/1.jpg,stim/5.jpg,stim/latef.jpg,EF,1,2,,,,,,,,,,,,,0,33,33,43,,,,,,2,1,0.649788587347,,,,,,PLC_L_D2S1,P29,60.0189256943,02,A,2015_Aug_06_1427,X,
stim/negf.jpg,stim/posf.jpg,stim/4.jpg,stim/6.jpg,stim/latef.jpg,CD,2,4,,,,,,,,,,,,,0,34,34,38,,,,,,4,1,0.76640341951,,,,,,PLC_L_D2S1,P29,60.0189256943,02,A,2015_Aug_06_1427,X,
stim/posf.jpg,stim/negf.jpg,stim/3.jpg,stim/2.jpg,stim/latef.jpg,AB,2,4,,,,,,,,,,,,,0,35,35,12,,,,,,4,1,0.633129385758,,,,,,PLC_L_D2S1,P29,60.0189256943,02,A,2015_Aug_06_1427,X,
stim/posf.jpg,stim/negf.jpg,stim/1.jpg,stim/5.jpg,stim/latef.jpg,EF,1,2,,,,,,,,,,,,,0,36,36,44,,,,,,2,1,0.516486556918,,,,,,PLC_L_D2S1,P29,60.0189256943,02,A,2015_Aug_06_1427,X,
stim/posf.jpg,stim/negf.jpg,stim/2.jpg,stim/3.jpg,stim/latef.jpg,AB,1,2,,,,,,,,,,,,,0,37,37,5,,,,,,2,1,0.683093396691,,,,,,PLC_L_D2S1,P29,60.0189256943,02,A,2015_Aug_06_1427,X,
stim/posf.jpg,stim/negf.jpg,stim/3.jpg,stim/2.jpg,stim/latef.jpg,AB,2,4,,,,,,,,,,,,,0,38,38,14,,,,,,4,1,0.649744443484,,,,,,PLC_L_D2S1,P29,60.0189256943,02,A,2015_Aug_06_1427,X,
stim/posf.jpg,stim/negf.jpg,stim/2.jpg,stim/3.jpg,stim/latef.jpg,AB,1,2,,,,,,,,,,,,,0,39,39,3,,,,,,2,1,0.633115638545,,,,,,PLC_L_D2S1,P29,60.0189256943,02,A,2015_Aug_06_1427,X,
stim/posf.jpg,stim/negf.jpg,stim/4.jpg,stim/6.jpg,stim/latef.jpg,CD,2,4,,,,,,,,,,,,,0,40,40,31,,,,,,4,1,1.08297077853,,,,,,PLC_L_D2S1,P29,60.0189256943,02,A,2015_Aug_06_1427,X,
stim/posf.jpg,stim/negf.jpg,stim/5.jpg,stim/1.jpg,stim/latef.jpg,EF,2,4,,,,,,,,,,,,,0,41,41,51,,,,,,4,1,0.966355808017,,,,,,PLC_L_D2S1,P29,60.0189256943,02,A,2015_Aug_06_1427,X,
stim/posf.jpg,stim/negf.jpg,stim/4.jpg,stim/6.jpg,stim/latef.jpg,CD,2,4,,,,,,,,,,,,,0,42,42,30,,,,,,4,1,0.699782874629,,,,,,PLC_L_D2S1,P29,60.0189256943,02,A,2015_Aug_06_1427,X,
stim/posf.jpg,stim/negf.jpg,stim/4.jpg,stim/6.jpg,stim/latef.jpg,CD,2,4,,,,,,,,,,,,,0,43,43,32,,,,,,4,1,0.683098762044,,,,,,PLC_L_D2S1,P29,60.0189256943,02,A,2015_Aug_06_1427,X,
stim/posf.jpg,stim/negf.jpg,stim/6.jpg,stim/4.jpg,stim/latef.jpg,CD,1,2,,,,,,,,,,,,,0,44,44,23,,,,,,2,1,0.683101330436,,,,,,PLC_L_D2S1,P29,60.0189256943,02,A,2015_Aug_06_1427,X,
stim/negf.jpg,stim/posf.jpg,stim/6.jpg,stim/4.jpg,stim/latef.jpg,CD,1,2,,,,,,,,,,,,,0,45,45,28,,,,,,2,1,0.783012901358,,,,,,PLC_L_D2S1,P29,60.0189256943,02,A,2015_Aug_06_1427,X,
stim/negf.jpg,stim/posf.jpg,stim/5.jpg,stim/1.jpg,stim/latef.jpg,EF,2,4,,,,,,,,,,,,,0,46,46,59,,,,,,4,1,0.683126430905,,,,,,PLC_L_D2S1,P29,60.0189256943,02,A,2015_Aug_06_1427,X,
stim/posf.jpg,stim/negf.jpg,stim/3.jpg,stim/2.jpg,stim/latef.jpg,AB,2,4,,,,,,,,,,,,,0,47,47,10,,,,,,4,1,0.733160627512,,,,,,PLC_L_D2S1,P29,60.0189256943,02,A,2015_Aug_06_1427,X,
stim/posf.jpg,stim/negf.jpg,stim/3.jpg,stim/2.jpg,stim/latef.jpg,AB,2,4,,,,,,,,,,,,,0,48,48,13,,,,,,4,1,0.716466650376,,,,,,PLC_L_D2S1,P29,60.0189256943,02,A,2015_Aug_06_1427,X,
stim/posf.jpg,stim/negf.jpg,stim/6.jpg,stim/4.jpg,stim/latef.jpg,CD,1,2,,,,,,,,,,,,,0,49,49,21,,,,,,2,1,0.633128552685,,,,,,PLC_L_D2S1,P29,60.0189256943,02,A,2015_Aug_06_1427,X,
stim/negf.jpg,stim/posf.jpg,stim/6.jpg,stim/4.jpg,stim/latef.jpg,CD,1,2,,,,,,,,,,,,,0,50,50,29,,,,,,2,1,0.633118062578,,,,,,PLC_L_D2S1,P29,60.0189256943,02,A,2015_Aug_06_1427,X,
stim/posf.jpg,stim/negf.jpg,stim/1.jpg,stim/5.jpg,stim/latef.jpg,EF,1,2,,,,,,,,,,,,,0,51,51,41,,,,,,2,1,0.749753574208,,,,,,PLC_L_D2S1,P29,60.0189256943,02,A,2015_Aug_06_1427,X,
stim/posf.jpg,stim/negf.jpg,stim/6.jpg,stim/4.jpg,stim/latef.jpg,CD,1,2,,,,,,,,,,,,,0,52,52,20,,,,,,2,1,0.816313993451,,,,,,PLC_L_D2S1,P29,60.0189256943,02,A,2015_Aug_06_1427,X,
stim/posf.jpg,stim/negf.jpg,stim/1.jpg,stim/5.jpg,stim/latef.jpg,EF,1,2,,,,,,,,,,,,,0,53,53,45,,,,,,2,1,0.966363681613,,,,,,PLC_L_D2S1,P29,60.0189256943,02,A,2015_Aug_06_1427,X,
stim/posf.jpg,stim/negf.jpg,stim/6.jpg,stim/4.jpg,stim/latef.jpg,CD,1,2,,,,,,,,,,,,,0,54,54,26,,,,,,2,1,0.749769519893,,,,,,PLC_L_D2S1,P29,60.0189256943,02,A,2015_Aug_06_1427,X,
stim/negf.jpg,stim/posf.jpg,stim/1.jpg,stim/5.jpg,stim/latef.jpg,EF,1,2,,,,,,,,,,,,,0,55,55,48,,,,,,2,1,0.666448706218,,,,,,PLC_L_D2S1,P29,60.0189256943,02,A,2015_Aug_06_1427,X,
stim/posf.jpg,stim/negf.jpg,stim/4.jpg,stim/6.jpg,stim/latef.jpg,CD,2,4,,,,,,,,,,,,,0,56,56,36,,,,,,4,1,0.766400225561,,,,,,PLC_L_D2S1,P29,60.0189256943,02,A,2015_Aug_06_1427,X,
stim/posf.jpg,stim/negf.jpg,stim/2.jpg,stim/3.jpg,stim/latef.jpg,AB,1,2,,,,,,,,,,,,,0,57,57,0,,,,,,2,1,0.616461600809,,,,,,PLC_L_D2S1,P29,60.0189256943,02,A,2015_Aug_06_1427,X,
stim/posf.jpg,stim/negf.jpg,stim/3.jpg,stim/2.jpg,stim/latef.jpg,AB,2,4,,,,,,,,,,,,,0,58,58,15,,,,,,4,1,0.683108373966,,,,,,PLC_L_D2S1,P29,60.0189256943,02,A,2015_Aug_06_1427,X,
stim/negf.jpg,stim/posf.jpg,stim/3.jpg,stim/2.jpg,stim/latef.jpg,AB,2,4,,,,,,,,,,,,,0,59,59,19,,,,,,4,1,0.616412720157,,,,,,PLC_L_D2S1,P29,60.0189256943,02,A,2015_Aug_06_1427,X,
