fb_corr,fb_incorr,symbol2,symbol1,fb_late,pair,position,correct,block_01.thisRepN,block_01.thisTrialN,block_01.thisN,block_01.thisIndex,block_02.thisRepN,block_02.thisTrialN,block_02.thisN,block_02.thisIndex,block_03.thisRepN,block_03.thisTrialN,block_03.thisN,block_03.thisIndex,block_04.thisRepN,block_04.thisTrialN,block_04.thisN,block_04.thisIndex,mouse.x,mouse.y,mouse.leftButton,mouse.midButton,mouse.rightButton,buttonBox_2.keys,buttonBox_2.corr,buttonBox_2.rt,mouse_2.x,mouse_2.y,mouse_2.leftButton,mouse_2.midButton,mouse_2.rightButton,expName,Participant,frameRate,SessionNumber,Version,date,Group,
,,,,,,,,,,,,,,,,,,,,,,,,0.9953125,1.0,1,0,0,,,,,,,,,PLC_L_D2S1,P31,60.022683891,02,C,2015_Aug_20_1417,X,
stim/posf.jpg,stim/negf.jpg,stim/1.jpg,stim/3.jpg,stim/latef.jpg,EF,2,4,0,0,0,55,,,,,,,,,,,,,,,,,,4,1,0.899694895527,,,,,,PLC_L_D2S1,P31,60.022683891,02,C,2015_Aug_20_1417,X,
stim/posf.jpg,stim/negf.jpg,stim/3.jpg,stim/1.jpg,stim/latef.jpg,EF,1,2,0,1,1,40,,,,,,,,,,,,,,,,,,4,0,1.28291692243,,,,,,PLC_L_D2S1,P31,60.022683891,02,C,2015_Aug_20_1417,X,
stim/posf.jpg,stim/negf.jpg,stim/1.jpg,stim/3.jpg,stim/latef.jpg,EF,2,4,0,2,2,51,,,,,,,,,,,,,,,,,,4,1,0.883039195194,,,,,,PLC_L_D2S1,P31,60.022683891,02,C,2015_Aug_20_1417,X,
stim/negf.jpg,stim/posf.jpg,stim/2.jpg,stim/6.jpg,stim/latef.jpg,CD,1,2,0,3,3,28,,,,,,,,,,,,,,,,,,2,1,0.866428619334,,,,,,PLC_L_D2S1,P31,60.022683891,02,C,2015_Aug_20_1417,X,
stim/negf.jpg,stim/posf.jpg,stim/3.jpg,stim/1.jpg,stim/latef.jpg,EF,1,2,0,4,4,46,,,,,,,,,,,,,,,,,,2,1,0.966360511575,,,,,,PLC_L_D2S1,P31,60.022683891,02,C,2015_Aug_20_1417,X,
stim/posf.jpg,stim/negf.jpg,stim/4.jpg,stim/5.jpg,stim/latef.jpg,AB,1,2,0,5,5,5,,,,,,,,,,,,,,,,,,4,0,0.999552472538,,,,,,PLC_L_D2S1,P31,60.022683891,02,C,2015_Aug_20_1417,X,
stim/posf.jpg,stim/negf.jpg,stim/5.jpg,stim/4.jpg,stim/latef.jpg,AB,2,4,0,6,6,12,,,,,,,,,,,,,,,,,,4,1,0.933029745641,,,,,,PLC_L_D2S1,P31,60.022683891,02,C,2015_Aug_20_1417,X,
stim/negf.jpg,stim/posf.jpg,stim/6.jpg,stim/2.jpg,stim/latef.jpg,CD,2,4,0,7,7,38,,,,,,,,,,,,,,,,,,2,0,0.983015011917,,,,,,PLC_L_D2S1,P31,60.022683891,02,C,2015_Aug_20_1417,X,
stim/posf.jpg,stim/negf.jpg,stim/4.jpg,stim/5.jpg,stim/latef.jpg,AB,1,2,0,8,8,4,,,,,,,,,,,,,,,,,,2,1,0.949723205089,,,,,,PLC_L_D2S1,P31,60.022683891,02,C,2015_Aug_20_1417,X,
stim/negf.jpg,stim/posf.jpg,stim/4.jpg,stim/5.jpg,stim/latef.jpg,AB,1,2,0,9,9,9,,,,,,,,,,,,,,,,,,2,1,1.14962905241,,,,,,PLC_L_D2S1,P31,60.022683891,02,C,2015_Aug_20_1417,X,
stim/posf.jpg,stim/negf.jpg,stim/6.jpg,stim/2.jpg,stim/latef.jpg,CD,2,4,0,10,10,30,,,,,,,,,,,,,,,,,,2,0,1.61611119014,,,,,,PLC_L_D2S1,P31,60.022683891,02,C,2015_Aug_20_1417,X,
stim/negf.jpg,stim/posf.jpg,stim/5.jpg,stim/4.jpg,stim/latef.jpg,AB,2,4,0,11,11,18,,,,,,,,,,,,,,,,,,2,0,0.799742092165,,,,,,PLC_L_D2S1,P31,60.022683891,02,C,2015_Aug_20_1417,X,
stim/negf.jpg,stim/posf.jpg,stim/1.jpg,stim/3.jpg,stim/latef.jpg,EF,2,4,0,12,12,57,,,,,,,,,,,,,,,,,,4,1,1.24953548319,,,,,,PLC_L_D2S1,P31,60.022683891,02,C,2015_Aug_20_1417,X,
stim/posf.jpg,stim/negf.jpg,stim/4.jpg,stim/5.jpg,stim/latef.jpg,AB,1,2,0,13,13,2,,,,,,,,,,,,,,,,,,2,1,0.899687842948,,,,,,PLC_L_D2S1,P31,60.022683891,02,C,2015_Aug_20_1417,X,
stim/posf.jpg,stim/negf.jpg,stim/2.jpg,stim/6.jpg,stim/latef.jpg,CD,1,2,0,14,14,25,,,,,,,,,,,,,,,,,,4,0,0.999625142668,,,,,,PLC_L_D2S1,P31,60.022683891,02,C,2015_Aug_20_1417,X,
stim/posf.jpg,stim/negf.jpg,stim/1.jpg,stim/3.jpg,stim/latef.jpg,EF,2,4,0,15,15,50,,,,,,,,,,,,,,,,,,4,1,0.866391705325,,,,,,PLC_L_D2S1,P31,60.022683891,02,C,2015_Aug_20_1417,X,
stim/posf.jpg,stim/negf.jpg,stim/5.jpg,stim/4.jpg,stim/latef.jpg,AB,2,4,0,16,16,13,,,,,,,,,,,,,,,,,,4,1,1.21626826866,,,,,,PLC_L_D2S1,P31,60.022683891,02,C,2015_Aug_20_1417,X,
stim/posf.jpg,stim/negf.jpg,stim/5.jpg,stim/4.jpg,stim/latef.jpg,AB,2,4,0,17,17,10,,,,,,,,,,,,,,,,,,4,1,1.23295581838,,,,,,PLC_L_D2S1,P31,60.022683891,02,C,2015_Aug_20_1417,X,
stim/posf.jpg,stim/negf.jpg,stim/6.jpg,stim/2.jpg,stim/latef.jpg,CD,2,4,0,18,18,31,,,,,,,,,,,,,,,,,,2,0,0.916348144751,,,,,,PLC_L_D2S1,P31,60.022683891,02,C,2015_Aug_20_1417,X,
stim/negf.jpg,stim/posf.jpg,stim/6.jpg,stim/2.jpg,stim/latef.jpg,CD,2,4,0,19,19,37,,,,,,,,,,,,,,,,,,2,0,1.09968573469,,,,,,PLC_L_D2S1,P31,60.022683891,02,C,2015_Aug_20_1417,X,
stim/posf.jpg,stim/negf.jpg,stim/2.jpg,stim/6.jpg,stim/latef.jpg,CD,1,2,0,20,20,20,,,,,,,,,,,,,,,,,,4,0,0.6497439117,,,,,,PLC_L_D2S1,P31,60.022683891,02,C,2015_Aug_20_1417,X,
stim/posf.jpg,stim/negf.jpg,stim/2.jpg,stim/6.jpg,stim/latef.jpg,CD,1,2,0,21,21,26,,,,,,,,,,,,,,,,,,4,0,0.733139579402,,,,,,PLC_L_D2S1,P31,60.022683891,02,C,2015_Aug_20_1417,X,
stim/posf.jpg,stim/negf.jpg,stim/1.jpg,stim/3.jpg,stim/latef.jpg,EF,2,4,0,22,22,54,,,,,,,,,,,,,,,,,,4,1,0.94971220066,,,,,,PLC_L_D2S1,P31,60.022683891,02,C,2015_Aug_20_1417,X,
stim/negf.jpg,stim/posf.jpg,stim/2.jpg,stim/6.jpg,stim/latef.jpg,CD,1,2,0,23,23,27,,,,,,,,,,,,,,,,,,4,0,0.733095200788,,,,,,PLC_L_D2S1,P31,60.022683891,02,C,2015_Aug_20_1417,X,
stim/posf.jpg,stim/negf.jpg,stim/3.jpg,stim/1.jpg,stim/latef.jpg,EF,1,2,0,24,24,43,,,,,,,,,,,,,,,,,,2,1,0.649789466245,,,,,,PLC_L_D2S1,P31,60.022683891,02,C,2015_Aug_20_1417,X,
stim/posf.jpg,stim/negf.jpg,stim/6.jpg,stim/2.jpg,stim/latef.jpg,CD,2,4,0,25,25,36,,,,,,,,,,,,,,,,,,2,0,0.683115687852,,,,,,PLC_L_D2S1,P31,60.022683891,02,C,2015_Aug_20_1417,X,
stim/negf.jpg,stim/posf.jpg,stim/3.jpg,stim/1.jpg,stim/latef.jpg,EF,1,2,0,26,26,48,,,,,,,,,,,,,,,,,,2,1,0.683035201239,,,,,,PLC_L_D2S1,P31,60.022683891,02,C,2015_Aug_20_1417,X,
stim/posf.jpg,stim/negf.jpg,stim/6.jpg,stim/2.jpg,stim/latef.jpg,CD,2,4,0,27,27,32,,,,,,,,,,,,,,,,,,2,0,1.14959834287,,,,,,PLC_L_D2S1,P31,60.022683891,02,C,2015_Aug_20_1417,X,
stim/negf.jpg,stim/posf.jpg,stim/2.jpg,stim/6.jpg,stim/latef.jpg,CD,1,2,0,28,28,29,,,,,,,,,,,,,,,,,,4,0,0.999667761896,,,,,,PLC_L_D2S1,P31,60.022683891,02,C,2015_Aug_20_1417,X,
stim/posf.jpg,stim/negf.jpg,stim/4.jpg,stim/5.jpg,stim/latef.jpg,AB,1,2,0,29,29,1,,,,,,,,,,,,,,,,,,2,1,1.08299122262,,,,,,PLC_L_D2S1,P31,60.022683891,02,C,2015_Aug_20_1417,X,
stim/posf.jpg,stim/negf.jpg,stim/1.jpg,stim/3.jpg,stim/latef.jpg,EF,2,4,0,30,30,53,,,,,,,,,,,,,,,,,,4,1,0.81645954241,,,,,,PLC_L_D2S1,P31,60.022683891,02,C,2015_Aug_20_1417,X,
stim/posf.jpg,stim/negf.jpg,stim/5.jpg,stim/4.jpg,stim/latef.jpg,AB,2,4,0,31,31,15,,,,,,,,,,,,,,,,,,4,1,1.09966352734,,,,,,PLC_L_D2S1,P31,60.022683891,02,C,2015_Aug_20_1417,X,
stim/negf.jpg,stim/posf.jpg,stim/6.jpg,stim/2.jpg,stim/latef.jpg,CD,2,4,0,32,32,39,,,,,,,,,,,,,,,,,,2,0,0.716433930572,,,,,,PLC_L_D2S1,P31,60.022683891,02,C,2015_Aug_20_1417,X,
stim/posf.jpg,stim/negf.jpg,stim/1.jpg,stim/3.jpg,stim/latef.jpg,EF,2,4,0,33,33,52,,,,,,,,,,,,,,,,,,4,1,0.733079934737,,,,,,PLC_L_D2S1,P31,60.022683891,02,C,2015_Aug_20_1417,X,
stim/negf.jpg,stim/posf.jpg,stim/1.jpg,stim/3.jpg,stim/latef.jpg,EF,2,4,0,34,34,59,,,,,,,,,,,,,,,,,,4,1,0.766183959519,,,,,,PLC_L_D2S1,P31,60.022683891,02,C,2015_Aug_20_1417,X,
stim/posf.jpg,stim/negf.jpg,stim/3.jpg,stim/1.jpg,stim/latef.jpg,EF,1,2,0,35,35,45,,,,,,,,,,,,,,,,,,2,1,0.683098912038,,,,,,PLC_L_D2S1,P31,60.022683891,02,C,2015_Aug_20_1417,X,
stim/posf.jpg,stim/negf.jpg,stim/6.jpg,stim/2.jpg,stim/latef.jpg,CD,2,4,0,36,36,35,,,,,,,,,,,,,,,,,,2,0,1.36619795641,,,,,,PLC_L_D2S1,P31,60.022683891,02,C,2015_Aug_20_1417,X,
stim/posf.jpg,stim/negf.jpg,stim/2.jpg,stim/6.jpg,stim/latef.jpg,CD,1,2,0,37,37,24,,,,,,,,,,,,,,,,,,4,0,0.783049574063,,,,,,PLC_L_D2S1,P31,60.022683891,02,C,2015_Aug_20_1417,X,
stim/negf.jpg,stim/posf.jpg,stim/1.jpg,stim/3.jpg,stim/latef.jpg,EF,2,4,0,38,38,56,,,,,,,,,,,,,,,,,,4,1,0.74974989361,,,,,,PLC_L_D2S1,P31,60.022683891,02,C,2015_Aug_20_1417,X,
stim/posf.jpg,stim/negf.jpg,stim/4.jpg,stim/5.jpg,stim/latef.jpg,AB,1,2,0,39,39,0,,,,,,,,,,,,,,,,,,2,1,0.749761523597,,,,,,PLC_L_D2S1,P31,60.022683891,02,C,2015_Aug_20_1417,X,
stim/negf.jpg,stim/posf.jpg,stim/4.jpg,stim/5.jpg,stim/latef.jpg,AB,1,2,0,40,40,8,,,,,,,,,,,,,,,,,,2,1,0.799708973617,,,,,,PLC_L_D2S1,P31,60.022683891,02,C,2015_Aug_20_1417,X,
stim/posf.jpg,stim/negf.jpg,stim/4.jpg,stim/5.jpg,stim/latef.jpg,AB,1,2,0,41,41,6,,,,,,,,,,,,,,,,,,2,1,1.03298494899,,,,,,PLC_L_D2S1,P31,60.022683891,02,C,2015_Aug_20_1417,X,
stim/posf.jpg,stim/negf.jpg,stim/2.jpg,stim/6.jpg,stim/latef.jpg,CD,1,2,0,42,42,23,,,,,,,,,,,,,,,,,,4,0,0.716410258569,,,,,,PLC_L_D2S1,P31,60.022683891,02,C,2015_Aug_20_1417,X,
stim/posf.jpg,stim/negf.jpg,stim/6.jpg,stim/2.jpg,stim/latef.jpg,CD,2,4,0,43,43,33,,,,,,,,,,,,,,,,,,2,0,0.84962761483,,,,,,PLC_L_D2S1,P31,60.022683891,02,C,2015_Aug_20_1417,X,
stim/posf.jpg,stim/negf.jpg,stim/4.jpg,stim/5.jpg,stim/latef.jpg,AB,1,2,0,44,44,3,,,,,,,,,,,,,,,,,,2,1,0.766321230667,,,,,,PLC_L_D2S1,P31,60.022683891,02,C,2015_Aug_20_1417,X,
stim/negf.jpg,stim/posf.jpg,stim/3.jpg,stim/1.jpg,stim/latef.jpg,EF,1,2,0,45,45,49,,,,,,,,,,,,,,,,,,2,1,0.76642151262,,,,,,PLC_L_D2S1,P31,60.022683891,02,C,2015_Aug_20_1417,X,
stim/posf.jpg,stim/negf.jpg,stim/2.jpg,stim/6.jpg,stim/latef.jpg,CD,1,2,0,46,46,21,,,,,,,,,,,,,,,,,,4,0,0.733091552695,,,,,,PLC_L_D2S1,P31,60.022683891,02,C,2015_Aug_20_1417,X,
stim/negf.jpg,stim/posf.jpg,stim/3.jpg,stim/1.jpg,stim/latef.jpg,EF,1,2,0,47,47,47,,,,,,,,,,,,,,,,,,2,1,0.683078948279,,,,,,PLC_L_D2S1,P31,60.022683891,02,C,2015_Aug_20_1417,X,
stim/posf.jpg,stim/negf.jpg,stim/3.jpg,stim/1.jpg,stim/latef.jpg,EF,1,2,0,48,48,42,,,,,,,,,,,,,,,,,,2,1,0.799698236855,,,,,,PLC_L_D2S1,P31,60.022683891,02,C,2015_Aug_20_1417,X,
stim/posf.jpg,stim/negf.jpg,stim/2.jpg,stim/6.jpg,stim/latef.jpg,CD,1,2,0,49,49,22,,,,,,,,,,,,,,,,,,4,0,0.749802323291,,,,,,PLC_L_D2S1,P31,60.022683891,02,C,2015_Aug_20_1417,X,
stim/posf.jpg,stim/negf.jpg,stim/3.jpg,stim/1.jpg,stim/latef.jpg,EF,1,2,0,50,50,44,,,,,,,,,,,,,,,,,,2,1,0.633130577966,,,,,,PLC_L_D2S1,P31,60.022683891,02,C,2015_Aug_20_1417,X,
stim/posf.jpg,stim/negf.jpg,stim/5.jpg,stim/4.jpg,stim/latef.jpg,AB,2,4,0,51,51,16,,,,,,,,,,,,,,,,,,4,1,0.983028683995,,,,,,PLC_L_D2S1,P31,60.022683891,02,C,2015_Aug_20_1417,X,
stim/negf.jpg,stim/posf.jpg,stim/1.jpg,stim/3.jpg,stim/latef.jpg,EF,2,4,0,52,52,58,,,,,,,,,,,,,,,,,,4,1,1.0662475831,,,,,,PLC_L_D2S1,P31,60.022683891,02,C,2015_Aug_20_1417,X,
stim/posf.jpg,stim/negf.jpg,stim/4.jpg,stim/5.jpg,stim/latef.jpg,AB,1,2,0,53,53,7,,,,,,,,,,,,,,,,,,2,1,0.649778022722,,,,,,PLC_L_D2S1,P31,60.022683891,02,C,2015_Aug_20_1417,X,
stim/posf.jpg,stim/negf.jpg,stim/3.jpg,stim/1.jpg,stim/latef.jpg,EF,1,2,0,54,54,41,,,,,,,,,,,,,,,,,,2,1,0.68312310133,,,,,,PLC_L_D2S1,P31,60.022683891,02,C,2015_Aug_20_1417,X,
stim/posf.jpg,stim/negf.jpg,stim/5.jpg,stim/4.jpg,stim/latef.jpg,AB,2,4,0,55,55,11,,,,,,,,,,,,,,,,,,4,1,0.816316957015,,,,,,PLC_L_D2S1,P31,60.022683891,02,C,2015_Aug_20_1417,X,
stim/posf.jpg,stim/negf.jpg,stim/5.jpg,stim/4.jpg,stim/latef.jpg,AB,2,4,0,56,56,14,,,,,,,,,,,,,,,,,,4,1,1.26623611853,,,,,,PLC_L_D2S1,P31,60.022683891,02,C,2015_Aug_20_1417,X,
stim/negf.jpg,stim/posf.jpg,stim/5.jpg,stim/4.jpg,stim/latef.jpg,AB,2,4,0,57,57,19,,,,,,,,,,,,,,,,,,4,1,1.04970105488,,,,,,PLC_L_D2S1,P31,60.022683891,02,C,2015_Aug_20_1417,X,
stim/posf.jpg,stim/negf.jpg,stim/5.jpg,stim/4.jpg,stim/latef.jpg,AB,2,4,0,58,58,17,,,,,,,,,,,,,,,,,,4,1,0.899696161683,,,,,,PLC_L_D2S1,P31,60.022683891,02,C,2015_Aug_20_1417,X,
stim/posf.jpg,stim/negf.jpg,stim/6.jpg,stim/2.jpg,stim/latef.jpg,CD,2,4,0,59,59,34,,,,,,,,,,,,,,,,,,2,0,0.699796260179,,,,,,PLC_L_D2S1,P31,60.022683891,02,C,2015_Aug_20_1417,X,
,,,,,,,,,,,,,,,,,,,,,,,,,,,,,,,,0.9984375,1.0,1,0,0,PLC_L_D2S1,P31,60.022683891,02,C,2015_Aug_20_1417,X,
stim/posf.jpg,stim/negf.jpg,stim/2.jpg,stim/6.jpg,stim/latef.jpg,CD,1,2,,,,,0,0,0,26,,,,,,,,,,,,,,4,0,0.816402757874,,,,,,PLC_L_D2S1,P31,60.022683891,02,C,2015_Aug_20_1417,X,
stim/negf.jpg,stim/posf.jpg,stim/1.jpg,stim/3.jpg,stim/latef.jpg,EF,2,4,,,,,0,1,1,56,,,,,,,,,,,,,,4,1,0.916367230322,,,,,,PLC_L_D2S1,P31,60.022683891,02,C,2015_Aug_20_1417,X,
stim/posf.jpg,stim/negf.jpg,stim/2.jpg,stim/6.jpg,stim/latef.jpg,CD,1,2,,,,,0,2,2,22,,,,,,,,,,,,,,4,0,0.699792446673,,,,,,PLC_L_D2S1,P31,60.022683891,02,C,2015_Aug_20_1417,X,
stim/negf.jpg,stim/posf.jpg,stim/5.jpg,stim/4.jpg,stim/latef.jpg,AB,2,4,,,,,0,3,3,18,,,,,,,,,,,,,,4,1,0.833051119916,,,,,,PLC_L_D2S1,P31,60.022683891,02,C,2015_Aug_20_1417,X,
stim/negf.jpg,stim/posf.jpg,stim/1.jpg,stim/3.jpg,stim/latef.jpg,EF,2,4,,,,,0,4,4,58,,,,,,,,,,,,,,4,1,0.899716230705,,,,,,PLC_L_D2S1,P31,60.022683891,02,C,2015_Aug_20_1417,X,
stim/posf.jpg,stim/negf.jpg,stim/5.jpg,stim/4.jpg,stim/latef.jpg,AB,2,4,,,,,0,5,5,12,,,,,,,,,,,,,,4,1,0.882988191066,,,,,,PLC_L_D2S1,P31,60.022683891,02,C,2015_Aug_20_1417,X,
stim/negf.jpg,stim/posf.jpg,stim/5.jpg,stim/4.jpg,stim/latef.jpg,AB,2,4,,,,,0,6,6,19,,,,,,,,,,,,,,4,1,0.916369552109,,,,,,PLC_L_D2S1,P31,60.022683891,02,C,2015_Aug_20_1417,X,
stim/posf.jpg,stim/negf.jpg,stim/1.jpg,stim/3.jpg,stim/latef.jpg,EF,2,4,,,,,0,7,7,55,,,,,,,,,,,,,,4,1,0.58314450568,,,,,,PLC_L_D2S1,P31,60.022683891,02,C,2015_Aug_20_1417,X,
stim/posf.jpg,stim/negf.jpg,stim/3.jpg,stim/1.jpg,stim/latef.jpg,EF,1,2,,,,,0,8,8,41,,,,,,,,,,,,,,2,1,0.966341786904,,,,,,PLC_L_D2S1,P31,60.022683891,02,C,2015_Aug_20_1417,X,
stim/posf.jpg,stim/negf.jpg,stim/5.jpg,stim/4.jpg,stim/latef.jpg,AB,2,4,,,,,0,9,9,16,,,,,,,,,,,,,,4,1,0.94969506094,,,,,,PLC_L_D2S1,P31,60.022683891,02,C,2015_Aug_20_1417,X,
stim/posf.jpg,stim/negf.jpg,stim/6.jpg,stim/2.jpg,stim/latef.jpg,CD,2,4,,,,,0,10,10,35,,,,,,,,,,,,,,4,1,0.816398466177,,,,,,PLC_L_D2S1,P31,60.022683891,02,C,2015_Aug_20_1417,X,
stim/negf.jpg,stim/posf.jpg,stim/4.jpg,stim/5.jpg,stim/latef.jpg,AB,1,2,,,,,0,11,11,8,,,,,,,,,,,,,,2,1,1.23292294644,,,,,,PLC_L_D2S1,P31,60.022683891,02,C,2015_Aug_20_1417,X,
stim/posf.jpg,stim/negf.jpg,stim/4.jpg,stim/5.jpg,stim/latef.jpg,AB,1,2,,,,,0,12,12,1,,,,,,,,,,,,,,2,1,0.89970268795,,,,,,PLC_L_D2S1,P31,60.022683891,02,C,2015_Aug_20_1417,X,
stim/negf.jpg,stim/posf.jpg,stim/3.jpg,stim/1.jpg,stim/latef.jpg,EF,1,2,,,,,0,13,13,47,,,,,,,,,,,,,,2,1,0.732811422471,,,,,,PLC_L_D2S1,P31,60.022683891,02,C,2015_Aug_20_1417,X,
stim/posf.jpg,stim/negf.jpg,stim/6.jpg,stim/2.jpg,stim/latef.jpg,CD,2,4,,,,,0,14,14,31,,,,,,,,,,,,,,4,1,0.699766567169,,,,,,PLC_L_D2S1,P31,60.022683891,02,C,2015_Aug_20_1417,X,
stim/posf.jpg,stim/negf.jpg,stim/6.jpg,stim/2.jpg,stim/latef.jpg,CD,2,4,,,,,0,15,15,36,,,,,,,,,,,,,,4,1,0.783088800836,,,,,,PLC_L_D2S1,P31,60.022683891,02,C,2015_Aug_20_1417,X,
stim/posf.jpg,stim/negf.jpg,stim/3.jpg,stim/1.jpg,stim/latef.jpg,EF,1,2,,,,,0,16,16,40,,,,,,,,,,,,,,2,1,0.933008675123,,,,,,PLC_L_D2S1,P31,60.022683891,02,C,2015_Aug_20_1417,X,
stim/posf.jpg,stim/negf.jpg,stim/1.jpg,stim/3.jpg,stim/latef.jpg,EF,2,4,,,,,0,17,17,50,,,,,,,,,,,,,,4,1,0.699769240833,,,,,,PLC_L_D2S1,P31,60.022683891,02,C,2015_Aug_20_1417,X,
stim/posf.jpg,stim/negf.jpg,stim/1.jpg,stim/3.jpg,stim/latef.jpg,EF,2,4,,,,,0,18,18,54,,,,,,,,,,,,,,4,1,0.649806305216,,,,,,PLC_L_D2S1,P31,60.022683891,02,C,2015_Aug_20_1417,X,
stim/posf.jpg,stim/negf.jpg,stim/1.jpg,stim/3.jpg,stim/latef.jpg,EF,2,4,,,,,0,19,19,53,,,,,,,,,,,,,,4,1,0.599856238675,,,,,,PLC_L_D2S1,P31,60.022683891,02,C,2015_Aug_20_1417,X,
stim/posf.jpg,stim/negf.jpg,stim/5.jpg,stim/4.jpg,stim/latef.jpg,AB,2,4,,,,,0,20,20,14,,,,,,,,,,,,,,2,0,0.833020708115,,,,,,PLC_L_D2S1,P31,60.022683891,02,C,2015_Aug_20_1417,X,
stim/negf.jpg,stim/posf.jpg,stim/4.jpg,stim/5.jpg,stim/latef.jpg,AB,1,2,,,,,0,21,21,9,,,,,,,,,,,,,,2,1,0.749749499628,,,,,,PLC_L_D2S1,P31,60.022683891,02,C,2015_Aug_20_1417,X,
stim/posf.jpg,stim/negf.jpg,stim/2.jpg,stim/6.jpg,stim/latef.jpg,CD,1,2,,,,,0,22,22,20,,,,,,,,,,,,,,2,1,0.766406802956,,,,,,PLC_L_D2S1,P31,60.022683891,02,C,2015_Aug_20_1417,X,
stim/posf.jpg,stim/negf.jpg,stim/6.jpg,stim/2.jpg,stim/latef.jpg,CD,2,4,,,,,0,23,23,32,,,,,,,,,,,,,,4,1,0.949687262502,,,,,,PLC_L_D2S1,P31,60.022683891,02,C,2015_Aug_20_1417,X,
stim/negf.jpg,stim/posf.jpg,stim/6.jpg,stim/2.jpg,stim/latef.jpg,CD,2,4,,,,,0,24,24,39,,,,,,,,,,,,,,4,1,0.699789321885,,,,,,PLC_L_D2S1,P31,60.022683891,02,C,2015_Aug_20_1417,X,
stim/posf.jpg,stim/negf.jpg,stim/4.jpg,stim/5.jpg,stim/latef.jpg,AB,1,2,,,,,0,25,25,5,,,,,,,,,,,,,,2,1,0.949678510688,,,,,,PLC_L_D2S1,P31,60.022683891,02,C,2015_Aug_20_1417,X,
stim/posf.jpg,stim/negf.jpg,stim/2.jpg,stim/6.jpg,stim/latef.jpg,CD,1,2,,,,,0,26,26,21,,,,,,,,,,,,,,2,1,0.733093567718,,,,,,PLC_L_D2S1,P31,60.022683891,02,C,2015_Aug_20_1417,X,
stim/posf.jpg,stim/negf.jpg,stim/6.jpg,stim/2.jpg,stim/latef.jpg,CD,2,4,,,,,0,27,27,30,,,,,,,,,,,,,,4,1,0.966361916076,,,,,,PLC_L_D2S1,P31,60.022683891,02,C,2015_Aug_20_1417,X,
stim/negf.jpg,stim/posf.jpg,stim/2.jpg,stim/6.jpg,stim/latef.jpg,CD,1,2,,,,,0,28,28,28,,,,,,,,,,,,,,2,1,0.766413578845,,,,,,PLC_L_D2S1,P31,60.022683891,02,C,2015_Aug_20_1417,X,
stim/posf.jpg,stim/negf.jpg,stim/3.jpg,stim/1.jpg,stim/latef.jpg,EF,1,2,,,,,0,29,29,43,,,,,,,,,,,,,,2,1,0.983033189224,,,,,,PLC_L_D2S1,P31,60.022683891,02,C,2015_Aug_20_1417,X,
stim/negf.jpg,stim/posf.jpg,stim/2.jpg,stim/6.jpg,stim/latef.jpg,CD,1,2,,,,,0,30,30,27,,,,,,,,,,,,,,2,1,0.7831188367,,,,,,PLC_L_D2S1,P31,60.022683891,02,C,2015_Aug_20_1417,X,
stim/posf.jpg,stim/negf.jpg,stim/4.jpg,stim/5.jpg,stim/latef.jpg,AB,1,2,,,,,0,31,31,7,,,,,,,,,,,,,,2,1,0.749773213735,,,,,,PLC_L_D2S1,P31,60.022683891,02,C,2015_Aug_20_1417,X,
stim/negf.jpg,stim/posf.jpg,stim/1.jpg,stim/3.jpg,stim/latef.jpg,EF,2,4,,,,,0,32,32,57,,,,,,,,,,,,,,4,1,0.683126247171,,,,,,PLC_L_D2S1,P31,60.022683891,02,C,2015_Aug_20_1417,X,
stim/posf.jpg,stim/negf.jpg,stim/3.jpg,stim/1.jpg,stim/latef.jpg,EF,1,2,,,,,0,33,33,44,,,,,,,,,,,,,,2,1,0.599742260584,,,,,,PLC_L_D2S1,P31,60.022683891,02,C,2015_Aug_20_1417,X,
stim/posf.jpg,stim/negf.jpg,stim/1.jpg,stim/3.jpg,stim/latef.jpg,EF,2,4,,,,,0,34,34,51,,,,,,,,,,,,,,4,1,0.899713963053,,,,,,PLC_L_D2S1,P31,60.022683891,02,C,2015_Aug_20_1417,X,
stim/posf.jpg,stim/negf.jpg,stim/3.jpg,stim/1.jpg,stim/latef.jpg,EF,1,2,,,,,0,35,35,45,,,,,,,,,,,,,,2,1,0.616419548725,,,,,,PLC_L_D2S1,P31,60.022683891,02,C,2015_Aug_20_1417,X,
stim/posf.jpg,stim/negf.jpg,stim/5.jpg,stim/4.jpg,stim/latef.jpg,AB,2,4,,,,,0,36,36,17,,,,,,,,,,,,,,4,1,0.849723596063,,,,,,PLC_L_D2S1,P31,60.022683891,02,C,2015_Aug_20_1417,X,
stim/posf.jpg,stim/negf.jpg,stim/4.jpg,stim/5.jpg,stim/latef.jpg,AB,1,2,,,,,0,37,37,4,,,,,,,,,,,,,,2,1,0.866388550462,,,,,,PLC_L_D2S1,P31,60.022683891,02,C,2015_Aug_20_1417,X,
stim/negf.jpg,stim/posf.jpg,stim/3.jpg,stim/1.jpg,stim/latef.jpg,EF,1,2,,,,,0,38,38,48,,,,,,,,,,,,,,2,1,0.766397900768,,,,,,PLC_L_D2S1,P31,60.022683891,02,C,2015_Aug_20_1417,X,
stim/posf.jpg,stim/negf.jpg,stim/5.jpg,stim/4.jpg,stim/latef.jpg,AB,2,4,,,,,0,39,39,11,,,,,,,,,,,,,,4,1,0.699814220946,,,,,,PLC_L_D2S1,P31,60.022683891,02,C,2015_Aug_20_1417,X,
stim/posf.jpg,stim/negf.jpg,stim/4.jpg,stim/5.jpg,stim/latef.jpg,AB,1,2,,,,,0,40,40,3,,,,,,,,,,,,,,2,1,0.583119808122,,,,,,PLC_L_D2S1,P31,60.022683891,02,C,2015_Aug_20_1417,X,
stim/negf.jpg,stim/posf.jpg,stim/3.jpg,stim/1.jpg,stim/latef.jpg,EF,1,2,,,,,0,41,41,49,,,,,,,,,,,,,,2,1,0.699779108428,,,,,,PLC_L_D2S1,P31,60.022683891,02,C,2015_Aug_20_1417,X,
stim/posf.jpg,stim/negf.jpg,stim/2.jpg,stim/6.jpg,stim/latef.jpg,CD,1,2,,,,,0,42,42,24,,,,,,,,,,,,,,2,1,1.04966684762,,,,,,PLC_L_D2S1,P31,60.022683891,02,C,2015_Aug_20_1417,X,
stim/posf.jpg,stim/negf.jpg,stim/4.jpg,stim/5.jpg,stim/latef.jpg,AB,1,2,,,,,0,43,43,6,,,,,,,,,,,,,,2,1,1.03297255209,,,,,,PLC_L_D2S1,P31,60.022683891,02,C,2015_Aug_20_1417,X,
stim/posf.jpg,stim/negf.jpg,stim/4.jpg,stim/5.jpg,stim/latef.jpg,AB,1,2,,,,,0,44,44,2,,,,,,,,,,,,,,2,1,0.866370803227,,,,,,PLC_L_D2S1,P31,60.022683891,02,C,2015_Aug_20_1417,X,
stim/posf.jpg,stim/negf.jpg,stim/5.jpg,stim/4.jpg,stim/latef.jpg,AB,2,4,,,,,0,45,45,10,,,,,,,,,,,,,,4,1,0.816401359388,,,,,,PLC_L_D2S1,P31,60.022683891,02,C,2015_Aug_20_1417,X,
stim/posf.jpg,stim/negf.jpg,stim/5.jpg,stim/4.jpg,stim/latef.jpg,AB,2,4,,,,,0,46,46,15,,,,,,,,,,,,,,4,1,0.816381915925,,,,,,PLC_L_D2S1,P31,60.022683891,02,C,2015_Aug_20_1417,X,
stim/posf.jpg,stim/negf.jpg,stim/5.jpg,stim/4.jpg,stim/latef.jpg,AB,2,4,,,,,0,47,47,13,,,,,,,,,,,,,,4,1,0.566475175375,,,,,,PLC_L_D2S1,P31,60.022683891,02,C,2015_Aug_20_1417,X,
stim/posf.jpg,stim/negf.jpg,stim/4.jpg,stim/5.jpg,stim/latef.jpg,AB,1,2,,,,,0,48,48,0,,,,,,,,,,,,,,2,1,0.749770531049,,,,,,PLC_L_D2S1,P31,60.022683891,02,C,2015_Aug_20_1417,X,
stim/negf.jpg,stim/posf.jpg,stim/6.jpg,stim/2.jpg,stim/latef.jpg,CD,2,4,,,,,0,49,49,38,,,,,,,,,,,,,,4,1,0.699769995714,,,,,,PLC_L_D2S1,P31,60.022683891,02,C,2015_Aug_20_1417,X,
stim/posf.jpg,stim/negf.jpg,stim/1.jpg,stim/3.jpg,stim/latef.jpg,EF,2,4,,,,,0,50,50,52,,,,,,,,,,,,,,4,1,0.63310769092,,,,,,PLC_L_D2S1,P31,60.022683891,02,C,2015_Aug_20_1417,X,
stim/posf.jpg,stim/negf.jpg,stim/6.jpg,stim/2.jpg,stim/latef.jpg,CD,2,4,,,,,0,51,51,34,,,,,,,,,,,,,,4,1,0.649788476778,,,,,,PLC_L_D2S1,P31,60.022683891,02,C,2015_Aug_20_1417,X,
stim/posf.jpg,stim/negf.jpg,stim/6.jpg,stim/2.jpg,stim/latef.jpg,CD,2,4,,,,,0,52,52,33,,,,,,,,,,,,,,4,1,0.53315304697,,,,,,PLC_L_D2S1,P31,60.022683891,02,C,2015_Aug_20_1417,X,
stim/posf.jpg,stim/negf.jpg,stim/2.jpg,stim/6.jpg,stim/latef.jpg,CD,1,2,,,,,0,53,53,25,,,,,,,,,,,,,,2,1,0.866366788219,,,,,,PLC_L_D2S1,P31,60.022683891,02,C,2015_Aug_20_1417,X,
stim/negf.jpg,stim/posf.jpg,stim/2.jpg,stim/6.jpg,stim/latef.jpg,CD,1,2,,,,,0,54,54,29,,,,,,,,,,,,,,2,1,0.833012106676,,,,,,PLC_L_D2S1,P31,60.022683891,02,C,2015_Aug_20_1417,X,
stim/posf.jpg,stim/negf.jpg,stim/2.jpg,stim/6.jpg,stim/latef.jpg,CD,1,2,,,,,0,55,55,23,,,,,,,,,,,,,,2,1,0.733100875933,,,,,,PLC_L_D2S1,P31,60.022683891,02,C,2015_Aug_20_1417,X,
stim/negf.jpg,stim/posf.jpg,stim/3.jpg,stim/1.jpg,stim/latef.jpg,EF,1,2,,,,,0,56,56,46,,,,,,,,,,,,,,2,1,0.683096322584,,,,,,PLC_L_D2S1,P31,60.022683891,02,C,2015_Aug_20_1417,X,
stim/posf.jpg,stim/negf.jpg,stim/3.jpg,stim/1.jpg,stim/latef.jpg,EF,1,2,,,,,0,57,57,42,,,,,,,,,,,,,,2,1,0.733093784257,,,,,,PLC_L_D2S1,P31,60.022683891,02,C,2015_Aug_20_1417,X,
stim/negf.jpg,stim/posf.jpg,stim/6.jpg,stim/2.jpg,stim/latef.jpg,CD,2,4,,,,,0,58,58,37,,,,,,,,,,,,,,4,1,0.716425341163,,,,,,PLC_L_D2S1,P31,60.022683891,02,C,2015_Aug_20_1417,X,
stim/negf.jpg,stim/posf.jpg,stim/1.jpg,stim/3.jpg,stim/latef.jpg,EF,2,4,,,,,0,59,59,59,,,,,,,,,,,,,,4,1,0.633094491019,,,,,,PLC_L_D2S1,P31,60.022683891,02,C,2015_Aug_20_1417,X,
,,,,,,,,,,,,,,,,,,,,,,,,,,,,,,,,0.9984375,1.0,1,0,0,PLC_L_D2S1,P31,60.022683891,02,C,2015_Aug_20_1417,X,
stim/negf.jpg,stim/posf.jpg,stim/2.jpg,stim/6.jpg,stim/latef.jpg,CD,1,2,,,,,,,,,0,0,0,29,,,,,,,,,,2,1,1.14962177427,,,,,,PLC_L_D2S1,P31,60.022683891,02,C,2015_Aug_20_1417,X,
stim/posf.jpg,stim/negf.jpg,stim/5.jpg,stim/4.jpg,stim/latef.jpg,AB,2,4,,,,,,,,,0,1,1,12,,,,,,,,,,4,1,1.23293774333,,,,,,PLC_L_D2S1,P31,60.022683891,02,C,2015_Aug_20_1417,X,
stim/posf.jpg,stim/negf.jpg,stim/5.jpg,stim/4.jpg,stim/latef.jpg,AB,2,4,,,,,,,,,0,2,2,13,,,,,,,,,,4,1,0.832983667792,,,,,,PLC_L_D2S1,P31,60.022683891,02,C,2015_Aug_20_1417,X,
stim/posf.jpg,stim/negf.jpg,stim/2.jpg,stim/6.jpg,stim/latef.jpg,CD,1,2,,,,,,,,,0,3,3,20,,,,,,,,,,2,1,1.1163546259,,,,,,PLC_L_D2S1,P31,60.022683891,02,C,2015_Aug_20_1417,X,
stim/posf.jpg,stim/negf.jpg,stim/6.jpg,stim/2.jpg,stim/latef.jpg,CD,2,4,,,,,,,,,0,4,4,36,,,,,,,,,,4,1,1.24960667363,,,,,,PLC_L_D2S1,P31,60.022683891,02,C,2015_Aug_20_1417,X,
stim/posf.jpg,stim/negf.jpg,stim/5.jpg,stim/4.jpg,stim/latef.jpg,AB,2,4,,,,,,,,,0,5,5,15,,,,,,,,,,4,1,0.783101089465,,,,,,PLC_L_D2S1,P31,60.022683891,02,C,2015_Aug_20_1417,X,
stim/posf.jpg,stim/negf.jpg,stim/2.jpg,stim/6.jpg,stim/latef.jpg,CD,1,2,,,,,,,,,0,6,6,21,,,,,,,,,,2,1,0.583126593033,,,,,,PLC_L_D2S1,P31,60.022683891,02,C,2015_Aug_20_1417,X,
stim/negf.jpg,stim/posf.jpg,stim/4.jpg,stim/5.jpg,stim/latef.jpg,AB,1,2,,,,,,,,,0,7,7,9,,,,,,,,,,2,1,0.733089405343,,,,,,PLC_L_D2S1,P31,60.022683891,02,C,2015_Aug_20_1417,X,
stim/posf.jpg,stim/negf.jpg,stim/4.jpg,stim/5.jpg,stim/latef.jpg,AB,1,2,,,,,,,,,0,8,8,6,,,,,,,,,,2,1,0.683037044834,,,,,,PLC_L_D2S1,P31,60.022683891,02,C,2015_Aug_20_1417,X,
stim/posf.jpg,stim/negf.jpg,stim/4.jpg,stim/5.jpg,stim/latef.jpg,AB,1,2,,,,,,,,,0,9,9,3,,,,,,,,,,2,1,0.566477548289,,,,,,PLC_L_D2S1,P31,60.022683891,02,C,2015_Aug_20_1417,X,
stim/posf.jpg,stim/negf.jpg,stim/2.jpg,stim/6.jpg,stim/latef.jpg,CD,1,2,,,,,,,,,0,10,10,22,,,,,,,,,,2,1,1.13296057624,,,,,,PLC_L_D2S1,P31,60.022683891,02,C,2015_Aug_20_1417,X,
stim/posf.jpg,stim/negf.jpg,stim/6.jpg,stim/2.jpg,stim/latef.jpg,CD,2,4,,,,,,,,,0,11,11,35,,,,,,,,,,4,1,0.966336659123,,,,,,PLC_L_D2S1,P31,60.022683891,02,C,2015_Aug_20_1417,X,
stim/posf.jpg,stim/negf.jpg,stim/4.jpg,stim/5.jpg,stim/latef.jpg,AB,1,2,,,,,,,,,0,12,12,7,,,,,,,,,,2,1,0.749762227352,,,,,,PLC_L_D2S1,P31,60.022683891,02,C,2015_Aug_20_1417,X,
stim/posf.jpg,stim/negf.jpg,stim/1.jpg,stim/3.jpg,stim/latef.jpg,EF,2,4,,,,,,,,,0,13,13,55,,,,,,,,,,4,1,0.733092872986,,,,,,PLC_L_D2S1,P31,60.022683891,02,C,2015_Aug_20_1417,X,
stim/negf.jpg,stim/posf.jpg,stim/1.jpg,stim/3.jpg,stim/latef.jpg,EF,2,4,,,,,,,,,0,14,14,57,,,,,,,,,,4,1,0.833033291479,,,,,,PLC_L_D2S1,P31,60.022683891,02,C,2015_Aug_20_1417,X,
stim/negf.jpg,stim/posf.jpg,stim/3.jpg,stim/1.jpg,stim/latef.jpg,EF,1,2,,,,,,,,,0,15,15,46,,,,,,,,,,2,1,0.78303632905,,,,,,PLC_L_D2S1,P31,60.022683891,02,C,2015_Aug_20_1417,X,
stim/posf.jpg,stim/negf.jpg,stim/1.jpg,stim/3.jpg,stim/latef.jpg,EF,2,4,,,,,,,,,0,16,16,50,,,,,,,,,,4,1,1.11627098443,,,,,,PLC_L_D2S1,P31,60.022683891,02,C,2015_Aug_20_1417,X,
stim/posf.jpg,stim/negf.jpg,stim/6.jpg,stim/2.jpg,stim/latef.jpg,CD,2,4,,,,,,,,,0,17,17,30,,,,,,,,,,4,1,0.649772055849,,,,,,PLC_L_D2S1,P31,60.022683891,02,C,2015_Aug_20_1417,X,
stim/negf.jpg,stim/posf.jpg,stim/2.jpg,stim/6.jpg,stim/latef.jpg,CD,1,2,,,,,,,,,0,18,18,28,,,,,,,,,,2,1,0.749766425816,,,,,,PLC_L_D2S1,P31,60.022683891,02,C,2015_Aug_20_1417,X,
stim/posf.jpg,stim/negf.jpg,stim/2.jpg,stim/6.jpg,stim/latef.jpg,CD,1,2,,,,,,,,,0,19,19,26,,,,,,,,,,2,1,1.28293118999,,,,,,PLC_L_D2S1,P31,60.022683891,02,C,2015_Aug_20_1417,X,
stim/negf.jpg,stim/posf.jpg,stim/6.jpg,stim/2.jpg,stim/latef.jpg,CD,2,4,,,,,,,,,0,20,20,38,,,,,,,,,,4,1,0.583156198826,,,,,,PLC_L_D2S1,P31,60.022683891,02,C,2015_Aug_20_1417,X,
stim/negf.jpg,stim/posf.jpg,stim/6.jpg,stim/2.jpg,stim/latef.jpg,CD,2,4,,,,,,,,,0,21,21,39,,,,,,,,,,4,1,0.949702847347,,,,,,PLC_L_D2S1,P31,60.022683891,02,C,2015_Aug_20_1417,X,
stim/negf.jpg,stim/posf.jpg,stim/5.jpg,stim/4.jpg,stim/latef.jpg,AB,2,4,,,,,,,,,0,22,22,18,,,,,,,,,,4,1,1.34956417471,,,,,,PLC_L_D2S1,P31,60.022683891,02,C,2015_Aug_20_1417,X,
stim/negf.jpg,stim/posf.jpg,stim/1.jpg,stim/3.jpg,stim/latef.jpg,EF,2,4,,,,,,,,,0,23,23,59,,,,,,,,,,4,1,0.899741084653,,,,,,PLC_L_D2S1,P31,60.022683891,02,C,2015_Aug_20_1417,X,
stim/negf.jpg,stim/posf.jpg,stim/3.jpg,stim/1.jpg,stim/latef.jpg,EF,1,2,,,,,,,,,0,24,24,48,,,,,,,,,,2,1,1.33291174954,,,,,,PLC_L_D2S1,P31,60.022683891,02,C,2015_Aug_20_1417,X,
stim/negf.jpg,stim/posf.jpg,stim/5.jpg,stim/4.jpg,stim/latef.jpg,AB,2,4,,,,,,,,,0,25,25,19,,,,,,,,,,4,1,1.4328616266,,,,,,PLC_L_D2S1,P31,60.022683891,02,C,2015_Aug_20_1417,X,
stim/negf.jpg,stim/posf.jpg,stim/2.jpg,stim/6.jpg,stim/latef.jpg,CD,1,2,,,,,,,,,0,26,26,27,,,,,,,,,,2,1,0.699805718754,,,,,,PLC_L_D2S1,P31,60.022683891,02,C,2015_Aug_20_1417,X,
stim/posf.jpg,stim/negf.jpg,stim/2.jpg,stim/6.jpg,stim/latef.jpg,CD,1,2,,,,,,,,,0,27,27,24,,,,,,,,,,2,1,0.849744624477,,,,,,PLC_L_D2S1,P31,60.022683891,02,C,2015_Aug_20_1417,X,
stim/posf.jpg,stim/negf.jpg,stim/5.jpg,stim/4.jpg,stim/latef.jpg,AB,2,4,,,,,,,,,0,28,28,10,,,,,,,,,,4,1,0.683151284577,,,,,,PLC_L_D2S1,P31,60.022683891,02,C,2015_Aug_20_1417,X,
stim/posf.jpg,stim/negf.jpg,stim/3.jpg,stim/1.jpg,stim/latef.jpg,EF,1,2,,,,,,,,,0,29,29,40,,,,,,,,,,2,1,0.699779773085,,,,,,PLC_L_D2S1,P31,60.022683891,02,C,2015_Aug_20_1417,X,
stim/posf.jpg,stim/negf.jpg,stim/3.jpg,stim/1.jpg,stim/latef.jpg,EF,1,2,,,,,,,,,0,30,30,45,,,,,,,,,,2,1,0.733088445951,,,,,,PLC_L_D2S1,P31,60.022683891,02,C,2015_Aug_20_1417,X,
stim/posf.jpg,stim/negf.jpg,stim/3.jpg,stim/1.jpg,stim/latef.jpg,EF,1,2,,,,,,,,,0,31,31,43,,,,,,,,,,2,1,0.649783379072,,,,,,PLC_L_D2S1,P31,60.022683891,02,C,2015_Aug_20_1417,X,
stim/posf.jpg,stim/negf.jpg,stim/3.jpg,stim/1.jpg,stim/latef.jpg,EF,1,2,,,,,,,,,0,32,32,41,,,,,,,,,,2,1,0.549829105044,,,,,,PLC_L_D2S1,P31,60.022683891,02,C,2015_Aug_20_1417,X,
stim/posf.jpg,stim/negf.jpg,stim/5.jpg,stim/4.jpg,stim/latef.jpg,AB,2,4,,,,,,,,,0,33,33,17,,,,,,,,,,4,1,0.98302888249,,,,,,PLC_L_D2S1,P31,60.022683891,02,C,2015_Aug_20_1417,X,
stim/posf.jpg,stim/negf.jpg,stim/1.jpg,stim/3.jpg,stim/latef.jpg,EF,2,4,,,,,,,,,0,34,34,52,,,,,,,,,,4,1,0.916371431794,,,,,,PLC_L_D2S1,P31,60.022683891,02,C,2015_Aug_20_1417,X,
stim/negf.jpg,stim/posf.jpg,stim/3.jpg,stim/1.jpg,stim/latef.jpg,EF,1,2,,,,,,,,,0,35,35,49,,,,,,,,,,2,1,1.11634714325,,,,,,PLC_L_D2S1,P31,60.022683891,02,C,2015_Aug_20_1417,X,
stim/posf.jpg,stim/negf.jpg,stim/3.jpg,stim/1.jpg,stim/latef.jpg,EF,1,2,,,,,,,,,0,36,36,42,,,,,,,,,,2,1,0.816323859219,,,,,,PLC_L_D2S1,P31,60.022683891,02,C,2015_Aug_20_1417,X,
stim/posf.jpg,stim/negf.jpg,stim/4.jpg,stim/5.jpg,stim/latef.jpg,AB,1,2,,,,,,,,,0,37,37,4,,,,,,,,,,2,1,0.733082647499,,,,,,PLC_L_D2S1,P31,60.022683891,02,C,2015_Aug_20_1417,X,
stim/posf.jpg,stim/negf.jpg,stim/1.jpg,stim/3.jpg,stim/latef.jpg,EF,2,4,,,,,,,,,0,38,38,54,,,,,,,,,,4,1,0.716415299133,,,,,,PLC_L_D2S1,P31,60.022683891,02,C,2015_Aug_20_1417,X,
stim/negf.jpg,stim/posf.jpg,stim/1.jpg,stim/3.jpg,stim/latef.jpg,EF,2,4,,,,,,,,,0,39,39,56,,,,,,,,,,4,1,0.899710059323,,,,,,PLC_L_D2S1,P31,60.022683891,02,C,2015_Aug_20_1417,X,
stim/negf.jpg,stim/posf.jpg,stim/4.jpg,stim/5.jpg,stim/latef.jpg,AB,1,2,,,,,,,,,0,40,40,8,,,,,,,,,,2,1,0.699776179127,,,,,,PLC_L_D2S1,P31,60.022683891,02,C,2015_Aug_20_1417,X,
stim/posf.jpg,stim/negf.jpg,stim/4.jpg,stim/5.jpg,stim/latef.jpg,AB,1,2,,,,,,,,,0,41,41,2,,,,,,,,,,2,1,0.833031384726,,,,,,PLC_L_D2S1,P31,60.022683891,02,C,2015_Aug_20_1417,X,
stim/posf.jpg,stim/negf.jpg,stim/4.jpg,stim/5.jpg,stim/latef.jpg,AB,1,2,,,,,,,,,0,42,42,1,,,,,,,,,,2,1,0.766353621401,,,,,,PLC_L_D2S1,P31,60.022683891,02,C,2015_Aug_20_1417,X,
stim/posf.jpg,stim/negf.jpg,stim/4.jpg,stim/5.jpg,stim/latef.jpg,AB,1,2,,,,,,,,,0,43,43,5,,,,,,,,,,2,1,0.549809117225,,,,,,PLC_L_D2S1,P31,60.022683891,02,C,2015_Aug_20_1417,X,
stim/posf.jpg,stim/negf.jpg,stim/6.jpg,stim/2.jpg,stim/latef.jpg,CD,2,4,,,,,,,,,0,44,44,31,,,,,,,,,,4,1,0.716408469109,,,,,,PLC_L_D2S1,P31,60.022683891,02,C,2015_Aug_20_1417,X,
stim/posf.jpg,stim/negf.jpg,stim/2.jpg,stim/6.jpg,stim/latef.jpg,CD,1,2,,,,,,,,,0,45,45,25,,,,,,,,,,2,1,0.749684264028,,,,,,PLC_L_D2S1,P31,60.022683891,02,C,2015_Aug_20_1417,X,
stim/negf.jpg,stim/posf.jpg,stim/3.jpg,stim/1.jpg,stim/latef.jpg,EF,1,2,,,,,,,,,0,46,46,47,,,,,,,,,,2,1,0.61651230893,,,,,,PLC_L_D2S1,P31,60.022683891,02,C,2015_Aug_20_1417,X,
stim/posf.jpg,stim/negf.jpg,stim/6.jpg,stim/2.jpg,stim/latef.jpg,CD,2,4,,,,,,,,,0,47,47,32,,,,,,,,,,4,1,0.59979743611,,,,,,PLC_L_D2S1,P31,60.022683891,02,C,2015_Aug_20_1417,X,
stim/posf.jpg,stim/negf.jpg,stim/3.jpg,stim/1.jpg,stim/latef.jpg,EF,1,2,,,,,,,,,0,48,48,44,,,,,,,,,,2,1,0.549814296133,,,,,,PLC_L_D2S1,P31,60.022683891,02,C,2015_Aug_20_1417,X,
stim/posf.jpg,stim/negf.jpg,stim/1.jpg,stim/3.jpg,stim/latef.jpg,EF,2,4,,,,,,,,,0,49,49,53,,,,,,,,,,4,1,0.866385088834,,,,,,PLC_L_D2S1,P31,60.022683891,02,C,2015_Aug_20_1417,X,
stim/posf.jpg,stim/negf.jpg,stim/6.jpg,stim/2.jpg,stim/latef.jpg,CD,2,4,,,,,,,,,0,50,50,33,,,,,,,,,,4,1,0.683079143766,,,,,,PLC_L_D2S1,P31,60.022683891,02,C,2015_Aug_20_1417,X,
stim/posf.jpg,stim/negf.jpg,stim/4.jpg,stim/5.jpg,stim/latef.jpg,AB,1,2,,,,,,,,,0,51,51,0,,,,,,,,,,2,1,0.849712029233,,,,,,PLC_L_D2S1,P31,60.022683891,02,C,2015_Aug_20_1417,X,
stim/negf.jpg,stim/posf.jpg,stim/6.jpg,stim/2.jpg,stim/latef.jpg,CD,2,4,,,,,,,,,0,52,52,37,,,,,,,,,,4,1,0.549784115909,,,,,,PLC_L_D2S1,P31,60.022683891,02,C,2015_Aug_20_1417,X,
stim/posf.jpg,stim/negf.jpg,stim/5.jpg,stim/4.jpg,stim/latef.jpg,AB,2,4,,,,,,,,,0,53,53,14,,,,,,,,,,4,1,0.966361170217,,,,,,PLC_L_D2S1,P31,60.022683891,02,C,2015_Aug_20_1417,X,
stim/posf.jpg,stim/negf.jpg,stim/2.jpg,stim/6.jpg,stim/latef.jpg,CD,1,2,,,,,,,,,0,54,54,23,,,,,,,,,,2,1,0.73310519169,,,,,,PLC_L_D2S1,P31,60.022683891,02,C,2015_Aug_20_1417,X,
stim/posf.jpg,stim/negf.jpg,stim/5.jpg,stim/4.jpg,stim/latef.jpg,AB,2,4,,,,,,,,,0,55,55,16,,,,,,,,,,4,1,0.833091639912,,,,,,PLC_L_D2S1,P31,60.022683891,02,C,2015_Aug_20_1417,X,
stim/negf.jpg,stim/posf.jpg,stim/1.jpg,stim/3.jpg,stim/latef.jpg,EF,2,4,,,,,,,,,0,56,56,58,,,,,,,,,,4,1,0.966362707047,,,,,,PLC_L_D2S1,P31,60.022683891,02,C,2015_Aug_20_1417,X,
stim/posf.jpg,stim/negf.jpg,stim/5.jpg,stim/4.jpg,stim/latef.jpg,AB,2,4,,,,,,,,,0,57,57,11,,,,,,,,,,4,1,0.633167976181,,,,,,PLC_L_D2S1,P31,60.022683891,02,C,2015_Aug_20_1417,X,
stim/posf.jpg,stim/negf.jpg,stim/1.jpg,stim/3.jpg,stim/latef.jpg,EF,2,4,,,,,,,,,0,58,58,51,,,,,,,,,,4,1,0.699692988774,,,,,,PLC_L_D2S1,P31,60.022683891,02,C,2015_Aug_20_1417,X,
stim/posf.jpg,stim/negf.jpg,stim/6.jpg,stim/2.jpg,stim/latef.jpg,CD,2,4,,,,,,,,,0,59,59,34,,,,,,,,,,4,1,0.699750898114,,,,,,PLC_L_D2S1,P31,60.022683891,02,C,2015_Aug_20_1417,X,
,,,,,,,,,,,,,,,,,,,,,,,,,,,,,,,,0.9984375,1.0,1,0,0,PLC_L_D2S1,P31,60.022683891,02,C,2015_Aug_20_1417,X,
stim/posf.jpg,stim/negf.jpg,stim/4.jpg,stim/5.jpg,stim/latef.jpg,AB,1,2,,,,,,,,,,,,,0,0,0,7,,,,,,2,1,1.11631179615,,,,,,PLC_L_D2S1,P31,60.022683891,02,C,2015_Aug_20_1417,X,
stim/posf.jpg,stim/negf.jpg,stim/3.jpg,stim/1.jpg,stim/latef.jpg,EF,1,2,,,,,,,,,,,,,0,1,1,42,,,,,,2,1,0.4665166698,,,,,,PLC_L_D2S1,P31,60.022683891,02,C,2015_Aug_20_1417,X,
stim/posf.jpg,stim/negf.jpg,stim/5.jpg,stim/4.jpg,stim/latef.jpg,AB,2,4,,,,,,,,,,,,,0,2,2,10,,,,,,4,1,0.699713511929,,,,,,PLC_L_D2S1,P31,60.022683891,02,C,2015_Aug_20_1417,X,
stim/posf.jpg,stim/negf.jpg,stim/5.jpg,stim/4.jpg,stim/latef.jpg,AB,2,4,,,,,,,,,,,,,0,3,3,13,,,,,,4,1,0.466439341058,,,,,,PLC_L_D2S1,P31,60.022683891,02,C,2015_Aug_20_1417,X,
stim/negf.jpg,stim/posf.jpg,stim/6.jpg,stim/2.jpg,stim/latef.jpg,CD,2,4,,,,,,,,,,,,,0,4,4,39,,,,,,4,1,0.599808792415,,,,,,PLC_L_D2S1,P31,60.022683891,02,C,2015_Aug_20_1417,X,
stim/posf.jpg,stim/negf.jpg,stim/4.jpg,stim/5.jpg,stim/latef.jpg,AB,1,2,,,,,,,,,,,,,0,5,5,1,,,,,,2,1,0.983027372726,,,,,,PLC_L_D2S1,P31,60.022683891,02,C,2015_Aug_20_1417,X,
stim/posf.jpg,stim/negf.jpg,stim/6.jpg,stim/2.jpg,stim/latef.jpg,CD,2,4,,,,,,,,,,,,,0,6,6,31,,,,,,4,1,0.583144713198,,,,,,PLC_L_D2S1,P31,60.022683891,02,C,2015_Aug_20_1417,X,
stim/negf.jpg,stim/posf.jpg,stim/6.jpg,stim/2.jpg,stim/latef.jpg,CD,2,4,,,,,,,,,,,,,0,7,7,38,,,,,,4,1,0.699776561078,,,,,,PLC_L_D2S1,P31,60.022683891,02,C,2015_Aug_20_1417,X,
stim/posf.jpg,stim/negf.jpg,stim/5.jpg,stim/4.jpg,stim/latef.jpg,AB,2,4,,,,,,,,,,,,,0,8,8,16,,,,,,4,1,0.516497839866,,,,,,PLC_L_D2S1,P31,60.022683891,02,C,2015_Aug_20_1417,X,
stim/posf.jpg,stim/negf.jpg,stim/2.jpg,stim/6.jpg,stim/latef.jpg,CD,1,2,,,,,,,,,,,,,0,9,9,26,,,,,,2,1,0.716379627221,,,,,,PLC_L_D2S1,P31,60.022683891,02,C,2015_Aug_20_1417,X,
stim/negf.jpg,stim/posf.jpg,stim/5.jpg,stim/4.jpg,stim/latef.jpg,AB,2,4,,,,,,,,,,,,,0,10,10,19,,,,,,4,1,0.533145792889,,,,,,PLC_L_D2S1,P31,60.022683891,02,C,2015_Aug_20_1417,X,
stim/negf.jpg,stim/posf.jpg,stim/1.jpg,stim/3.jpg,stim/latef.jpg,EF,2,4,,,,,,,,,,,,,0,11,11,56,,,,,,4,1,0.649772131037,,,,,,PLC_L_D2S1,P31,60.022683891,02,C,2015_Aug_20_1417,X,
stim/posf.jpg,stim/negf.jpg,stim/4.jpg,stim/5.jpg,stim/latef.jpg,AB,1,2,,,,,,,,,,,,,0,12,12,5,,,,,,2,1,0.866387200096,,,,,,PLC_L_D2S1,P31,60.022683891,02,C,2015_Aug_20_1417,X,
stim/negf.jpg,stim/posf.jpg,stim/2.jpg,stim/6.jpg,stim/latef.jpg,CD,1,2,,,,,,,,,,,,,0,13,13,29,,,,,,2,1,0.649801884196,,,,,,PLC_L_D2S1,P31,60.022683891,02,C,2015_Aug_20_1417,X,
stim/posf.jpg,stim/negf.jpg,stim/3.jpg,stim/1.jpg,stim/latef.jpg,EF,1,2,,,,,,,,,,,,,0,14,14,44,,,,,,2,1,0.566469452109,,,,,,PLC_L_D2S1,P31,60.022683891,02,C,2015_Aug_20_1417,X,
stim/posf.jpg,stim/negf.jpg,stim/1.jpg,stim/3.jpg,stim/latef.jpg,EF,2,4,,,,,,,,,,,,,0,15,15,53,,,,,,4,1,0.516525190036,,,,,,PLC_L_D2S1,P31,60.022683891,02,C,2015_Aug_20_1417,X,
stim/posf.jpg,stim/negf.jpg,stim/3.jpg,stim/1.jpg,stim/latef.jpg,EF,1,2,,,,,,,,,,,,,0,16,16,43,,,,,,2,1,0.483100409771,,,,,,PLC_L_D2S1,P31,60.022683891,02,C,2015_Aug_20_1417,X,
stim/posf.jpg,stim/negf.jpg,stim/3.jpg,stim/1.jpg,stim/latef.jpg,EF,1,2,,,,,,,,,,,,,0,17,17,41,,,,,,2,1,0.666470360373,,,,,,PLC_L_D2S1,P31,60.022683891,02,C,2015_Aug_20_1417,X,
stim/negf.jpg,stim/posf.jpg,stim/3.jpg,stim/1.jpg,stim/latef.jpg,EF,1,2,,,,,,,,,,,,,0,18,18,49,,,,,,2,1,0.683094271471,,,,,,PLC_L_D2S1,P31,60.022683891,02,C,2015_Aug_20_1417,X,
stim/negf.jpg,stim/posf.jpg,stim/3.jpg,stim/1.jpg,stim/latef.jpg,EF,1,2,,,,,,,,,,,,,0,19,19,48,,,,,,2,1,0.666439635792,,,,,,PLC_L_D2S1,P31,60.022683891,02,C,2015_Aug_20_1417,X,
stim/posf.jpg,stim/negf.jpg,stim/4.jpg,stim/5.jpg,stim/latef.jpg,AB,1,2,,,,,,,,,,,,,0,20,20,2,,,,,,2,1,0.69981445553,,,,,,PLC_L_D2S1,P31,60.022683891,02,C,2015_Aug_20_1417,X,
stim/posf.jpg,stim/negf.jpg,stim/5.jpg,stim/4.jpg,stim/latef.jpg,AB,2,4,,,,,,,,,,,,,0,21,21,11,,,,,,4,1,0.899708185653,,,,,,PLC_L_D2S1,P31,60.022683891,02,C,2015_Aug_20_1417,X,
stim/posf.jpg,stim/negf.jpg,stim/1.jpg,stim/3.jpg,stim/latef.jpg,EF,2,4,,,,,,,,,,,,,0,22,22,50,,,,,,4,1,0.716492820355,,,,,,PLC_L_D2S1,P31,60.022683891,02,C,2015_Aug_20_1417,X,
stim/posf.jpg,stim/negf.jpg,stim/6.jpg,stim/2.jpg,stim/latef.jpg,CD,2,4,,,,,,,,,,,,,0,23,23,30,,,,,,4,1,0.749761406305,,,,,,PLC_L_D2S1,P31,60.022683891,02,C,2015_Aug_20_1417,X,
stim/negf.jpg,stim/posf.jpg,stim/4.jpg,stim/5.jpg,stim/latef.jpg,AB,1,2,,,,,,,,,,,,,0,24,24,9,,,,,,2,1,0.766418712641,,,,,,PLC_L_D2S1,P31,60.022683891,02,C,2015_Aug_20_1417,X,
stim/posf.jpg,stim/negf.jpg,stim/1.jpg,stim/3.jpg,stim/latef.jpg,EF,2,4,,,,,,,,,,,,,0,25,25,55,,,,,,4,1,0.633208342794,,,,,,PLC_L_D2S1,P31,60.022683891,02,C,2015_Aug_20_1417,X,
stim/posf.jpg,stim/negf.jpg,stim/2.jpg,stim/6.jpg,stim/latef.jpg,CD,1,2,,,,,,,,,,,,,0,26,26,23,,,,,,2,1,0.949698901512,,,,,,PLC_L_D2S1,P31,60.022683891,02,C,2015_Aug_20_1417,X,
stim/posf.jpg,stim/negf.jpg,stim/2.jpg,stim/6.jpg,stim/latef.jpg,CD,1,2,,,,,,,,,,,,,0,27,27,25,,,,,,2,1,0.816392631634,,,,,,PLC_L_D2S1,P31,60.022683891,02,C,2015_Aug_20_1417,X,
stim/posf.jpg,stim/negf.jpg,stim/4.jpg,stim/5.jpg,stim/latef.jpg,AB,1,2,,,,,,,,,,,,,0,28,28,4,,,,,,2,1,0.933034569665,,,,,,PLC_L_D2S1,P31,60.022683891,02,C,2015_Aug_20_1417,X,
stim/negf.jpg,stim/posf.jpg,stim/1.jpg,stim/3.jpg,stim/latef.jpg,EF,2,4,,,,,,,,,,,,,0,29,29,57,,,,,,4,1,0.633126514838,,,,,,PLC_L_D2S1,P31,60.022683891,02,C,2015_Aug_20_1417,X,
stim/posf.jpg,stim/negf.jpg,stim/3.jpg,stim/1.jpg,stim/latef.jpg,EF,1,2,,,,,,,,,,,,,0,30,30,40,,,,,,2,1,0.649774221246,,,,,,PLC_L_D2S1,P31,60.022683891,02,C,2015_Aug_20_1417,X,
stim/negf.jpg,stim/posf.jpg,stim/2.jpg,stim/6.jpg,stim/latef.jpg,CD,1,2,,,,,,,,,,,,,0,31,31,27,,,,,,2,1,0.716420354734,,,,,,PLC_L_D2S1,P31,60.022683891,02,C,2015_Aug_20_1417,X,
stim/negf.jpg,stim/posf.jpg,stim/3.jpg,stim/1.jpg,stim/latef.jpg,EF,1,2,,,,,,,,,,,,,0,32,32,47,,,,,,2,1,0.749694585755,,,,,,PLC_L_D2S1,P31,60.022683891,02,C,2015_Aug_20_1417,X,
stim/posf.jpg,stim/negf.jpg,stim/2.jpg,stim/6.jpg,stim/latef.jpg,CD,1,2,,,,,,,,,,,,,0,33,33,20,,,,,,2,1,0.599819144217,,,,,,PLC_L_D2S1,P31,60.022683891,02,C,2015_Aug_20_1417,X,
stim/posf.jpg,stim/negf.jpg,stim/3.jpg,stim/1.jpg,stim/latef.jpg,EF,1,2,,,,,,,,,,,,,0,34,34,45,,,,,,2,1,0.599776946038,,,,,,PLC_L_D2S1,P31,60.022683891,02,C,2015_Aug_20_1417,X,
stim/negf.jpg,stim/posf.jpg,stim/3.jpg,stim/1.jpg,stim/latef.jpg,EF,1,2,,,,,,,,,,,,,0,35,35,46,,,,,,2,1,0.533143753806,,,,,,PLC_L_D2S1,P31,60.022683891,02,C,2015_Aug_20_1417,X,
stim/posf.jpg,stim/negf.jpg,stim/6.jpg,stim/2.jpg,stim/latef.jpg,CD,2,4,,,,,,,,,,,,,0,36,36,32,,,,,,4,1,0.56647457989,,,,,,PLC_L_D2S1,P31,60.022683891,02,C,2015_Aug_20_1417,X,
stim/posf.jpg,stim/negf.jpg,stim/4.jpg,stim/5.jpg,stim/latef.jpg,AB,1,2,,,,,,,,,,,,,0,37,37,6,,,,,,2,1,0.63307397388,,,,,,PLC_L_D2S1,P31,60.022683891,02,C,2015_Aug_20_1417,X,
stim/posf.jpg,stim/negf.jpg,stim/6.jpg,stim/2.jpg,stim/latef.jpg,CD,2,4,,,,,,,,,,,,,0,38,38,33,,,,,,4,1,0.633099597747,,,,,,PLC_L_D2S1,P31,60.022683891,02,C,2015_Aug_20_1417,X,
stim/posf.jpg,stim/negf.jpg,stim/5.jpg,stim/4.jpg,stim/latef.jpg,AB,2,4,,,,,,,,,,,,,0,39,39,17,,,,,,4,1,1.01628877978,,,,,,PLC_L_D2S1,P31,60.022683891,02,C,2015_Aug_20_1417,X,
stim/posf.jpg,stim/negf.jpg,stim/1.jpg,stim/3.jpg,stim/latef.jpg,EF,2,4,,,,,,,,,,,,,0,40,40,51,,,,,,4,1,0.649789318877,,,,,,PLC_L_D2S1,P31,60.022683891,02,C,2015_Aug_20_1417,X,
stim/negf.jpg,stim/posf.jpg,stim/2.jpg,stim/6.jpg,stim/latef.jpg,CD,1,2,,,,,,,,,,,,,0,41,41,28,,,,,,2,1,1.21627758889,,,,,,PLC_L_D2S1,P31,60.022683891,02,C,2015_Aug_20_1417,X,
stim/negf.jpg,stim/posf.jpg,stim/4.jpg,stim/5.jpg,stim/latef.jpg,AB,1,2,,,,,,,,,,,,,0,42,42,8,,,,,,2,1,1.13300734581,,,,,,PLC_L_D2S1,P31,60.022683891,02,C,2015_Aug_20_1417,X,
stim/posf.jpg,stim/negf.jpg,stim/5.jpg,stim/4.jpg,stim/latef.jpg,AB,2,4,,,,,,,,,,,,,0,43,43,12,,,,,,4,1,0.799718582567,,,,,,PLC_L_D2S1,P31,60.022683891,02,C,2015_Aug_20_1417,X,
stim/posf.jpg,stim/negf.jpg,stim/2.jpg,stim/6.jpg,stim/latef.jpg,CD,1,2,,,,,,,,,,,,,0,44,44,22,,,,,,2,1,0.633050996609,,,,,,PLC_L_D2S1,P31,60.022683891,02,C,2015_Aug_20_1417,X,
stim/negf.jpg,stim/posf.jpg,stim/1.jpg,stim/3.jpg,stim/latef.jpg,EF,2,4,,,,,,,,,,,,,0,45,45,58,,,,,,4,1,0.616452489831,,,,,,PLC_L_D2S1,P31,60.022683891,02,C,2015_Aug_20_1417,X,
stim/posf.jpg,stim/negf.jpg,stim/1.jpg,stim/3.jpg,stim/latef.jpg,EF,2,4,,,,,,,,,,,,,0,46,46,52,,,,,,4,1,0.733104954098,,,,,,PLC_L_D2S1,P31,60.022683891,02,C,2015_Aug_20_1417,X,
stim/posf.jpg,stim/negf.jpg,stim/4.jpg,stim/5.jpg,stim/latef.jpg,AB,1,2,,,,,,,,,,,,,0,47,47,0,,,,,,2,1,0.966383964031,,,,,,PLC_L_D2S1,P31,60.022683891,02,C,2015_Aug_20_1417,X,
stim/negf.jpg,stim/posf.jpg,stim/6.jpg,stim/2.jpg,stim/latef.jpg,CD,2,4,,,,,,,,,,,,,0,48,48,37,,,,,,4,1,0.799746528221,,,,,,PLC_L_D2S1,P31,60.022683891,02,C,2015_Aug_20_1417,X,
stim/posf.jpg,stim/negf.jpg,stim/2.jpg,stim/6.jpg,stim/latef.jpg,CD,1,2,,,,,,,,,,,,,0,49,49,21,,,,,,2,1,0.59982506297,,,,,,PLC_L_D2S1,P31,60.022683891,02,C,2015_Aug_20_1417,X,
stim/posf.jpg,stim/negf.jpg,stim/5.jpg,stim/4.jpg,stim/latef.jpg,AB,2,4,,,,,,,,,,,,,0,50,50,15,,,,,,4,1,0.766467076187,,,,,,PLC_L_D2S1,P31,60.022683891,02,C,2015_Aug_20_1417,X,
stim/negf.jpg,stim/posf.jpg,stim/5.jpg,stim/4.jpg,stim/latef.jpg,AB,2,4,,,,,,,,,,,,,0,51,51,18,,,,,,4,1,0.566487427914,,,,,,PLC_L_D2S1,P31,60.022683891,02,C,2015_Aug_20_1417,X,
stim/posf.jpg,stim/negf.jpg,stim/2.jpg,stim/6.jpg,stim/latef.jpg,CD,1,2,,,,,,,,,,,,,0,52,52,24,,,,,,2,1,0.683107215735,,,,,,PLC_L_D2S1,P31,60.022683891,02,C,2015_Aug_20_1417,X,
stim/negf.jpg,stim/posf.jpg,stim/1.jpg,stim/3.jpg,stim/latef.jpg,EF,2,4,,,,,,,,,,,,,0,53,53,59,,,,,,4,1,0.699764741619,,,,,,PLC_L_D2S1,P31,60.022683891,02,C,2015_Aug_20_1417,X,
stim/posf.jpg,stim/negf.jpg,stim/4.jpg,stim/5.jpg,stim/latef.jpg,AB,1,2,,,,,,,,,,,,,0,54,54,3,,,,,,2,1,0.733091886527,,,,,,PLC_L_D2S1,P31,60.022683891,02,C,2015_Aug_20_1417,X,
stim/posf.jpg,stim/negf.jpg,stim/5.jpg,stim/4.jpg,stim/latef.jpg,AB,2,4,,,,,,,,,,,,,0,55,55,14,,,,,,4,1,0.5164889467,,,,,,PLC_L_D2S1,P31,60.022683891,02,C,2015_Aug_20_1417,X,
stim/posf.jpg,stim/negf.jpg,stim/6.jpg,stim/2.jpg,stim/latef.jpg,CD,2,4,,,,,,,,,,,,,0,56,56,34,,,,,,4,1,1.09962221938,,,,,,PLC_L_D2S1,P31,60.022683891,02,C,2015_Aug_20_1417,X,
stim/posf.jpg,stim/negf.jpg,stim/6.jpg,stim/2.jpg,stim/latef.jpg,CD,2,4,,,,,,,,,,,,,0,57,57,35,,,,,,4,1,1.24959296847,,,,,,PLC_L_D2S1,P31,60.022683891,02,C,2015_Aug_20_1417,X,
stim/posf.jpg,stim/negf.jpg,stim/1.jpg,stim/3.jpg,stim/latef.jpg,EF,2,4,,,,,,,,,,,,,0,58,58,54,,,,,,4,1,0.916353651476,,,,,,PLC_L_D2S1,P31,60.022683891,02,C,2015_Aug_20_1417,X,
stim/posf.jpg,stim/negf.jpg,stim/6.jpg,stim/2.jpg,stim/latef.jpg,CD,2,4,,,,,,,,,,,,,0,59,59,36,,,,,,4,1,0.516477578364,,,,,,PLC_L_D2S1,P31,60.022683891,02,C,2015_Aug_20_1417,X,
