fb_corr,fb_incorr,symbol2,symbol1,fb_late,pair,position,correct,block_01.thisRepN,block_01.thisTrialN,block_01.thisN,block_01.thisIndex,block_02.thisRepN,block_02.thisTrialN,block_02.thisN,block_02.thisIndex,block_03.thisRepN,block_03.thisTrialN,block_03.thisN,block_03.thisIndex,block_04.thisRepN,block_04.thisTrialN,block_04.thisN,block_04.thisIndex,mouse.x,mouse.y,mouse.leftButton,mouse.midButton,mouse.rightButton,buttonBox_2.keys,buttonBox_2.corr,buttonBox_2.rt,mouse_2.x,mouse_2.y,mouse_2.leftButton,mouse_2.midButton,mouse_2.rightButton,expName,Participant,frameRate,SessionNumber,Version,date,Group,
,,,,,,,,,,,,,,,,,,,,,,,,-0.090625,-0.587890625,1,0,0,,,,,,,,,PLC_L_D2S1,P3,60.0146615167,02,A,2014_Dez_18_1357,X,
stim/posf.jpg,stim/negf.jpg,stim/3.jpg,stim/1.jpg,stim/latef.jpg,AB,1,2,0,0,0,4,,,,,,,,,,,,,,,,,,2,1,0.866428002797,,,,,,PLC_L_D2S1,P3,60.0146615167,02,A,2014_Dez_18_1357,X,
stim/posf.jpg,stim/negf.jpg,stim/4.jpg,stim/6.jpg,stim/latef.jpg,CD,2,4,0,1,1,30,,,,,,,,,,,,,,,,,,4,1,0.982984933948,,,,,,PLC_L_D2S1,P3,60.0146615167,02,A,2014_Dez_18_1357,X,
stim/posf.jpg,stim/negf.jpg,stim/3.jpg,stim/1.jpg,stim/latef.jpg,AB,1,2,0,2,2,5,,,,,,,,,,,,,,,,,,2,1,1.01631427132,,,,,,PLC_L_D2S1,P3,60.0146615167,02,A,2014_Dez_18_1357,X,
stim/negf.jpg,stim/posf.jpg,stim/2.jpg,stim/5.jpg,stim/latef.jpg,EF,2,4,0,3,3,59,,,,,,,,,,,,,,,,,,4,1,1.28291600514,,,,,,PLC_L_D2S1,P3,60.0146615167,02,A,2014_Dez_18_1357,X,
stim/posf.jpg,stim/negf.jpg,stim/5.jpg,stim/2.jpg,stim/latef.jpg,EF,1,2,0,4,4,45,,,,,,,,,,,,,,,,,,4,0,0.999671286682,,,,,,PLC_L_D2S1,P3,60.0146615167,02,A,2014_Dez_18_1357,X,
stim/posf.jpg,stim/negf.jpg,stim/5.jpg,stim/2.jpg,stim/latef.jpg,EF,1,2,0,5,5,42,,,,,,,,,,,,,,,,,,4,0,1.06628574823,,,,,,PLC_L_D2S1,P3,60.0146615167,02,A,2014_Dez_18_1357,X,
stim/posf.jpg,stim/negf.jpg,stim/1.jpg,stim/3.jpg,stim/latef.jpg,AB,2,4,0,6,6,10,,,,,,,,,,,,,,,,,,4,1,1.1329041917,,,,,,PLC_L_D2S1,P3,60.0146615167,02,A,2014_Dez_18_1357,X,
stim/posf.jpg,stim/negf.jpg,stim/6.jpg,stim/4.jpg,stim/latef.jpg,CD,1,2,0,7,7,22,,,,,,,,,,,,,,,,,,4,0,1.54947836482,,,,,,PLC_L_D2S1,P3,60.0146615167,02,A,2014_Dez_18_1357,X,
stim/posf.jpg,stim/negf.jpg,stim/4.jpg,stim/6.jpg,stim/latef.jpg,CD,2,4,0,8,8,32,,,,,,,,,,,,,,,,,,2,0,1.2663242141,,,,,,PLC_L_D2S1,P3,60.0146615167,02,A,2014_Dez_18_1357,X,
stim/posf.jpg,stim/negf.jpg,stim/6.jpg,stim/4.jpg,stim/latef.jpg,CD,1,2,0,9,9,20,,,,,,,,,,,,,,,,,,2,1,0.899691975248,,,,,,PLC_L_D2S1,P3,60.0146615167,02,A,2014_Dez_18_1357,X,
stim/posf.jpg,stim/negf.jpg,stim/2.jpg,stim/5.jpg,stim/latef.jpg,EF,2,4,0,10,10,55,,,,,,,,,,,,,,,,,,2,0,1.58285454997,,,,,,PLC_L_D2S1,P3,60.0146615167,02,A,2014_Dez_18_1357,X,
stim/posf.jpg,stim/negf.jpg,stim/4.jpg,stim/6.jpg,stim/latef.jpg,CD,2,4,0,11,11,31,,,,,,,,,,,,,,,,,,4,1,1.44955449358,,,,,,PLC_L_D2S1,P3,60.0146615167,02,A,2014_Dez_18_1357,X,
stim/posf.jpg,stim/negf.jpg,stim/1.jpg,stim/3.jpg,stim/latef.jpg,AB,2,4,0,12,12,13,,,,,,,,,,,,,,,,,,4,1,1.03297636559,,,,,,PLC_L_D2S1,P3,60.0146615167,02,A,2014_Dez_18_1357,X,
stim/posf.jpg,stim/negf.jpg,stim/2.jpg,stim/5.jpg,stim/latef.jpg,EF,2,4,0,13,13,52,,,,,,,,,,,,,,,,,,4,1,0.849724146435,,,,,,PLC_L_D2S1,P3,60.0146615167,02,A,2014_Dez_18_1357,X,
stim/posf.jpg,stim/negf.jpg,stim/4.jpg,stim/6.jpg,stim/latef.jpg,CD,2,4,0,14,14,35,,,,,,,,,,,,,,,,,,4,1,1.03298514748,,,,,,PLC_L_D2S1,P3,60.0146615167,02,A,2014_Dez_18_1357,X,
stim/posf.jpg,stim/negf.jpg,stim/5.jpg,stim/2.jpg,stim/latef.jpg,EF,1,2,0,15,15,44,,,,,,,,,,,,,,,,,,2,1,0.933029613311,,,,,,PLC_L_D2S1,P3,60.0146615167,02,A,2014_Dez_18_1357,X,
stim/negf.jpg,stim/posf.jpg,stim/5.jpg,stim/2.jpg,stim/latef.jpg,EF,1,2,0,16,16,48,,,,,,,,,,,,,,,,,,2,1,0.799717253254,,,,,,PLC_L_D2S1,P3,60.0146615167,02,A,2014_Dez_18_1357,X,
stim/negf.jpg,stim/posf.jpg,stim/6.jpg,stim/4.jpg,stim/latef.jpg,CD,1,2,0,17,17,29,,,,,,,,,,,,,,,,,,2,1,1.11635324246,,,,,,PLC_L_D2S1,P3,60.0146615167,02,A,2014_Dez_18_1357,X,
stim/posf.jpg,stim/negf.jpg,stim/4.jpg,stim/6.jpg,stim/latef.jpg,CD,2,4,0,18,18,36,,,,,,,,,,,,,,,,,,4,1,0.799703701476,,,,,,PLC_L_D2S1,P3,60.0146615167,02,A,2014_Dez_18_1357,X,
stim/negf.jpg,stim/posf.jpg,stim/6.jpg,stim/4.jpg,stim/latef.jpg,CD,1,2,0,19,19,27,,,,,,,,,,,,,,,,,,2,1,1.24957950993,,,,,,PLC_L_D2S1,P3,60.0146615167,02,A,2014_Dez_18_1357,X,
stim/posf.jpg,stim/negf.jpg,stim/1.jpg,stim/3.jpg,stim/latef.jpg,AB,2,4,0,20,20,12,,,,,,,,,,,,,,,,,,4,1,0.883055661236,,,,,,PLC_L_D2S1,P3,60.0146615167,02,A,2014_Dez_18_1357,X,
stim/posf.jpg,stim/negf.jpg,stim/2.jpg,stim/5.jpg,stim/latef.jpg,EF,2,4,0,21,21,51,,,,,,,,,,,,,,,,,,4,1,0.799726248675,,,,,,PLC_L_D2S1,P3,60.0146615167,02,A,2014_Dez_18_1357,X,
stim/posf.jpg,stim/negf.jpg,stim/1.jpg,stim/3.jpg,stim/latef.jpg,AB,2,4,0,22,22,11,,,,,,,,,,,,,,,,,,4,1,0.816404911241,,,,,,PLC_L_D2S1,P3,60.0146615167,02,A,2014_Dez_18_1357,X,
stim/posf.jpg,stim/negf.jpg,stim/2.jpg,stim/5.jpg,stim/latef.jpg,EF,2,4,0,23,23,50,,,,,,,,,,,,,,,,,,4,1,0.766415356276,,,,,,PLC_L_D2S1,P3,60.0146615167,02,A,2014_Dez_18_1357,X,
stim/negf.jpg,stim/posf.jpg,stim/3.jpg,stim/1.jpg,stim/latef.jpg,AB,1,2,0,24,24,8,,,,,,,,,,,,,,,,,,2,1,0.9496865798,,,,,,PLC_L_D2S1,P3,60.0146615167,02,A,2014_Dez_18_1357,X,
stim/posf.jpg,stim/negf.jpg,stim/3.jpg,stim/1.jpg,stim/latef.jpg,AB,1,2,0,25,25,3,,,,,,,,,,,,,,,,,,2,1,0.699757983775,,,,,,PLC_L_D2S1,P3,60.0146615167,02,A,2014_Dez_18_1357,X,
stim/negf.jpg,stim/posf.jpg,stim/4.jpg,stim/6.jpg,stim/latef.jpg,CD,2,4,0,26,26,38,,,,,,,,,,,,,,,,,,4,1,0.766351976301,,,,,,PLC_L_D2S1,P3,60.0146615167,02,A,2014_Dez_18_1357,X,
stim/posf.jpg,stim/negf.jpg,stim/6.jpg,stim/4.jpg,stim/latef.jpg,CD,1,2,0,27,27,21,,,,,,,,,,,,,,,,,,2,1,0.999650661273,,,,,,PLC_L_D2S1,P3,60.0146615167,02,A,2014_Dez_18_1357,X,
stim/posf.jpg,stim/negf.jpg,stim/1.jpg,stim/3.jpg,stim/latef.jpg,AB,2,4,0,28,28,14,,,,,,,,,,,,,,,,,,4,1,0.816387696333,,,,,,PLC_L_D2S1,P3,60.0146615167,02,A,2014_Dez_18_1357,X,
stim/posf.jpg,stim/negf.jpg,stim/3.jpg,stim/1.jpg,stim/latef.jpg,AB,1,2,0,29,29,7,,,,,,,,,,,,,,,,,,2,1,0.966377702423,,,,,,PLC_L_D2S1,P3,60.0146615167,02,A,2014_Dez_18_1357,X,
stim/negf.jpg,stim/posf.jpg,stim/5.jpg,stim/2.jpg,stim/latef.jpg,EF,1,2,0,30,30,46,,,,,,,,,,,,,,,,,,2,1,1.01632021413,,,,,,PLC_L_D2S1,P3,60.0146615167,02,A,2014_Dez_18_1357,X,
stim/posf.jpg,stim/negf.jpg,stim/6.jpg,stim/4.jpg,stim/latef.jpg,CD,1,2,0,31,31,24,,,,,,,,,,,,,,,,,,2,1,0.833065372441,,,,,,PLC_L_D2S1,P3,60.0146615167,02,A,2014_Dez_18_1357,X,
stim/negf.jpg,stim/posf.jpg,stim/1.jpg,stim/3.jpg,stim/latef.jpg,AB,2,4,0,32,32,18,,,,,,,,,,,,,,,,,,4,1,0.766394261697,,,,,,PLC_L_D2S1,P3,60.0146615167,02,A,2014_Dez_18_1357,X,
stim/posf.jpg,stim/negf.jpg,stim/3.jpg,stim/1.jpg,stim/latef.jpg,AB,1,2,0,33,33,0,,,,,,,,,,,,,,,,,,2,1,0.616400042105,,,,,,PLC_L_D2S1,P3,60.0146615167,02,A,2014_Dez_18_1357,X,
stim/posf.jpg,stim/negf.jpg,stim/5.jpg,stim/2.jpg,stim/latef.jpg,EF,1,2,0,34,34,40,,,,,,,,,,,,,,,,,,2,1,0.933021977278,,,,,,PLC_L_D2S1,P3,60.0146615167,02,A,2014_Dez_18_1357,X,
stim/negf.jpg,stim/posf.jpg,stim/2.jpg,stim/5.jpg,stim/latef.jpg,EF,2,4,0,35,35,57,,,,,,,,,,,,,,,,,,4,1,0.833045026729,,,,,,PLC_L_D2S1,P3,60.0146615167,02,A,2014_Dez_18_1357,X,
stim/negf.jpg,stim/posf.jpg,stim/1.jpg,stim/3.jpg,stim/latef.jpg,AB,2,4,0,36,36,19,,,,,,,,,,,,,,,,,,4,1,0.616421975775,,,,,,PLC_L_D2S1,P3,60.0146615167,02,A,2014_Dez_18_1357,X,
stim/posf.jpg,stim/negf.jpg,stim/3.jpg,stim/1.jpg,stim/latef.jpg,AB,1,2,0,37,37,2,,,,,,,,,,,,,,,,,,2,1,0.516503304486,,,,,,PLC_L_D2S1,P3,60.0146615167,02,A,2014_Dez_18_1357,X,
stim/posf.jpg,stim/negf.jpg,stim/2.jpg,stim/5.jpg,stim/latef.jpg,EF,2,4,0,38,38,54,,,,,,,,,,,,,,,,,,4,1,0.71642968098,,,,,,PLC_L_D2S1,P3,60.0146615167,02,A,2014_Dez_18_1357,X,
stim/negf.jpg,stim/posf.jpg,stim/2.jpg,stim/5.jpg,stim/latef.jpg,EF,2,4,0,39,39,58,,,,,,,,,,,,,,,,,,4,1,0.833041372621,,,,,,PLC_L_D2S1,P3,60.0146615167,02,A,2014_Dez_18_1357,X,
stim/posf.jpg,stim/negf.jpg,stim/4.jpg,stim/6.jpg,stim/latef.jpg,CD,2,4,0,40,40,33,,,,,,,,,,,,,,,,,,4,1,0.716390745934,,,,,,PLC_L_D2S1,P3,60.0146615167,02,A,2014_Dez_18_1357,X,
stim/negf.jpg,stim/posf.jpg,stim/4.jpg,stim/6.jpg,stim/latef.jpg,CD,2,4,0,41,41,39,,,,,,,,,,,,,,,,,,4,1,0.633090851949,,,,,,PLC_L_D2S1,P3,60.0146615167,02,A,2014_Dez_18_1357,X,
stim/negf.jpg,stim/posf.jpg,stim/6.jpg,stim/4.jpg,stim/latef.jpg,CD,1,2,0,42,42,28,,,,,,,,,,,,,,,,,,2,1,0.883012903662,,,,,,PLC_L_D2S1,P3,60.0146615167,02,A,2014_Dez_18_1357,X,
stim/posf.jpg,stim/negf.jpg,stim/5.jpg,stim/2.jpg,stim/latef.jpg,EF,1,2,0,43,43,41,,,,,,,,,,,,,,,,,,2,1,1.03299726468,,,,,,PLC_L_D2S1,P3,60.0146615167,02,A,2014_Dez_18_1357,X,
stim/posf.jpg,stim/negf.jpg,stim/1.jpg,stim/3.jpg,stim/latef.jpg,AB,2,4,0,44,44,15,,,,,,,,,,,,,,,,,,4,1,0.833047002654,,,,,,PLC_L_D2S1,P3,60.0146615167,02,A,2014_Dez_18_1357,X,
stim/posf.jpg,stim/negf.jpg,stim/6.jpg,stim/4.jpg,stim/latef.jpg,CD,1,2,0,45,45,25,,,,,,,,,,,,,,,,,,4,0,0.633093871475,,,,,,PLC_L_D2S1,P3,60.0146615167,02,A,2014_Dez_18_1357,X,
stim/negf.jpg,stim/posf.jpg,stim/2.jpg,stim/5.jpg,stim/latef.jpg,EF,2,4,0,46,46,56,,,,,,,,,,,,,,,,,,4,1,0.8997752859,,,,,,PLC_L_D2S1,P3,60.0146615167,02,A,2014_Dez_18_1357,X,
stim/posf.jpg,stim/negf.jpg,stim/6.jpg,stim/4.jpg,stim/latef.jpg,CD,1,2,0,47,47,26,,,,,,,,,,,,,,,,,,4,0,0.982990762475,,,,,,PLC_L_D2S1,P3,60.0146615167,02,A,2014_Dez_18_1357,X,
stim/posf.jpg,stim/negf.jpg,stim/3.jpg,stim/1.jpg,stim/latef.jpg,AB,1,2,0,48,48,6,,,,,,,,,,,,,,,,,,2,1,1.14958083623,,,,,,PLC_L_D2S1,P3,60.0146615167,02,A,2014_Dez_18_1357,X,
stim/negf.jpg,stim/posf.jpg,stim/4.jpg,stim/6.jpg,stim/latef.jpg,CD,2,4,0,49,49,37,,,,,,,,,,,,,,,,,,2,0,1.18192895091,,,,,,PLC_L_D2S1,P3,60.0146615167,02,A,2014_Dez_18_1357,X,
stim/posf.jpg,stim/negf.jpg,stim/4.jpg,stim/6.jpg,stim/latef.jpg,CD,2,4,0,50,50,34,,,,,,,,,,,,,,,,,,2,0,0.633128839633,,,,,,PLC_L_D2S1,P3,60.0146615167,02,A,2014_Dez_18_1357,X,
stim/posf.jpg,stim/negf.jpg,stim/5.jpg,stim/2.jpg,stim/latef.jpg,EF,1,2,0,51,51,43,,,,,,,,,,,,,,,,,,4,0,0.999661349915,,,,,,PLC_L_D2S1,P3,60.0146615167,02,A,2014_Dez_18_1357,X,
stim/posf.jpg,stim/negf.jpg,stim/2.jpg,stim/5.jpg,stim/latef.jpg,EF,2,4,0,52,52,53,,,,,,,,,,,,,,,,,,4,1,0.916415142743,,,,,,PLC_L_D2S1,P3,60.0146615167,02,A,2014_Dez_18_1357,X,
stim/posf.jpg,stim/negf.jpg,stim/3.jpg,stim/1.jpg,stim/latef.jpg,AB,1,2,0,53,53,1,,,,,,,,,,,,,,,,,,2,1,0.883037646333,,,,,,PLC_L_D2S1,P3,60.0146615167,02,A,2014_Dez_18_1357,X,
stim/negf.jpg,stim/posf.jpg,stim/3.jpg,stim/1.jpg,stim/latef.jpg,AB,1,2,0,54,54,9,,,,,,,,,,,,,,,,,,2,1,0.599862888249,,,,,,PLC_L_D2S1,P3,60.0146615167,02,A,2014_Dez_18_1357,X,
stim/posf.jpg,stim/negf.jpg,stim/1.jpg,stim/3.jpg,stim/latef.jpg,AB,2,4,0,55,55,17,,,,,,,,,,,,,,,,,,4,1,0.933023333659,,,,,,PLC_L_D2S1,P3,60.0146615167,02,A,2014_Dez_18_1357,X,
stim/negf.jpg,stim/posf.jpg,stim/5.jpg,stim/2.jpg,stim/latef.jpg,EF,1,2,0,56,56,49,,,,,,,,,,,,,,,,,,2,1,0.849767457387,,,,,,PLC_L_D2S1,P3,60.0146615167,02,A,2014_Dez_18_1357,X,
stim/posf.jpg,stim/negf.jpg,stim/1.jpg,stim/3.jpg,stim/latef.jpg,AB,2,4,0,57,57,16,,,,,,,,,,,,,,,,,,4,1,0.883060361952,,,,,,PLC_L_D2S1,P3,60.0146615167,02,A,2014_Dez_18_1357,X,
stim/posf.jpg,stim/negf.jpg,stim/6.jpg,stim/4.jpg,stim/latef.jpg,CD,1,2,0,58,58,23,,,,,,,,,,,,,,,,,,None,0,,,,,,,PLC_L_D2S1,P3,60.0146615167,02,A,2014_Dez_18_1357,X,
stim/negf.jpg,stim/posf.jpg,stim/5.jpg,stim/2.jpg,stim/latef.jpg,EF,1,2,0,59,59,47,,,,,,,,,,,,,,,,,,2,1,0.916386673784,,,,,,PLC_L_D2S1,P3,60.0146615167,02,A,2014_Dez_18_1357,X,
,,,,,,,,,,,,,,,,,,,,,,,,,,,,,,,,0.3125,-0.998046875,1,0,0,PLC_L_D2S1,P3,60.0146615167,02,A,2014_Dez_18_1357,X,
stim/posf.jpg,stim/negf.jpg,stim/1.jpg,stim/3.jpg,stim/latef.jpg,AB,2,4,,,,,0,0,0,13,,,,,,,,,,,,,,4,1,0.683106346569,,,,,,PLC_L_D2S1,P3,60.0146615167,02,A,2014_Dez_18_1357,X,
stim/posf.jpg,stim/negf.jpg,stim/4.jpg,stim/6.jpg,stim/latef.jpg,CD,2,4,,,,,0,1,1,33,,,,,,,,,,,,,,4,1,1.04963970196,,,,,,PLC_L_D2S1,P3,60.0146615167,02,A,2014_Dez_18_1357,X,
stim/negf.jpg,stim/posf.jpg,stim/4.jpg,stim/6.jpg,stim/latef.jpg,CD,2,4,,,,,0,2,2,38,,,,,,,,,,,,,,4,1,0.649800410523,,,,,,PLC_L_D2S1,P3,60.0146615167,02,A,2014_Dez_18_1357,X,
stim/negf.jpg,stim/posf.jpg,stim/4.jpg,stim/6.jpg,stim/latef.jpg,CD,2,4,,,,,0,3,3,39,,,,,,,,,,,,,,4,1,0.583143095165,,,,,,PLC_L_D2S1,P3,60.0146615167,02,A,2014_Dez_18_1357,X,
stim/posf.jpg,stim/negf.jpg,stim/3.jpg,stim/1.jpg,stim/latef.jpg,AB,1,2,,,,,0,4,4,7,,,,,,,,,,,,,,2,1,0.766414845001,,,,,,PLC_L_D2S1,P3,60.0146615167,02,A,2014_Dez_18_1357,X,
stim/negf.jpg,stim/posf.jpg,stim/5.jpg,stim/2.jpg,stim/latef.jpg,EF,1,2,,,,,0,5,5,49,,,,,,,,,,,,,,4,0,0.799744985376,,,,,,PLC_L_D2S1,P3,60.0146615167,02,A,2014_Dez_18_1357,X,
stim/posf.jpg,stim/negf.jpg,stim/3.jpg,stim/1.jpg,stim/latef.jpg,AB,1,2,,,,,0,6,6,0,,,,,,,,,,,,,,2,1,0.683082436974,,,,,,PLC_L_D2S1,P3,60.0146615167,02,A,2014_Dez_18_1357,X,
stim/posf.jpg,stim/negf.jpg,stim/3.jpg,stim/1.jpg,stim/latef.jpg,AB,1,2,,,,,0,7,7,3,,,,,,,,,,,,,,2,1,0.666431491492,,,,,,PLC_L_D2S1,P3,60.0146615167,02,A,2014_Dez_18_1357,X,
stim/negf.jpg,stim/posf.jpg,stim/6.jpg,stim/4.jpg,stim/latef.jpg,CD,1,2,,,,,0,8,8,27,,,,,,,,,,,,,,2,1,0.949730032105,,,,,,PLC_L_D2S1,P3,60.0146615167,02,A,2014_Dez_18_1357,X,
stim/negf.jpg,stim/posf.jpg,stim/4.jpg,stim/6.jpg,stim/latef.jpg,CD,2,4,,,,,0,9,9,37,,,,,,,,,,,,,,4,1,0.899695554169,,,,,,PLC_L_D2S1,P3,60.0146615167,02,A,2014_Dez_18_1357,X,
stim/posf.jpg,stim/negf.jpg,stim/5.jpg,stim/2.jpg,stim/latef.jpg,EF,1,2,,,,,0,10,10,45,,,,,,,,,,,,,,2,1,0.899711854798,,,,,,PLC_L_D2S1,P3,60.0146615167,02,A,2014_Dez_18_1357,X,
stim/posf.jpg,stim/negf.jpg,stim/1.jpg,stim/3.jpg,stim/latef.jpg,AB,2,4,,,,,0,11,11,14,,,,,,,,,,,,,,4,1,0.883047101902,,,,,,PLC_L_D2S1,P3,60.0146615167,02,A,2014_Dez_18_1357,X,
stim/posf.jpg,stim/negf.jpg,stim/4.jpg,stim/6.jpg,stim/latef.jpg,CD,2,4,,,,,0,12,12,31,,,,,,,,,,,,,,2,0,0.683092003819,,,,,,PLC_L_D2S1,P3,60.0146615167,02,A,2014_Dez_18_1357,X,
stim/posf.jpg,stim/negf.jpg,stim/6.jpg,stim/4.jpg,stim/latef.jpg,CD,1,2,,,,,0,13,13,24,,,,,,,,,,,,,,4,0,0.749634655378,,,,,,PLC_L_D2S1,P3,60.0146615167,02,A,2014_Dez_18_1357,X,
stim/posf.jpg,stim/negf.jpg,stim/3.jpg,stim/1.jpg,stim/latef.jpg,AB,1,2,,,,,0,14,14,4,,,,,,,,,,,,,,2,1,0.716419383313,,,,,,PLC_L_D2S1,P3,60.0146615167,02,A,2014_Dez_18_1357,X,
stim/posf.jpg,stim/negf.jpg,stim/5.jpg,stim/2.jpg,stim/latef.jpg,EF,1,2,,,,,0,15,15,41,,,,,,,,,,,,,,2,1,0.999625807325,,,,,,PLC_L_D2S1,P3,60.0146615167,02,A,2014_Dez_18_1357,X,
stim/posf.jpg,stim/negf.jpg,stim/1.jpg,stim/3.jpg,stim/latef.jpg,AB,2,4,,,,,0,16,16,15,,,,,,,,,,,,,,4,1,0.849723764483,,,,,,PLC_L_D2S1,P3,60.0146615167,02,A,2014_Dez_18_1357,X,
stim/posf.jpg,stim/negf.jpg,stim/3.jpg,stim/1.jpg,stim/latef.jpg,AB,1,2,,,,,0,17,17,2,,,,,,,,,,,,,,2,1,0.61646541605,,,,,,PLC_L_D2S1,P3,60.0146615167,02,A,2014_Dez_18_1357,X,
stim/posf.jpg,stim/negf.jpg,stim/1.jpg,stim/3.jpg,stim/latef.jpg,AB,2,4,,,,,0,18,18,10,,,,,,,,,,,,,,4,1,0.666444589138,,,,,,PLC_L_D2S1,P3,60.0146615167,02,A,2014_Dez_18_1357,X,
stim/negf.jpg,stim/posf.jpg,stim/5.jpg,stim/2.jpg,stim/latef.jpg,EF,1,2,,,,,0,19,19,46,,,,,,,,,,,,,,4,0,0.833064379967,,,,,,PLC_L_D2S1,P3,60.0146615167,02,A,2014_Dez_18_1357,X,
stim/negf.jpg,stim/posf.jpg,stim/2.jpg,stim/5.jpg,stim/latef.jpg,EF,2,4,,,,,0,20,20,56,,,,,,,,,,,,,,4,1,0.916399070683,,,,,,PLC_L_D2S1,P3,60.0146615167,02,A,2014_Dez_18_1357,X,
stim/posf.jpg,stim/negf.jpg,stim/2.jpg,stim/5.jpg,stim/latef.jpg,EF,2,4,,,,,0,21,21,54,,,,,,,,,,,,,,4,1,0.999661752919,,,,,,PLC_L_D2S1,P3,60.0146615167,02,A,2014_Dez_18_1357,X,
stim/posf.jpg,stim/negf.jpg,stim/3.jpg,stim/1.jpg,stim/latef.jpg,AB,1,2,,,,,0,22,22,1,,,,,,,,,,,,,,2,1,0.683102767648,,,,,,PLC_L_D2S1,P3,60.0146615167,02,A,2014_Dez_18_1357,X,
stim/posf.jpg,stim/negf.jpg,stim/1.jpg,stim/3.jpg,stim/latef.jpg,AB,2,4,,,,,0,23,23,16,,,,,,,,,,,,,,4,1,0.716469677671,,,,,,PLC_L_D2S1,P3,60.0146615167,02,A,2014_Dez_18_1357,X,
stim/posf.jpg,stim/negf.jpg,stim/2.jpg,stim/5.jpg,stim/latef.jpg,EF,2,4,,,,,0,24,24,51,,,,,,,,,,,,,,4,1,1.04965264021,,,,,,PLC_L_D2S1,P3,60.0146615167,02,A,2014_Dez_18_1357,X,
stim/posf.jpg,stim/negf.jpg,stim/3.jpg,stim/1.jpg,stim/latef.jpg,AB,1,2,,,,,0,25,25,5,,,,,,,,,,,,,,2,1,0.699781336983,,,,,,PLC_L_D2S1,P3,60.0146615167,02,A,2014_Dez_18_1357,X,
stim/posf.jpg,stim/negf.jpg,stim/6.jpg,stim/4.jpg,stim/latef.jpg,CD,1,2,,,,,0,26,26,25,,,,,,,,,,,,,,2,1,0.716421942692,,,,,,PLC_L_D2S1,P3,60.0146615167,02,A,2014_Dez_18_1357,X,
stim/negf.jpg,stim/posf.jpg,stim/5.jpg,stim/2.jpg,stim/latef.jpg,EF,1,2,,,,,0,27,27,47,,,,,,,,,,,,,,2,1,1.04958786175,,,,,,PLC_L_D2S1,P3,60.0146615167,02,A,2014_Dez_18_1357,X,
stim/posf.jpg,stim/negf.jpg,stim/6.jpg,stim/4.jpg,stim/latef.jpg,CD,1,2,,,,,0,28,28,22,,,,,,,,,,,,,,2,1,0.966389257223,,,,,,PLC_L_D2S1,P3,60.0146615167,02,A,2014_Dez_18_1357,X,
stim/posf.jpg,stim/negf.jpg,stim/2.jpg,stim/5.jpg,stim/latef.jpg,EF,2,4,,,,,0,29,29,52,,,,,,,,,,,,,,4,1,0.816393200051,,,,,,PLC_L_D2S1,P3,60.0146615167,02,A,2014_Dez_18_1357,X,
stim/negf.jpg,stim/posf.jpg,stim/1.jpg,stim/3.jpg,stim/latef.jpg,AB,2,4,,,,,0,30,30,18,,,,,,,,,,,,,,4,1,0.883052524418,,,,,,PLC_L_D2S1,P3,60.0146615167,02,A,2014_Dez_18_1357,X,
stim/negf.jpg,stim/posf.jpg,stim/6.jpg,stim/4.jpg,stim/latef.jpg,CD,1,2,,,,,0,31,31,28,,,,,,,,,,,,,,2,1,0.666445277855,,,,,,PLC_L_D2S1,P3,60.0146615167,02,A,2014_Dez_18_1357,X,
stim/posf.jpg,stim/negf.jpg,stim/1.jpg,stim/3.jpg,stim/latef.jpg,AB,2,4,,,,,0,32,32,12,,,,,,,,,,,,,,4,1,0.716425449432,,,,,,PLC_L_D2S1,P3,60.0146615167,02,A,2014_Dez_18_1357,X,
stim/posf.jpg,stim/negf.jpg,stim/4.jpg,stim/6.jpg,stim/latef.jpg,CD,2,4,,,,,0,33,33,35,,,,,,,,,,,,,,4,1,0.583153113135,,,,,,PLC_L_D2S1,P3,60.0146615167,02,A,2014_Dez_18_1357,X,
stim/posf.jpg,stim/negf.jpg,stim/4.jpg,stim/6.jpg,stim/latef.jpg,CD,2,4,,,,,0,34,34,30,,,,,,,,,,,,,,4,1,0.583059020609,,,,,,PLC_L_D2S1,P3,60.0146615167,02,A,2014_Dez_18_1357,X,
stim/negf.jpg,stim/posf.jpg,stim/3.jpg,stim/1.jpg,stim/latef.jpg,AB,1,2,,,,,0,35,35,8,,,,,,,,,,,,,,2,1,0.616441205705,,,,,,PLC_L_D2S1,P3,60.0146615167,02,A,2014_Dez_18_1357,X,
stim/negf.jpg,stim/posf.jpg,stim/2.jpg,stim/5.jpg,stim/latef.jpg,EF,2,4,,,,,0,36,36,58,,,,,,,,,,,,,,4,1,0.783116277321,,,,,,PLC_L_D2S1,P3,60.0146615167,02,A,2014_Dez_18_1357,X,
stim/posf.jpg,stim/negf.jpg,stim/3.jpg,stim/1.jpg,stim/latef.jpg,AB,1,2,,,,,0,37,37,6,,,,,,,,,,,,,,2,1,0.683096578221,,,,,,PLC_L_D2S1,P3,60.0146615167,02,A,2014_Dez_18_1357,X,
stim/posf.jpg,stim/negf.jpg,stim/5.jpg,stim/2.jpg,stim/latef.jpg,EF,1,2,,,,,0,38,38,40,,,,,,,,,,,,,,4,0,0.799754618386,,,,,,PLC_L_D2S1,P3,60.0146615167,02,A,2014_Dez_18_1357,X,
stim/posf.jpg,stim/negf.jpg,stim/4.jpg,stim/6.jpg,stim/latef.jpg,CD,2,4,,,,,0,39,39,36,,,,,,,,,,,,,,4,1,0.73306408824,,,,,,PLC_L_D2S1,P3,60.0146615167,02,A,2014_Dez_18_1357,X,
stim/posf.jpg,stim/negf.jpg,stim/1.jpg,stim/3.jpg,stim/latef.jpg,AB,2,4,,,,,0,40,40,11,,,,,,,,,,,,,,4,1,0.566492366223,,,,,,PLC_L_D2S1,P3,60.0146615167,02,A,2014_Dez_18_1357,X,
stim/posf.jpg,stim/negf.jpg,stim/4.jpg,stim/6.jpg,stim/latef.jpg,CD,2,4,,,,,0,41,41,32,,,,,,,,,,,,,,4,1,0.749738612492,,,,,,PLC_L_D2S1,P3,60.0146615167,02,A,2014_Dez_18_1357,X,
stim/negf.jpg,stim/posf.jpg,stim/6.jpg,stim/4.jpg,stim/latef.jpg,CD,1,2,,,,,0,42,42,29,,,,,,,,,,,,,,2,1,0.783059757445,,,,,,PLC_L_D2S1,P3,60.0146615167,02,A,2014_Dez_18_1357,X,
stim/posf.jpg,stim/negf.jpg,stim/5.jpg,stim/2.jpg,stim/latef.jpg,EF,1,2,,,,,0,43,43,43,,,,,,,,,,,,,,2,1,0.8164138014,,,,,,PLC_L_D2S1,P3,60.0146615167,02,A,2014_Dez_18_1357,X,
stim/negf.jpg,stim/posf.jpg,stim/2.jpg,stim/5.jpg,stim/latef.jpg,EF,2,4,,,,,0,44,44,59,,,,,,,,,,,,,,4,1,0.599798954896,,,,,,PLC_L_D2S1,P3,60.0146615167,02,A,2014_Dez_18_1357,X,
stim/negf.jpg,stim/posf.jpg,stim/5.jpg,stim/2.jpg,stim/latef.jpg,EF,1,2,,,,,0,45,45,48,,,,,,,,,,,,,,4,0,0.749756122134,,,,,,PLC_L_D2S1,P3,60.0146615167,02,A,2014_Dez_18_1357,X,
stim/negf.jpg,stim/posf.jpg,stim/2.jpg,stim/5.jpg,stim/latef.jpg,EF,2,4,,,,,0,46,46,57,,,,,,,,,,,,,,4,1,0.733061252171,,,,,,PLC_L_D2S1,P3,60.0146615167,02,A,2014_Dez_18_1357,X,
stim/posf.jpg,stim/negf.jpg,stim/1.jpg,stim/3.jpg,stim/latef.jpg,AB,2,4,,,,,0,47,47,17,,,,,,,,,,,,,,4,1,0.749746768821,,,,,,PLC_L_D2S1,P3,60.0146615167,02,A,2014_Dez_18_1357,X,
stim/posf.jpg,stim/negf.jpg,stim/5.jpg,stim/2.jpg,stim/latef.jpg,EF,1,2,,,,,0,48,48,42,,,,,,,,,,,,,,2,1,0.716385437703,,,,,,PLC_L_D2S1,P3,60.0146615167,02,A,2014_Dez_18_1357,X,
stim/posf.jpg,stim/negf.jpg,stim/5.jpg,stim/2.jpg,stim/latef.jpg,EF,1,2,,,,,0,49,49,44,,,,,,,,,,,,,,2,1,0.516471352847,,,,,,PLC_L_D2S1,P3,60.0146615167,02,A,2014_Dez_18_1357,X,
stim/posf.jpg,stim/negf.jpg,stim/6.jpg,stim/4.jpg,stim/latef.jpg,CD,1,2,,,,,0,50,50,23,,,,,,,,,,,,,,2,1,0.849739448576,,,,,,PLC_L_D2S1,P3,60.0146615167,02,A,2014_Dez_18_1357,X,
stim/posf.jpg,stim/negf.jpg,stim/6.jpg,stim/4.jpg,stim/latef.jpg,CD,1,2,,,,,0,51,51,20,,,,,,,,,,,,,,2,1,0.499865991985,,,,,,PLC_L_D2S1,P3,60.0146615167,02,A,2014_Dez_18_1357,X,
stim/posf.jpg,stim/negf.jpg,stim/6.jpg,stim/4.jpg,stim/latef.jpg,CD,1,2,,,,,0,52,52,26,,,,,,,,,,,,,,2,1,0.449840259848,,,,,,PLC_L_D2S1,P3,60.0146615167,02,A,2014_Dez_18_1357,X,
stim/negf.jpg,stim/posf.jpg,stim/1.jpg,stim/3.jpg,stim/latef.jpg,AB,2,4,,,,,0,53,53,19,,,,,,,,,,,,,,4,1,0.600802147352,,,,,,PLC_L_D2S1,P3,60.0146615167,02,A,2014_Dez_18_1357,X,
stim/posf.jpg,stim/negf.jpg,stim/2.jpg,stim/5.jpg,stim/latef.jpg,EF,2,4,,,,,0,54,54,55,,,,,,,,,,,,,,4,1,0.666459358952,,,,,,PLC_L_D2S1,P3,60.0146615167,02,A,2014_Dez_18_1357,X,
stim/posf.jpg,stim/negf.jpg,stim/6.jpg,stim/4.jpg,stim/latef.jpg,CD,1,2,,,,,0,55,55,21,,,,,,,,,,,,,,2,1,0.666461590514,,,,,,PLC_L_D2S1,P3,60.0146615167,02,A,2014_Dez_18_1357,X,
stim/posf.jpg,stim/negf.jpg,stim/4.jpg,stim/6.jpg,stim/latef.jpg,CD,2,4,,,,,0,56,56,34,,,,,,,,,,,,,,4,1,0.616450101879,,,,,,PLC_L_D2S1,P3,60.0146615167,02,A,2014_Dez_18_1357,X,
stim/posf.jpg,stim/negf.jpg,stim/2.jpg,stim/5.jpg,stim/latef.jpg,EF,2,4,,,,,0,57,57,53,,,,,,,,,,,,,,4,1,0.716407341298,,,,,,PLC_L_D2S1,P3,60.0146615167,02,A,2014_Dez_18_1357,X,
stim/negf.jpg,stim/posf.jpg,stim/3.jpg,stim/1.jpg,stim/latef.jpg,AB,1,2,,,,,0,58,58,9,,,,,,,,,,,,,,2,1,0.549816305141,,,,,,PLC_L_D2S1,P3,60.0146615167,02,A,2014_Dez_18_1357,X,
stim/posf.jpg,stim/negf.jpg,stim/2.jpg,stim/5.jpg,stim/latef.jpg,EF,2,4,,,,,0,59,59,50,,,,,,,,,,,,,,4,1,0.783077017466,,,,,,PLC_L_D2S1,P3,60.0146615167,02,A,2014_Dez_18_1357,X,
,,,,,,,,,,,,,,,,,,,,,,,,,,,,,,,,0.3125,-0.998046875,1,0,0,PLC_L_D2S1,P3,60.0146615167,02,A,2014_Dez_18_1357,X,
stim/posf.jpg,stim/negf.jpg,stim/1.jpg,stim/3.jpg,stim/latef.jpg,AB,2,4,,,,,,,,,0,0,0,10,,,,,,,,,,4,1,0.783101669912,,,,,,PLC_L_D2S1,P3,60.0146615167,02,A,2014_Dez_18_1357,X,
stim/posf.jpg,stim/negf.jpg,stim/3.jpg,stim/1.jpg,stim/latef.jpg,AB,1,2,,,,,,,,,0,1,1,7,,,,,,,,,,2,1,0.733091116608,,,,,,PLC_L_D2S1,P3,60.0146615167,02,A,2014_Dez_18_1357,X,
stim/negf.jpg,stim/posf.jpg,stim/2.jpg,stim/5.jpg,stim/latef.jpg,EF,2,4,,,,,,,,,0,2,2,59,,,,,,,,,,4,1,0.64978518357,,,,,,PLC_L_D2S1,P3,60.0146615167,02,A,2014_Dez_18_1357,X,
stim/posf.jpg,stim/negf.jpg,stim/4.jpg,stim/6.jpg,stim/latef.jpg,CD,2,4,,,,,,,,,0,3,3,32,,,,,,,,,,4,1,0.866405654093,,,,,,PLC_L_D2S1,P3,60.0146615167,02,A,2014_Dez_18_1357,X,
stim/posf.jpg,stim/negf.jpg,stim/1.jpg,stim/3.jpg,stim/latef.jpg,AB,2,4,,,,,,,,,0,4,4,17,,,,,,,,,,4,1,0.58313460801,,,,,,PLC_L_D2S1,P3,60.0146615167,02,A,2014_Dez_18_1357,X,
stim/posf.jpg,stim/negf.jpg,stim/4.jpg,stim/6.jpg,stim/latef.jpg,CD,2,4,,,,,,,,,0,5,5,30,,,,,,,,,,4,1,0.666445025225,,,,,,PLC_L_D2S1,P3,60.0146615167,02,A,2014_Dez_18_1357,X,
stim/negf.jpg,stim/posf.jpg,stim/1.jpg,stim/3.jpg,stim/latef.jpg,AB,2,4,,,,,,,,,0,6,6,18,,,,,,,,,,4,1,0.516493743656,,,,,,PLC_L_D2S1,P3,60.0146615167,02,A,2014_Dez_18_1357,X,
stim/posf.jpg,stim/negf.jpg,stim/6.jpg,stim/4.jpg,stim/latef.jpg,CD,1,2,,,,,,,,,0,7,7,25,,,,,,,,,,2,1,0.666442652311,,,,,,PLC_L_D2S1,P3,60.0146615167,02,A,2014_Dez_18_1357,X,
stim/posf.jpg,stim/negf.jpg,stim/6.jpg,stim/4.jpg,stim/latef.jpg,CD,1,2,,,,,,,,,0,8,8,23,,,,,,,,,,2,1,0.833044662822,,,,,,PLC_L_D2S1,P3,60.0146615167,02,A,2014_Dez_18_1357,X,
stim/posf.jpg,stim/negf.jpg,stim/3.jpg,stim/1.jpg,stim/latef.jpg,AB,1,2,,,,,,,,,0,9,9,2,,,,,,,,,,4,0,0.883025186277,,,,,,PLC_L_D2S1,P3,60.0146615167,02,A,2014_Dez_18_1357,X,
stim/negf.jpg,stim/posf.jpg,stim/3.jpg,stim/1.jpg,stim/latef.jpg,AB,1,2,,,,,,,,,0,10,10,9,,,,,,,,,,2,1,0.533163645386,,,,,,PLC_L_D2S1,P3,60.0146615167,02,A,2014_Dez_18_1357,X,
stim/posf.jpg,stim/negf.jpg,stim/1.jpg,stim/3.jpg,stim/latef.jpg,AB,2,4,,,,,,,,,0,11,11,13,,,,,,,,,,4,1,0.666434947106,,,,,,PLC_L_D2S1,P3,60.0146615167,02,A,2014_Dez_18_1357,X,
stim/posf.jpg,stim/negf.jpg,stim/2.jpg,stim/5.jpg,stim/latef.jpg,EF,2,4,,,,,,,,,0,12,12,50,,,,,,,,,,4,1,0.699785541462,,,,,,PLC_L_D2S1,P3,60.0146615167,02,A,2014_Dez_18_1357,X,
stim/negf.jpg,stim/posf.jpg,stim/6.jpg,stim/4.jpg,stim/latef.jpg,CD,1,2,,,,,,,,,0,13,13,29,,,,,,,,,,2,1,1.0163230081,,,,,,PLC_L_D2S1,P3,60.0146615167,02,A,2014_Dez_18_1357,X,
stim/posf.jpg,stim/negf.jpg,stim/1.jpg,stim/3.jpg,stim/latef.jpg,AB,2,4,,,,,,,,,0,14,14,15,,,,,,,,,,4,1,0.883050783077,,,,,,PLC_L_D2S1,P3,60.0146615167,02,A,2014_Dez_18_1357,X,
stim/negf.jpg,stim/posf.jpg,stim/2.jpg,stim/5.jpg,stim/latef.jpg,EF,2,4,,,,,,,,,0,15,15,57,,,,,,,,,,4,1,0.699752585318,,,,,,PLC_L_D2S1,P3,60.0146615167,02,A,2014_Dez_18_1357,X,
stim/posf.jpg,stim/negf.jpg,stim/3.jpg,stim/1.jpg,stim/latef.jpg,AB,1,2,,,,,,,,,0,16,16,3,,,,,,,,,,2,1,0.633105086428,,,,,,PLC_L_D2S1,P3,60.0146615167,02,A,2014_Dez_18_1357,X,
stim/posf.jpg,stim/negf.jpg,stim/5.jpg,stim/2.jpg,stim/latef.jpg,EF,1,2,,,,,,,,,0,17,17,44,,,,,,,,,,4,0,0.516485442967,,,,,,PLC_L_D2S1,P3,60.0146615167,02,A,2014_Dez_18_1357,X,
stim/posf.jpg,stim/negf.jpg,stim/1.jpg,stim/3.jpg,stim/latef.jpg,AB,2,4,,,,,,,,,0,18,18,12,,,,,,,,,,4,1,0.5498129187,,,,,,PLC_L_D2S1,P3,60.0146615167,02,A,2014_Dez_18_1357,X,
stim/posf.jpg,stim/negf.jpg,stim/4.jpg,stim/6.jpg,stim/latef.jpg,CD,2,4,,,,,,,,,0,19,19,31,,,,,,,,,,4,1,0.68308993767,,,,,,PLC_L_D2S1,P3,60.0146615167,02,A,2014_Dez_18_1357,X,
stim/posf.jpg,stim/negf.jpg,stim/3.jpg,stim/1.jpg,stim/latef.jpg,AB,1,2,,,,,,,,,0,20,20,5,,,,,,,,,,2,1,0.533157693551,,,,,,PLC_L_D2S1,P3,60.0146615167,02,A,2014_Dez_18_1357,X,
stim/negf.jpg,stim/posf.jpg,stim/4.jpg,stim/6.jpg,stim/latef.jpg,CD,2,4,,,,,,,,,0,21,21,38,,,,,,,,,,4,1,0.633127859189,,,,,,PLC_L_D2S1,P3,60.0146615167,02,A,2014_Dez_18_1357,X,
stim/posf.jpg,stim/negf.jpg,stim/5.jpg,stim/2.jpg,stim/latef.jpg,EF,1,2,,,,,,,,,0,22,22,41,,,,,,,,,,2,1,0.583139401959,,,,,,PLC_L_D2S1,P3,60.0146615167,02,A,2014_Dez_18_1357,X,
stim/posf.jpg,stim/negf.jpg,stim/4.jpg,stim/6.jpg,stim/latef.jpg,CD,2,4,,,,,,,,,0,23,23,35,,,,,,,,,,4,1,0.483124322374,,,,,,PLC_L_D2S1,P3,60.0146615167,02,A,2014_Dez_18_1357,X,
stim/posf.jpg,stim/negf.jpg,stim/3.jpg,stim/1.jpg,stim/latef.jpg,AB,1,2,,,,,,,,,0,24,24,1,,,,,,,,,,2,1,0.516483779821,,,,,,PLC_L_D2S1,P3,60.0146615167,02,A,2014_Dez_18_1357,X,
stim/posf.jpg,stim/negf.jpg,stim/2.jpg,stim/5.jpg,stim/latef.jpg,EF,2,4,,,,,,,,,0,25,25,52,,,,,,,,,,4,1,0.666439295945,,,,,,PLC_L_D2S1,P3,60.0146615167,02,A,2014_Dez_18_1357,X,
stim/negf.jpg,stim/posf.jpg,stim/5.jpg,stim/2.jpg,stim/latef.jpg,EF,1,2,,,,,,,,,0,26,26,46,,,,,,,,,,2,1,0.533151440967,,,,,,PLC_L_D2S1,P3,60.0146615167,02,A,2014_Dez_18_1357,X,
stim/negf.jpg,stim/posf.jpg,stim/6.jpg,stim/4.jpg,stim/latef.jpg,CD,1,2,,,,,,,,,0,27,27,27,,,,,,,,,,2,1,0.549821947203,,,,,,PLC_L_D2S1,P3,60.0146615167,02,A,2014_Dez_18_1357,X,
stim/negf.jpg,stim/posf.jpg,stim/2.jpg,stim/5.jpg,stim/latef.jpg,EF,2,4,,,,,,,,,0,28,28,56,,,,,,,,,,4,1,0.533166153638,,,,,,PLC_L_D2S1,P3,60.0146615167,02,A,2014_Dez_18_1357,X,
stim/posf.jpg,stim/negf.jpg,stim/1.jpg,stim/3.jpg,stim/latef.jpg,AB,2,4,,,,,,,,,0,29,29,16,,,,,,,,,,4,1,0.549810458568,,,,,,PLC_L_D2S1,P3,60.0146615167,02,A,2014_Dez_18_1357,X,
stim/posf.jpg,stim/negf.jpg,stim/2.jpg,stim/5.jpg,stim/latef.jpg,EF,2,4,,,,,,,,,0,30,30,53,,,,,,,,,,4,1,0.649742892159,,,,,,PLC_L_D2S1,P3,60.0146615167,02,A,2014_Dez_18_1357,X,
stim/negf.jpg,stim/posf.jpg,stim/5.jpg,stim/2.jpg,stim/latef.jpg,EF,1,2,,,,,,,,,0,31,31,49,,,,,,,,,,2,1,0.69975386952,,,,,,PLC_L_D2S1,P3,60.0146615167,02,A,2014_Dez_18_1357,X,
stim/negf.jpg,stim/posf.jpg,stim/5.jpg,stim/2.jpg,stim/latef.jpg,EF,1,2,,,,,,,,,0,32,32,47,,,,,,,,,,4,0,0.449857964978,,,,,,PLC_L_D2S1,P3,60.0146615167,02,A,2014_Dez_18_1357,X,
stim/posf.jpg,stim/negf.jpg,stim/2.jpg,stim/5.jpg,stim/latef.jpg,EF,2,4,,,,,,,,,0,33,33,55,,,,,,,,,,2,0,0.833060211578,,,,,,PLC_L_D2S1,P3,60.0146615167,02,A,2014_Dez_18_1357,X,
stim/negf.jpg,stim/posf.jpg,stim/5.jpg,stim/2.jpg,stim/latef.jpg,EF,1,2,,,,,,,,,0,34,34,48,,,,,,,,,,4,0,0.699786927918,,,,,,PLC_L_D2S1,P3,60.0146615167,02,A,2014_Dez_18_1357,X,
stim/posf.jpg,stim/negf.jpg,stim/1.jpg,stim/3.jpg,stim/latef.jpg,AB,2,4,,,,,,,,,0,35,35,11,,,,,,,,,,4,1,0.716437310998,,,,,,PLC_L_D2S1,P3,60.0146615167,02,A,2014_Dez_18_1357,X,
stim/posf.jpg,stim/negf.jpg,stim/2.jpg,stim/5.jpg,stim/latef.jpg,EF,2,4,,,,,,,,,0,36,36,51,,,,,,,,,,2,0,0.716424282524,,,,,,PLC_L_D2S1,P3,60.0146615167,02,A,2014_Dez_18_1357,X,
stim/posf.jpg,stim/negf.jpg,stim/1.jpg,stim/3.jpg,stim/latef.jpg,AB,2,4,,,,,,,,,0,37,37,14,,,,,,,,,,4,1,0.749695433869,,,,,,PLC_L_D2S1,P3,60.0146615167,02,A,2014_Dez_18_1357,X,
stim/posf.jpg,stim/negf.jpg,stim/5.jpg,stim/2.jpg,stim/latef.jpg,EF,1,2,,,,,,,,,0,38,38,42,,,,,,,,,,4,0,0.583136803482,,,,,,PLC_L_D2S1,P3,60.0146615167,02,A,2014_Dez_18_1357,X,
stim/posf.jpg,stim/negf.jpg,stim/2.jpg,stim/5.jpg,stim/latef.jpg,EF,2,4,,,,,,,,,0,39,39,54,,,,,,,,,,4,1,0.799738600462,,,,,,PLC_L_D2S1,P3,60.0146615167,02,A,2014_Dez_18_1357,X,
stim/posf.jpg,stim/negf.jpg,stim/5.jpg,stim/2.jpg,stim/latef.jpg,EF,1,2,,,,,,,,,0,40,40,43,,,,,,,,,,2,1,0.583143630499,,,,,,PLC_L_D2S1,P3,60.0146615167,02,A,2014_Dez_18_1357,X,
stim/negf.jpg,stim/posf.jpg,stim/6.jpg,stim/4.jpg,stim/latef.jpg,CD,1,2,,,,,,,,,0,41,41,28,,,,,,,,,,2,1,0.699774419742,,,,,,PLC_L_D2S1,P3,60.0146615167,02,A,2014_Dez_18_1357,X,
stim/posf.jpg,stim/negf.jpg,stim/4.jpg,stim/6.jpg,stim/latef.jpg,CD,2,4,,,,,,,,,0,42,42,33,,,,,,,,,,4,1,0.616451885324,,,,,,PLC_L_D2S1,P3,60.0146615167,02,A,2014_Dez_18_1357,X,
stim/negf.jpg,stim/posf.jpg,stim/4.jpg,stim/6.jpg,stim/latef.jpg,CD,2,4,,,,,,,,,0,43,43,39,,,,,,,,,,4,1,0.599797276712,,,,,,PLC_L_D2S1,P3,60.0146615167,02,A,2014_Dez_18_1357,X,
stim/posf.jpg,stim/negf.jpg,stim/4.jpg,stim/6.jpg,stim/latef.jpg,CD,2,4,,,,,,,,,0,44,44,36,,,,,,,,,,4,1,0.533116451756,,,,,,PLC_L_D2S1,P3,60.0146615167,02,A,2014_Dez_18_1357,X,
stim/posf.jpg,stim/negf.jpg,stim/6.jpg,stim/4.jpg,stim/latef.jpg,CD,1,2,,,,,,,,,0,45,45,21,,,,,,,,,,2,1,0.533169690454,,,,,,PLC_L_D2S1,P3,60.0146615167,02,A,2014_Dez_18_1357,X,
stim/posf.jpg,stim/negf.jpg,stim/6.jpg,stim/4.jpg,stim/latef.jpg,CD,1,2,,,,,,,,,0,46,46,26,,,,,,,,,,2,1,0.566449581582,,,,,,PLC_L_D2S1,P3,60.0146615167,02,A,2014_Dez_18_1357,X,
stim/negf.jpg,stim/posf.jpg,stim/4.jpg,stim/6.jpg,stim/latef.jpg,CD,2,4,,,,,,,,,0,47,47,37,,,,,,,,,,4,1,0.549817469041,,,,,,PLC_L_D2S1,P3,60.0146615167,02,A,2014_Dez_18_1357,X,
stim/posf.jpg,stim/negf.jpg,stim/3.jpg,stim/1.jpg,stim/latef.jpg,AB,1,2,,,,,,,,,0,48,48,6,,,,,,,,,,2,1,0.533066461155,,,,,,PLC_L_D2S1,P3,60.0146615167,02,A,2014_Dez_18_1357,X,
stim/posf.jpg,stim/negf.jpg,stim/5.jpg,stim/2.jpg,stim/latef.jpg,EF,1,2,,,,,,,,,0,49,49,40,,,,,,,,,,2,1,0.699786392584,,,,,,PLC_L_D2S1,P3,60.0146615167,02,A,2014_Dez_18_1357,X,
stim/posf.jpg,stim/negf.jpg,stim/6.jpg,stim/4.jpg,stim/latef.jpg,CD,1,2,,,,,,,,,0,50,50,24,,,,,,,,,,2,1,0.783063940873,,,,,,PLC_L_D2S1,P3,60.0146615167,02,A,2014_Dez_18_1357,X,
stim/posf.jpg,stim/negf.jpg,stim/3.jpg,stim/1.jpg,stim/latef.jpg,AB,1,2,,,,,,,,,0,51,51,0,,,,,,,,,,2,1,0.53313295088,,,,,,PLC_L_D2S1,P3,60.0146615167,02,A,2014_Dez_18_1357,X,
stim/negf.jpg,stim/posf.jpg,stim/3.jpg,stim/1.jpg,stim/latef.jpg,AB,1,2,,,,,,,,,0,52,52,8,,,,,,,,,,2,1,0.449835180187,,,,,,PLC_L_D2S1,P3,60.0146615167,02,A,2014_Dez_18_1357,X,
stim/posf.jpg,stim/negf.jpg,stim/6.jpg,stim/4.jpg,stim/latef.jpg,CD,1,2,,,,,,,,,0,53,53,20,,,,,,,,,,2,1,0.549785258757,,,,,,PLC_L_D2S1,P3,60.0146615167,02,A,2014_Dez_18_1357,X,
stim/posf.jpg,stim/negf.jpg,stim/6.jpg,stim/4.jpg,stim/latef.jpg,CD,1,2,,,,,,,,,0,54,54,22,,,,,,,,,,2,1,0.533140102706,,,,,,PLC_L_D2S1,P3,60.0146615167,02,A,2014_Dez_18_1357,X,
stim/posf.jpg,stim/negf.jpg,stim/3.jpg,stim/1.jpg,stim/latef.jpg,AB,1,2,,,,,,,,,0,55,55,4,,,,,,,,,,2,1,0.433196162435,,,,,,PLC_L_D2S1,P3,60.0146615167,02,A,2014_Dez_18_1357,X,
stim/negf.jpg,stim/posf.jpg,stim/2.jpg,stim/5.jpg,stim/latef.jpg,EF,2,4,,,,,,,,,0,56,56,58,,,,,,,,,,2,0,0.38316085443,,,,,,PLC_L_D2S1,P3,60.0146615167,02,A,2014_Dez_18_1357,X,
stim/posf.jpg,stim/negf.jpg,stim/5.jpg,stim/2.jpg,stim/latef.jpg,EF,1,2,,,,,,,,,0,57,57,45,,,,,,,,,,2,1,0.599802058631,,,,,,PLC_L_D2S1,P3,60.0146615167,02,A,2014_Dez_18_1357,X,
stim/posf.jpg,stim/negf.jpg,stim/4.jpg,stim/6.jpg,stim/latef.jpg,CD,2,4,,,,,,,,,0,58,58,34,,,,,,,,,,4,1,0.583095928602,,,,,,PLC_L_D2S1,P3,60.0146615167,02,A,2014_Dez_18_1357,X,
stim/negf.jpg,stim/posf.jpg,stim/1.jpg,stim/3.jpg,stim/latef.jpg,AB,2,4,,,,,,,,,0,59,59,19,,,,,,,,,,4,1,0.683062569454,,,,,,PLC_L_D2S1,P3,60.0146615167,02,A,2014_Dez_18_1357,X,
,,,,,,,,,,,,,,,,,,,,,,,,,,,,,,,,0.25,-0.9921875,1,0,0,PLC_L_D2S1,P3,60.0146615167,02,A,2014_Dez_18_1357,X,
stim/posf.jpg,stim/negf.jpg,stim/2.jpg,stim/5.jpg,stim/latef.jpg,EF,2,4,,,,,,,,,,,,,0,0,0,53,,,,,,4,1,0.683090226389,,,,,,PLC_L_D2S1,P3,60.0146615167,02,A,2014_Dez_18_1357,X,
stim/posf.jpg,stim/negf.jpg,stim/1.jpg,stim/3.jpg,stim/latef.jpg,AB,2,4,,,,,,,,,,,,,0,1,1,14,,,,,,4,1,0.683157729641,,,,,,PLC_L_D2S1,P3,60.0146615167,02,A,2014_Dez_18_1357,X,
stim/posf.jpg,stim/negf.jpg,stim/6.jpg,stim/4.jpg,stim/latef.jpg,CD,1,2,,,,,,,,,,,,,0,2,2,22,,,,,,2,1,0.583138490688,,,,,,PLC_L_D2S1,P3,60.0146615167,02,A,2014_Dez_18_1357,X,
stim/posf.jpg,stim/negf.jpg,stim/2.jpg,stim/5.jpg,stim/latef.jpg,EF,2,4,,,,,,,,,,,,,0,3,3,55,,,,,,4,1,0.633107480395,,,,,,PLC_L_D2S1,P3,60.0146615167,02,A,2014_Dez_18_1357,X,
stim/posf.jpg,stim/negf.jpg,stim/6.jpg,stim/4.jpg,stim/latef.jpg,CD,1,2,,,,,,,,,,,,,0,4,4,26,,,,,,2,1,0.549783276817,,,,,,PLC_L_D2S1,P3,60.0146615167,02,A,2014_Dez_18_1357,X,
stim/posf.jpg,stim/negf.jpg,stim/2.jpg,stim/5.jpg,stim/latef.jpg,EF,2,4,,,,,,,,,,,,,0,5,5,50,,,,,,4,1,0.566474303201,,,,,,PLC_L_D2S1,P3,60.0146615167,02,A,2014_Dez_18_1357,X,
stim/posf.jpg,stim/negf.jpg,stim/5.jpg,stim/2.jpg,stim/latef.jpg,EF,1,2,,,,,,,,,,,,,0,6,6,41,,,,,,2,1,0.633135152367,,,,,,PLC_L_D2S1,P3,60.0146615167,02,A,2014_Dez_18_1357,X,
stim/posf.jpg,stim/negf.jpg,stim/6.jpg,stim/4.jpg,stim/latef.jpg,CD,1,2,,,,,,,,,,,,,0,7,7,24,,,,,,2,1,0.616479497146,,,,,,PLC_L_D2S1,P3,60.0146615167,02,A,2014_Dez_18_1357,X,
stim/posf.jpg,stim/negf.jpg,stim/1.jpg,stim/3.jpg,stim/latef.jpg,AB,2,4,,,,,,,,,,,,,0,8,8,11,,,,,,4,1,0.483215942737,,,,,,PLC_L_D2S1,P3,60.0146615167,02,A,2014_Dez_18_1357,X,
stim/posf.jpg,stim/negf.jpg,stim/5.jpg,stim/2.jpg,stim/latef.jpg,EF,1,2,,,,,,,,,,,,,0,9,9,42,,,,,,2,1,0.549841610213,,,,,,PLC_L_D2S1,P3,60.0146615167,02,A,2014_Dez_18_1357,X,
stim/negf.jpg,stim/posf.jpg,stim/3.jpg,stim/1.jpg,stim/latef.jpg,AB,1,2,,,,,,,,,,,,,0,10,10,9,,,,,,2,1,0.583041195179,,,,,,PLC_L_D2S1,P3,60.0146615167,02,A,2014_Dez_18_1357,X,
stim/posf.jpg,stim/negf.jpg,stim/1.jpg,stim/3.jpg,stim/latef.jpg,AB,2,4,,,,,,,,,,,,,0,11,11,16,,,,,,4,1,0.616389025646,,,,,,PLC_L_D2S1,P3,60.0146615167,02,A,2014_Dez_18_1357,X,
stim/posf.jpg,stim/negf.jpg,stim/3.jpg,stim/1.jpg,stim/latef.jpg,AB,1,2,,,,,,,,,,,,,0,12,12,4,,,,,,2,1,0.533136069654,,,,,,PLC_L_D2S1,P3,60.0146615167,02,A,2014_Dez_18_1357,X,
stim/posf.jpg,stim/negf.jpg,stim/3.jpg,stim/1.jpg,stim/latef.jpg,AB,1,2,,,,,,,,,,,,,0,13,13,5,,,,,,2,1,0.649779496395,,,,,,PLC_L_D2S1,P3,60.0146615167,02,A,2014_Dez_18_1357,X,
stim/negf.jpg,stim/posf.jpg,stim/4.jpg,stim/6.jpg,stim/latef.jpg,CD,2,4,,,,,,,,,,,,,0,14,14,38,,,,,,4,1,0.866396318825,,,,,,PLC_L_D2S1,P3,60.0146615167,02,A,2014_Dez_18_1357,X,
stim/posf.jpg,stim/negf.jpg,stim/3.jpg,stim/1.jpg,stim/latef.jpg,AB,1,2,,,,,,,,,,,,,0,15,15,0,,,,,,2,1,0.533139946316,,,,,,PLC_L_D2S1,P3,60.0146615167,02,A,2014_Dez_18_1357,X,
stim/posf.jpg,stim/negf.jpg,stim/1.jpg,stim/3.jpg,stim/latef.jpg,AB,2,4,,,,,,,,,,,,,0,16,16,10,,,,,,4,1,0.466548877076,,,,,,PLC_L_D2S1,P3,60.0146615167,02,A,2014_Dez_18_1357,X,
stim/posf.jpg,stim/negf.jpg,stim/6.jpg,stim/4.jpg,stim/latef.jpg,CD,1,2,,,,,,,,,,,,,0,17,17,21,,,,,,2,1,0.499884473049,,,,,,PLC_L_D2S1,P3,60.0146615167,02,A,2014_Dez_18_1357,X,
stim/posf.jpg,stim/negf.jpg,stim/3.jpg,stim/1.jpg,stim/latef.jpg,AB,1,2,,,,,,,,,,,,,0,18,18,6,,,,,,2,1,0.533125002068,,,,,,PLC_L_D2S1,P3,60.0146615167,02,A,2014_Dez_18_1357,X,
stim/negf.jpg,stim/posf.jpg,stim/2.jpg,stim/5.jpg,stim/latef.jpg,EF,2,4,,,,,,,,,,,,,0,19,19,57,,,,,,4,1,0.633085682062,,,,,,PLC_L_D2S1,P3,60.0146615167,02,A,2014_Dez_18_1357,X,
stim/negf.jpg,stim/posf.jpg,stim/4.jpg,stim/6.jpg,stim/latef.jpg,CD,2,4,,,,,,,,,,,,,0,20,20,39,,,,,,4,1,0.483155131164,,,,,,PLC_L_D2S1,P3,60.0146615167,02,A,2014_Dez_18_1357,X,
stim/posf.jpg,stim/negf.jpg,stim/2.jpg,stim/5.jpg,stim/latef.jpg,EF,2,4,,,,,,,,,,,,,0,21,21,54,,,,,,4,1,0.566442607198,,,,,,PLC_L_D2S1,P3,60.0146615167,02,A,2014_Dez_18_1357,X,
stim/posf.jpg,stim/negf.jpg,stim/5.jpg,stim/2.jpg,stim/latef.jpg,EF,1,2,,,,,,,,,,,,,0,22,22,44,,,,,,2,1,0.716425530635,,,,,,PLC_L_D2S1,P3,60.0146615167,02,A,2014_Dez_18_1357,X,
stim/negf.jpg,stim/posf.jpg,stim/3.jpg,stim/1.jpg,stim/latef.jpg,AB,1,2,,,,,,,,,,,,,0,23,23,8,,,,,,2,1,0.599792669228,,,,,,PLC_L_D2S1,P3,60.0146615167,02,A,2014_Dez_18_1357,X,
stim/negf.jpg,stim/posf.jpg,stim/1.jpg,stim/3.jpg,stim/latef.jpg,AB,2,4,,,,,,,,,,,,,0,24,24,18,,,,,,4,1,0.549828864444,,,,,,PLC_L_D2S1,P3,60.0146615167,02,A,2014_Dez_18_1357,X,
stim/posf.jpg,stim/negf.jpg,stim/1.jpg,stim/3.jpg,stim/latef.jpg,AB,2,4,,,,,,,,,,,,,0,25,25,12,,,,,,4,1,0.433224405831,,,,,,PLC_L_D2S1,P3,60.0146615167,02,A,2014_Dez_18_1357,X,
stim/posf.jpg,stim/negf.jpg,stim/4.jpg,stim/6.jpg,stim/latef.jpg,CD,2,4,,,,,,,,,,,,,0,26,26,32,,,,,,4,1,0.666433515537,,,,,,PLC_L_D2S1,P3,60.0146615167,02,A,2014_Dez_18_1357,X,
stim/negf.jpg,stim/posf.jpg,stim/6.jpg,stim/4.jpg,stim/latef.jpg,CD,1,2,,,,,,,,,,,,,0,27,27,29,,,,,,2,1,0.516502501485,,,,,,PLC_L_D2S1,P3,60.0146615167,02,A,2014_Dez_18_1357,X,
stim/posf.jpg,stim/negf.jpg,stim/1.jpg,stim/3.jpg,stim/latef.jpg,AB,2,4,,,,,,,,,,,,,0,28,28,17,,,,,,4,1,0.499879636996,,,,,,PLC_L_D2S1,P3,60.0146615167,02,A,2014_Dez_18_1357,X,
stim/posf.jpg,stim/negf.jpg,stim/4.jpg,stim/6.jpg,stim/latef.jpg,CD,2,4,,,,,,,,,,,,,0,29,29,30,,,,,,4,1,0.533159934136,,,,,,PLC_L_D2S1,P3,60.0146615167,02,A,2014_Dez_18_1357,X,
stim/posf.jpg,stim/negf.jpg,stim/3.jpg,stim/1.jpg,stim/latef.jpg,AB,1,2,,,,,,,,,,,,,0,30,30,7,,,,,,2,1,0.516504233803,,,,,,PLC_L_D2S1,P3,60.0146615167,02,A,2014_Dez_18_1357,X,
stim/negf.jpg,stim/posf.jpg,stim/6.jpg,stim/4.jpg,stim/latef.jpg,CD,1,2,,,,,,,,,,,,,0,31,31,28,,,,,,2,1,0.61645886873,,,,,,PLC_L_D2S1,P3,60.0146615167,02,A,2014_Dez_18_1357,X,
stim/posf.jpg,stim/negf.jpg,stim/6.jpg,stim/4.jpg,stim/latef.jpg,CD,1,2,,,,,,,,,,,,,0,32,32,23,,,,,,2,1,0.466501978181,,,,,,PLC_L_D2S1,P3,60.0146615167,02,A,2014_Dez_18_1357,X,
stim/posf.jpg,stim/negf.jpg,stim/4.jpg,stim/6.jpg,stim/latef.jpg,CD,2,4,,,,,,,,,,,,,0,33,33,31,,,,,,4,1,0.448782255773,,,,,,PLC_L_D2S1,P3,60.0146615167,02,A,2014_Dez_18_1357,X,
stim/posf.jpg,stim/negf.jpg,stim/4.jpg,stim/6.jpg,stim/latef.jpg,CD,2,4,,,,,,,,,,,,,0,34,34,36,,,,,,4,1,0.516540762851,,,,,,PLC_L_D2S1,P3,60.0146615167,02,A,2014_Dez_18_1357,X,
stim/posf.jpg,stim/negf.jpg,stim/1.jpg,stim/3.jpg,stim/latef.jpg,AB,2,4,,,,,,,,,,,,,0,35,35,13,,,,,,4,1,0.416534296735,,,,,,PLC_L_D2S1,P3,60.0146615167,02,A,2014_Dez_18_1357,X,
stim/posf.jpg,stim/negf.jpg,stim/4.jpg,stim/6.jpg,stim/latef.jpg,CD,2,4,,,,,,,,,,,,,0,36,36,35,,,,,,4,1,0.349871742318,,,,,,PLC_L_D2S1,P3,60.0146615167,02,A,2014_Dez_18_1357,X,
stim/posf.jpg,stim/negf.jpg,stim/3.jpg,stim/1.jpg,stim/latef.jpg,AB,1,2,,,,,,,,,,,,,0,37,37,2,,,,,,2,1,0.616467683702,,,,,,PLC_L_D2S1,P3,60.0146615167,02,A,2014_Dez_18_1357,X,
stim/posf.jpg,stim/negf.jpg,stim/6.jpg,stim/4.jpg,stim/latef.jpg,CD,1,2,,,,,,,,,,,,,0,38,38,25,,,,,,2,1,0.549849592108,,,,,,PLC_L_D2S1,P3,60.0146615167,02,A,2014_Dez_18_1357,X,
stim/negf.jpg,stim/posf.jpg,stim/5.jpg,stim/2.jpg,stim/latef.jpg,EF,1,2,,,,,,,,,,,,,0,39,39,47,,,,,,4,0,0.516435118533,,,,,,PLC_L_D2S1,P3,60.0146615167,02,A,2014_Dez_18_1357,X,
stim/posf.jpg,stim/negf.jpg,stim/6.jpg,stim/4.jpg,stim/latef.jpg,CD,1,2,,,,,,,,,,,,,0,40,40,20,,,,,,2,1,0.616417374305,,,,,,PLC_L_D2S1,P3,60.0146615167,02,A,2014_Dez_18_1357,X,
stim/negf.jpg,stim/posf.jpg,stim/2.jpg,stim/5.jpg,stim/latef.jpg,EF,2,4,,,,,,,,,,,,,0,41,41,59,,,,,,4,1,0.633139495192,,,,,,PLC_L_D2S1,P3,60.0146615167,02,A,2014_Dez_18_1357,X,
stim/negf.jpg,stim/posf.jpg,stim/2.jpg,stim/5.jpg,stim/latef.jpg,EF,2,4,,,,,,,,,,,,,0,42,42,58,,,,,,4,1,0.649793424109,,,,,,PLC_L_D2S1,P3,60.0146615167,02,A,2014_Dez_18_1357,X,
stim/negf.jpg,stim/posf.jpg,stim/2.jpg,stim/5.jpg,stim/latef.jpg,EF,2,4,,,,,,,,,,,,,0,43,43,56,,,,,,4,1,0.58317078819,,,,,,PLC_L_D2S1,P3,60.0146615167,02,A,2014_Dez_18_1357,X,
stim/negf.jpg,stim/posf.jpg,stim/5.jpg,stim/2.jpg,stim/latef.jpg,EF,1,2,,,,,,,,,,,,,0,44,44,46,,,,,,2,1,0.599811977354,,,,,,PLC_L_D2S1,P3,60.0146615167,02,A,2014_Dez_18_1357,X,
stim/posf.jpg,stim/negf.jpg,stim/5.jpg,stim/2.jpg,stim/latef.jpg,EF,1,2,,,,,,,,,,,,,0,45,45,45,,,,,,4,0,0.533082758776,,,,,,PLC_L_D2S1,P3,60.0146615167,02,A,2014_Dez_18_1357,X,
stim/posf.jpg,stim/negf.jpg,stim/3.jpg,stim/1.jpg,stim/latef.jpg,AB,1,2,,,,,,,,,,,,,0,46,46,1,,,,,,2,1,0.799709445794,,,,,,PLC_L_D2S1,P3,60.0146615167,02,A,2014_Dez_18_1357,X,
stim/negf.jpg,stim/posf.jpg,stim/5.jpg,stim/2.jpg,stim/latef.jpg,EF,1,2,,,,,,,,,,,,,0,47,47,49,,,,,,2,1,0.866332659153,,,,,,PLC_L_D2S1,P3,60.0146615167,02,A,2014_Dez_18_1357,X,
stim/posf.jpg,stim/negf.jpg,stim/1.jpg,stim/3.jpg,stim/latef.jpg,AB,2,4,,,,,,,,,,,,,0,48,48,15,,,,,,4,1,0.766397578966,,,,,,PLC_L_D2S1,P3,60.0146615167,02,A,2014_Dez_18_1357,X,
stim/posf.jpg,stim/negf.jpg,stim/2.jpg,stim/5.jpg,stim/latef.jpg,EF,2,4,,,,,,,,,,,,,0,49,49,51,,,,,,2,0,0.799749268051,,,,,,PLC_L_D2S1,P3,60.0146615167,02,A,2014_Dez_18_1357,X,
stim/posf.jpg,stim/negf.jpg,stim/2.jpg,stim/5.jpg,stim/latef.jpg,EF,2,4,,,,,,,,,,,,,0,50,50,52,,,,,,4,1,0.566456243186,,,,,,PLC_L_D2S1,P3,60.0146615167,02,A,2014_Dez_18_1357,X,
stim/posf.jpg,stim/negf.jpg,stim/5.jpg,stim/2.jpg,stim/latef.jpg,EF,1,2,,,,,,,,,,,,,0,51,51,43,,,,,,2,1,0.666444360569,,,,,,PLC_L_D2S1,P3,60.0146615167,02,A,2014_Dez_18_1357,X,
stim/posf.jpg,stim/negf.jpg,stim/4.jpg,stim/6.jpg,stim/latef.jpg,CD,2,4,,,,,,,,,,,,,0,52,52,34,,,,,,4,1,0.666492919602,,,,,,PLC_L_D2S1,P3,60.0146615167,02,A,2014_Dez_18_1357,X,
stim/negf.jpg,stim/posf.jpg,stim/4.jpg,stim/6.jpg,stim/latef.jpg,CD,2,4,,,,,,,,,,,,,0,53,53,37,,,,,,4,1,0.899663975459,,,,,,PLC_L_D2S1,P3,60.0146615167,02,A,2014_Dez_18_1357,X,
stim/posf.jpg,stim/negf.jpg,stim/4.jpg,stim/6.jpg,stim/latef.jpg,CD,2,4,,,,,,,,,,,,,0,54,54,33,,,,,,4,1,0.666442904941,,,,,,PLC_L_D2S1,P3,60.0146615167,02,A,2014_Dez_18_1357,X,
stim/negf.jpg,stim/posf.jpg,stim/1.jpg,stim/3.jpg,stim/latef.jpg,AB,2,4,,,,,,,,,,,,,0,55,55,19,,,,,,4,1,0.599806759348,,,,,,PLC_L_D2S1,P3,60.0146615167,02,A,2014_Dez_18_1357,X,
stim/posf.jpg,stim/negf.jpg,stim/3.jpg,stim/1.jpg,stim/latef.jpg,AB,1,2,,,,,,,,,,,,,0,56,56,3,,,,,,2,1,0.699776401681,,,,,,PLC_L_D2S1,P3,60.0146615167,02,A,2014_Dez_18_1357,X,
stim/posf.jpg,stim/negf.jpg,stim/5.jpg,stim/2.jpg,stim/latef.jpg,EF,1,2,,,,,,,,,,,,,0,57,57,40,,,,,,2,1,0.949717265284,,,,,,PLC_L_D2S1,P3,60.0146615167,02,A,2014_Dez_18_1357,X,
stim/negf.jpg,stim/posf.jpg,stim/6.jpg,stim/4.jpg,stim/latef.jpg,CD,1,2,,,,,,,,,,,,,0,58,58,27,,,,,,2,1,0.616449798122,,,,,,PLC_L_D2S1,P3,60.0146615167,02,A,2014_Dez_18_1357,X,
stim/negf.jpg,stim/posf.jpg,stim/5.jpg,stim/2.jpg,stim/latef.jpg,EF,1,2,,,,,,,,,,,,,0,59,59,48,,,,,,2,1,0.633109573612,,,,,,PLC_L_D2S1,P3,60.0146615167,02,A,2014_Dez_18_1357,X,
