fb_corr,fb_incorr,symbol2,symbol1,fb_late,pair,position,correct,block_01.thisRepN,block_01.thisTrialN,block_01.thisN,block_01.thisIndex,block_02.thisRepN,block_02.thisTrialN,block_02.thisN,block_02.thisIndex,block_03.thisRepN,block_03.thisTrialN,block_03.thisN,block_03.thisIndex,block_04.thisRepN,block_04.thisTrialN,block_04.thisN,block_04.thisIndex,mouse.x,mouse.y,mouse.leftButton,mouse.midButton,mouse.rightButton,buttonBox_2.keys,buttonBox_2.corr,buttonBox_2.rt,mouse_2.x,mouse_2.y,mouse_2.leftButton,mouse_2.midButton,mouse_2.rightButton,expName,Participant,frameRate,SessionNumber,Version,date,Group,
,,,,,,,,,,,,,,,,,,,,,,,,0.9984375,1.0,1,0,0,,,,,,,,,PLC_L_D2S1,P5,60.0227513447,02,a,2015_Jan_15_1418,X,
stim/negf.jpg,stim/posf.jpg,stim/4.jpg,stim/5.jpg,stim/latef.jpg,AB,2,4,0,0,0,18,,,,,,,,,,,,,,,,,,2,0,0.566530924839,,,,,,PLC_L_D2S1,P5,60.0227513447,02,a,2015_Jan_15_1418,X,
stim/posf.jpg,stim/negf.jpg,stim/6.jpg,stim/1.jpg,stim/latef.jpg,CD,1,2,0,1,1,23,,,,,,,,,,,,,,,,,,4,0,0.683079138205,,,,,,PLC_L_D2S1,P5,60.0227513447,02,a,2015_Jan_15_1418,X,
stim/posf.jpg,stim/negf.jpg,stim/4.jpg,stim/5.jpg,stim/latef.jpg,AB,2,4,0,2,2,13,,,,,,,,,,,,,,,,,,2,0,0.299893165115,,,,,,PLC_L_D2S1,P5,60.0227513447,02,a,2015_Jan_15_1418,X,
stim/posf.jpg,stim/negf.jpg,stim/3.jpg,stim/2.jpg,stim/latef.jpg,EF,2,4,0,3,3,52,,,,,,,,,,,,,,,,,,4,1,0.583074927727,,,,,,PLC_L_D2S1,P5,60.0227513447,02,a,2015_Jan_15_1418,X,
stim/posf.jpg,stim/negf.jpg,stim/5.jpg,stim/4.jpg,stim/latef.jpg,AB,1,2,0,4,4,6,,,,,,,,,,,,,,,,,,4,0,0.483182009225,,,,,,PLC_L_D2S1,P5,60.0227513447,02,a,2015_Jan_15_1418,X,
stim/posf.jpg,stim/negf.jpg,stim/4.jpg,stim/5.jpg,stim/latef.jpg,AB,2,4,0,5,5,10,,,,,,,,,,,,,,,,,,2,0,0.333213014891,,,,,,PLC_L_D2S1,P5,60.0227513447,02,a,2015_Jan_15_1418,X,
stim/posf.jpg,stim/negf.jpg,stim/5.jpg,stim/4.jpg,stim/latef.jpg,AB,1,2,0,6,6,2,,,,,,,,,,,,,,,,,,2,1,0.300216424627,,,,,,PLC_L_D2S1,P5,60.0227513447,02,a,2015_Jan_15_1418,X,
stim/posf.jpg,stim/negf.jpg,stim/5.jpg,stim/4.jpg,stim/latef.jpg,AB,1,2,0,7,7,3,,,,,,,,,,,,,,,,,,2,1,0.316557530554,,,,,,PLC_L_D2S1,P5,60.0227513447,02,a,2015_Jan_15_1418,X,
stim/negf.jpg,stim/posf.jpg,stim/3.jpg,stim/2.jpg,stim/latef.jpg,EF,2,4,0,8,8,58,,,,,,,,,,,,,,,,,,2,0,0.349858225659,,,,,,PLC_L_D2S1,P5,60.0227513447,02,a,2015_Jan_15_1418,X,
stim/posf.jpg,stim/negf.jpg,stim/4.jpg,stim/5.jpg,stim/latef.jpg,AB,2,4,0,9,9,15,,,,,,,,,,,,,,,,,,2,0,0.399867384954,,,,,,PLC_L_D2S1,P5,60.0227513447,02,a,2015_Jan_15_1418,X,
stim/negf.jpg,stim/posf.jpg,stim/5.jpg,stim/4.jpg,stim/latef.jpg,AB,1,2,0,10,10,8,,,,,,,,,,,,,,,,,,4,0,0.283246303237,,,,,,PLC_L_D2S1,P5,60.0227513447,02,a,2015_Jan_15_1418,X,
stim/posf.jpg,stim/negf.jpg,stim/2.jpg,stim/3.jpg,stim/latef.jpg,EF,1,2,0,11,11,40,,,,,,,,,,,,,,,,,,4,0,0.299901483818,,,,,,PLC_L_D2S1,P5,60.0227513447,02,a,2015_Jan_15_1418,X,
stim/negf.jpg,stim/posf.jpg,stim/1.jpg,stim/6.jpg,stim/latef.jpg,CD,2,4,0,12,12,38,,,,,,,,,,,,,,,,,,4,1,0.299906900298,,,,,,PLC_L_D2S1,P5,60.0227513447,02,a,2015_Jan_15_1418,X,
stim/posf.jpg,stim/negf.jpg,stim/3.jpg,stim/2.jpg,stim/latef.jpg,EF,2,4,0,13,13,54,,,,,,,,,,,,,,,,,,2,0,0.233252006932,,,,,,PLC_L_D2S1,P5,60.0227513447,02,a,2015_Jan_15_1418,X,
stim/posf.jpg,stim/negf.jpg,stim/5.jpg,stim/4.jpg,stim/latef.jpg,AB,1,2,0,14,14,0,,,,,,,,,,,,,,,,,,4,0,0.299904094315,,,,,,PLC_L_D2S1,P5,60.0227513447,02,a,2015_Jan_15_1418,X,
stim/posf.jpg,stim/negf.jpg,stim/5.jpg,stim/4.jpg,stim/latef.jpg,AB,1,2,0,15,15,1,,,,,,,,,,,,,,,,,,2,1,0.299905158964,,,,,,PLC_L_D2S1,P5,60.0227513447,02,a,2015_Jan_15_1418,X,
stim/posf.jpg,stim/negf.jpg,stim/4.jpg,stim/5.jpg,stim/latef.jpg,AB,2,4,0,16,16,17,,,,,,,,,,,,,,,,,,4,1,0.366528004572,,,,,,PLC_L_D2S1,P5,60.0227513447,02,a,2015_Jan_15_1418,X,
stim/posf.jpg,stim/negf.jpg,stim/4.jpg,stim/5.jpg,stim/latef.jpg,AB,2,4,0,17,17,12,,,,,,,,,,,,,,,,,,2,0,0.316557987692,,,,,,PLC_L_D2S1,P5,60.0227513447,02,a,2015_Jan_15_1418,X,
stim/posf.jpg,stim/negf.jpg,stim/2.jpg,stim/3.jpg,stim/latef.jpg,EF,1,2,0,18,18,43,,,,,,,,,,,,,,,,,,4,0,0.266591706109,,,,,,PLC_L_D2S1,P5,60.0227513447,02,a,2015_Jan_15_1418,X,
stim/posf.jpg,stim/negf.jpg,stim/2.jpg,stim/3.jpg,stim/latef.jpg,EF,1,2,0,19,19,44,,,,,,,,,,,,,,,,,,2,1,0.366524461754,,,,,,PLC_L_D2S1,P5,60.0227513447,02,a,2015_Jan_15_1418,X,
stim/posf.jpg,stim/negf.jpg,stim/1.jpg,stim/6.jpg,stim/latef.jpg,CD,2,4,0,20,20,36,,,,,,,,,,,,,,,,,,2,0,0.533147914873,,,,,,PLC_L_D2S1,P5,60.0227513447,02,a,2015_Jan_15_1418,X,
stim/posf.jpg,stim/negf.jpg,stim/6.jpg,stim/1.jpg,stim/latef.jpg,CD,1,2,0,21,21,22,,,,,,,,,,,,,,,,,,4,0,0.316490135825,,,,,,PLC_L_D2S1,P5,60.0227513447,02,a,2015_Jan_15_1418,X,
stim/posf.jpg,stim/negf.jpg,stim/6.jpg,stim/1.jpg,stim/latef.jpg,CD,1,2,0,22,22,24,,,,,,,,,,,,,,,,,,2,1,0.516499549253,,,,,,PLC_L_D2S1,P5,60.0227513447,02,a,2015_Jan_15_1418,X,
stim/posf.jpg,stim/negf.jpg,stim/2.jpg,stim/3.jpg,stim/latef.jpg,EF,1,2,0,23,23,41,,,,,,,,,,,,,,,,,,2,1,0.399864527844,,,,,,PLC_L_D2S1,P5,60.0227513447,02,a,2015_Jan_15_1418,X,
stim/negf.jpg,stim/posf.jpg,stim/6.jpg,stim/1.jpg,stim/latef.jpg,CD,1,2,0,24,24,29,,,,,,,,,,,,,,,,,,2,1,0.433137692432,,,,,,PLC_L_D2S1,P5,60.0227513447,02,a,2015_Jan_15_1418,X,
stim/negf.jpg,stim/posf.jpg,stim/3.jpg,stim/2.jpg,stim/latef.jpg,EF,2,4,0,25,25,56,,,,,,,,,,,,,,,,,,4,1,0.333218771217,,,,,,PLC_L_D2S1,P5,60.0227513447,02,a,2015_Jan_15_1418,X,
stim/posf.jpg,stim/negf.jpg,stim/1.jpg,stim/6.jpg,stim/latef.jpg,CD,2,4,0,26,26,34,,,,,,,,,,,,,,,,,,2,0,0.266593630899,,,,,,PLC_L_D2S1,P5,60.0227513447,02,a,2015_Jan_15_1418,X,
stim/posf.jpg,stim/negf.jpg,stim/4.jpg,stim/5.jpg,stim/latef.jpg,AB,2,4,0,27,27,11,,,,,,,,,,,,,,,,,,4,1,0.333236644699,,,,,,PLC_L_D2S1,P5,60.0227513447,02,a,2015_Jan_15_1418,X,
stim/negf.jpg,stim/posf.jpg,stim/1.jpg,stim/6.jpg,stim/latef.jpg,CD,2,4,0,28,28,37,,,,,,,,,,,,,,,,,,2,0,0.31654849607,,,,,,PLC_L_D2S1,P5,60.0227513447,02,a,2015_Jan_15_1418,X,
stim/posf.jpg,stim/negf.jpg,stim/6.jpg,stim/1.jpg,stim/latef.jpg,CD,1,2,0,29,29,20,,,,,,,,,,,,,,,,,,4,0,0.283171004838,,,,,,PLC_L_D2S1,P5,60.0227513447,02,a,2015_Jan_15_1418,X,
stim/posf.jpg,stim/negf.jpg,stim/6.jpg,stim/1.jpg,stim/latef.jpg,CD,1,2,0,30,30,21,,,,,,,,,,,,,,,,,,2,1,0.333247516757,,,,,,PLC_L_D2S1,P5,60.0227513447,02,a,2015_Jan_15_1418,X,
stim/negf.jpg,stim/posf.jpg,stim/2.jpg,stim/3.jpg,stim/latef.jpg,EF,1,2,0,31,31,47,,,,,,,,,,,,,,,,,,4,0,0.349878123179,,,,,,PLC_L_D2S1,P5,60.0227513447,02,a,2015_Jan_15_1418,X,
stim/negf.jpg,stim/posf.jpg,stim/2.jpg,stim/3.jpg,stim/latef.jpg,EF,1,2,0,32,32,49,,,,,,,,,,,,,,,,,,2,1,0.333239315346,,,,,,PLC_L_D2S1,P5,60.0227513447,02,a,2015_Jan_15_1418,X,
stim/posf.jpg,stim/negf.jpg,stim/2.jpg,stim/3.jpg,stim/latef.jpg,EF,1,2,0,33,33,45,,,,,,,,,,,,,,,,,,4,0,0.299914289688,,,,,,PLC_L_D2S1,P5,60.0227513447,02,a,2015_Jan_15_1418,X,
stim/posf.jpg,stim/negf.jpg,stim/1.jpg,stim/6.jpg,stim/latef.jpg,CD,2,4,0,34,34,33,,,,,,,,,,,,,,,,,,2,0,0.299925928655,,,,,,PLC_L_D2S1,P5,60.0227513447,02,a,2015_Jan_15_1418,X,
stim/posf.jpg,stim/negf.jpg,stim/6.jpg,stim/1.jpg,stim/latef.jpg,CD,1,2,0,35,35,25,,,,,,,,,,,,,,,,,,4,0,0.43318930388,,,,,,PLC_L_D2S1,P5,60.0227513447,02,a,2015_Jan_15_1418,X,
stim/posf.jpg,stim/negf.jpg,stim/4.jpg,stim/5.jpg,stim/latef.jpg,AB,2,4,0,36,36,14,,,,,,,,,,,,,,,,,,2,0,0.516426569625,,,,,,PLC_L_D2S1,P5,60.0227513447,02,a,2015_Jan_15_1418,X,
stim/negf.jpg,stim/posf.jpg,stim/2.jpg,stim/3.jpg,stim/latef.jpg,EF,1,2,0,37,37,46,,,,,,,,,,,,,,,,,,4,0,0.349883473495,,,,,,PLC_L_D2S1,P5,60.0227513447,02,a,2015_Jan_15_1418,X,
stim/posf.jpg,stim/negf.jpg,stim/1.jpg,stim/6.jpg,stim/latef.jpg,CD,2,4,0,38,38,31,,,,,,,,,,,,,,,,,,2,0,0.616477952504,,,,,,PLC_L_D2S1,P5,60.0227513447,02,a,2015_Jan_15_1418,X,
stim/posf.jpg,stim/negf.jpg,stim/3.jpg,stim/2.jpg,stim/latef.jpg,EF,2,4,0,39,39,51,,,,,,,,,,,,,,,,,,4,1,0.516496896651,,,,,,PLC_L_D2S1,P5,60.0227513447,02,a,2015_Jan_15_1418,X,
stim/posf.jpg,stim/negf.jpg,stim/3.jpg,stim/2.jpg,stim/latef.jpg,EF,2,4,0,40,40,55,,,,,,,,,,,,,,,,,,2,0,0.299905023628,,,,,,PLC_L_D2S1,P5,60.0227513447,02,a,2015_Jan_15_1418,X,
stim/posf.jpg,stim/negf.jpg,stim/5.jpg,stim/4.jpg,stim/latef.jpg,AB,1,2,0,41,41,5,,,,,,,,,,,,,,,,,,4,0,0.0499683687776,,,,,,PLC_L_D2S1,P5,60.0227513447,02,a,2015_Jan_15_1418,X,
stim/negf.jpg,stim/posf.jpg,stim/2.jpg,stim/3.jpg,stim/latef.jpg,EF,1,2,0,42,42,48,,,,,,,,,,,,,,,,,,2,1,0.399846458875,,,,,,PLC_L_D2S1,P5,60.0227513447,02,a,2015_Jan_15_1418,X,
stim/negf.jpg,stim/posf.jpg,stim/5.jpg,stim/4.jpg,stim/latef.jpg,AB,1,2,0,43,43,9,,,,,,,,,,,,,,,,,,4,0,0.333271447314,,,,,,PLC_L_D2S1,P5,60.0227513447,02,a,2015_Jan_15_1418,X,
stim/negf.jpg,stim/posf.jpg,stim/3.jpg,stim/2.jpg,stim/latef.jpg,EF,2,4,0,44,44,57,,,,,,,,,,,,,,,,,,2,0,0.449854842238,,,,,,PLC_L_D2S1,P5,60.0227513447,02,a,2015_Jan_15_1418,X,
stim/posf.jpg,stim/negf.jpg,stim/1.jpg,stim/6.jpg,stim/latef.jpg,CD,2,4,0,45,45,35,,,,,,,,,,,,,,,,,,4,1,0.566495370353,,,,,,PLC_L_D2S1,P5,60.0227513447,02,a,2015_Jan_15_1418,X,
stim/posf.jpg,stim/negf.jpg,stim/3.jpg,stim/2.jpg,stim/latef.jpg,EF,2,4,0,46,46,53,,,,,,,,,,,,,,,,,,2,0,0.51649125461,,,,,,PLC_L_D2S1,P5,60.0227513447,02,a,2015_Jan_15_1418,X,
stim/negf.jpg,stim/posf.jpg,stim/1.jpg,stim/6.jpg,stim/latef.jpg,CD,2,4,0,47,47,39,,,,,,,,,,,,,,,,,,4,1,0.316538273629,,,,,,PLC_L_D2S1,P5,60.0227513447,02,a,2015_Jan_15_1418,X,
stim/posf.jpg,stim/negf.jpg,stim/5.jpg,stim/4.jpg,stim/latef.jpg,AB,1,2,0,48,48,7,,,,,,,,,,,,,,,,,,4,0,0.316549518614,,,,,,PLC_L_D2S1,P5,60.0227513447,02,a,2015_Jan_15_1418,X,
stim/posf.jpg,stim/negf.jpg,stim/2.jpg,stim/3.jpg,stim/latef.jpg,EF,1,2,0,49,49,42,,,,,,,,,,,,,,,,,,2,1,0.0333411157017,,,,,,PLC_L_D2S1,P5,60.0227513447,02,a,2015_Jan_15_1418,X,
stim/posf.jpg,stim/negf.jpg,stim/6.jpg,stim/1.jpg,stim/latef.jpg,CD,1,2,0,50,50,26,,,,,,,,,,,,,,,,,,2,1,0.266516100946,,,,,,PLC_L_D2S1,P5,60.0227513447,02,a,2015_Jan_15_1418,X,
stim/posf.jpg,stim/negf.jpg,stim/1.jpg,stim/6.jpg,stim/latef.jpg,CD,2,4,0,51,51,30,,,,,,,,,,,,,,,,,,2,0,0.299890509506,,,,,,PLC_L_D2S1,P5,60.0227513447,02,a,2015_Jan_15_1418,X,
stim/posf.jpg,stim/negf.jpg,stim/5.jpg,stim/4.jpg,stim/latef.jpg,AB,1,2,0,52,52,4,,,,,,,,,,,,,,,,,,4,0,0.33324703556,,,,,,PLC_L_D2S1,P5,60.0227513447,02,a,2015_Jan_15_1418,X,
stim/negf.jpg,stim/posf.jpg,stim/6.jpg,stim/1.jpg,stim/latef.jpg,CD,1,2,0,53,53,27,,,,,,,,,,,,,,,,,,2,1,0.29985183325,,,,,,PLC_L_D2S1,P5,60.0227513447,02,a,2015_Jan_15_1418,X,
stim/posf.jpg,stim/negf.jpg,stim/3.jpg,stim/2.jpg,stim/latef.jpg,EF,2,4,0,54,54,50,,,,,,,,,,,,,,,,,,4,1,0.383202508242,,,,,,PLC_L_D2S1,P5,60.0227513447,02,a,2015_Jan_15_1418,X,
stim/posf.jpg,stim/negf.jpg,stim/1.jpg,stim/6.jpg,stim/latef.jpg,CD,2,4,0,55,55,32,,,,,,,,,,,,,,,,,,2,0,0.749764007173,,,,,,PLC_L_D2S1,P5,60.0227513447,02,a,2015_Jan_15_1418,X,
stim/negf.jpg,stim/posf.jpg,stim/6.jpg,stim/1.jpg,stim/latef.jpg,CD,1,2,0,56,56,28,,,,,,,,,,,,,,,,,,2,1,0.366556563648,,,,,,PLC_L_D2S1,P5,60.0227513447,02,a,2015_Jan_15_1418,X,
stim/posf.jpg,stim/negf.jpg,stim/4.jpg,stim/5.jpg,stim/latef.jpg,AB,2,4,0,57,57,16,,,,,,,,,,,,,,,,,,4,1,0.399840037894,,,,,,PLC_L_D2S1,P5,60.0227513447,02,a,2015_Jan_15_1418,X,
stim/negf.jpg,stim/posf.jpg,stim/3.jpg,stim/2.jpg,stim/latef.jpg,EF,2,4,0,58,58,59,,,,,,,,,,,,,,,,,,2,0,0.349895274865,,,,,,PLC_L_D2S1,P5,60.0227513447,02,a,2015_Jan_15_1418,X,
stim/negf.jpg,stim/posf.jpg,stim/4.jpg,stim/5.jpg,stim/latef.jpg,AB,2,4,0,59,59,19,,,,,,,,,,,,,,,,,,4,1,0.283230023721,,,,,,PLC_L_D2S1,P5,60.0227513447,02,a,2015_Jan_15_1418,X,
,,,,,,,,,,,,,,,,,,,,,,,,,,,,,,,,0.9984375,1.0,1,0,0,PLC_L_D2S1,P5,60.0227513447,02,a,2015_Jan_15_1418,X,
stim/negf.jpg,stim/posf.jpg,stim/5.jpg,stim/4.jpg,stim/latef.jpg,AB,1,2,,,,,0,0,0,8,,,,,,,,,,,,,,2,1,0.533199628576,,,,,,PLC_L_D2S1,P5,60.0227513447,02,a,2015_Jan_15_1418,X,
stim/posf.jpg,stim/negf.jpg,stim/1.jpg,stim/6.jpg,stim/latef.jpg,CD,2,4,,,,,0,1,1,31,,,,,,,,,,,,,,4,1,0.366524633181,,,,,,PLC_L_D2S1,P5,60.0227513447,02,a,2015_Jan_15_1418,X,
stim/posf.jpg,stim/negf.jpg,stim/1.jpg,stim/6.jpg,stim/latef.jpg,CD,2,4,,,,,0,2,2,36,,,,,,,,,,,,,,2,0,0.299888383214,,,,,,PLC_L_D2S1,P5,60.0227513447,02,a,2015_Jan_15_1418,X,
stim/posf.jpg,stim/negf.jpg,stim/4.jpg,stim/5.jpg,stim/latef.jpg,AB,2,4,,,,,0,3,3,11,,,,,,,,,,,,,,4,1,0.333223628305,,,,,,PLC_L_D2S1,P5,60.0227513447,02,a,2015_Jan_15_1418,X,
stim/negf.jpg,stim/posf.jpg,stim/1.jpg,stim/6.jpg,stim/latef.jpg,CD,2,4,,,,,0,4,4,38,,,,,,,,,,,,,,2,0,0.433138200697,,,,,,PLC_L_D2S1,P5,60.0227513447,02,a,2015_Jan_15_1418,X,
stim/posf.jpg,stim/negf.jpg,stim/6.jpg,stim/1.jpg,stim/latef.jpg,CD,1,2,,,,,0,5,5,24,,,,,,,,,,,,,,2,1,0.28320350372,,,,,,PLC_L_D2S1,P5,60.0227513447,02,a,2015_Jan_15_1418,X,
stim/negf.jpg,stim/posf.jpg,stim/3.jpg,stim/2.jpg,stim/latef.jpg,EF,2,4,,,,,0,6,6,58,,,,,,,,,,,,,,4,1,0.383131173709,,,,,,PLC_L_D2S1,P5,60.0227513447,02,a,2015_Jan_15_1418,X,
stim/posf.jpg,stim/negf.jpg,stim/1.jpg,stim/6.jpg,stim/latef.jpg,CD,2,4,,,,,0,7,7,32,,,,,,,,,,,,,,2,0,0.266571964978,,,,,,PLC_L_D2S1,P5,60.0227513447,02,a,2015_Jan_15_1418,X,
stim/negf.jpg,stim/posf.jpg,stim/1.jpg,stim/6.jpg,stim/latef.jpg,CD,2,4,,,,,0,8,8,39,,,,,,,,,,,,,,4,1,0.349875145769,,,,,,PLC_L_D2S1,P5,60.0227513447,02,a,2015_Jan_15_1418,X,
stim/negf.jpg,stim/posf.jpg,stim/4.jpg,stim/5.jpg,stim/latef.jpg,AB,2,4,,,,,0,9,9,19,,,,,,,,,,,,,,2,0,0.383215067499,,,,,,PLC_L_D2S1,P5,60.0227513447,02,a,2015_Jan_15_1418,X,
stim/posf.jpg,stim/negf.jpg,stim/2.jpg,stim/3.jpg,stim/latef.jpg,EF,1,2,,,,,0,10,10,43,,,,,,,,,,,,,,4,0,0.49984238674,,,,,,PLC_L_D2S1,P5,60.0227513447,02,a,2015_Jan_15_1418,X,
stim/posf.jpg,stim/negf.jpg,stim/3.jpg,stim/2.jpg,stim/latef.jpg,EF,2,4,,,,,0,11,11,51,,,,,,,,,,,,,,2,0,0.399857463261,,,,,,PLC_L_D2S1,P5,60.0227513447,02,a,2015_Jan_15_1418,X,
stim/posf.jpg,stim/negf.jpg,stim/4.jpg,stim/5.jpg,stim/latef.jpg,AB,2,4,,,,,0,12,12,17,,,,,,,,,,,,,,4,1,0.33330762435,,,,,,PLC_L_D2S1,P5,60.0227513447,02,a,2015_Jan_15_1418,X,
stim/posf.jpg,stim/negf.jpg,stim/5.jpg,stim/4.jpg,stim/latef.jpg,AB,1,2,,,,,0,13,13,1,,,,,,,,,,,,,,2,1,0.316517915963,,,,,,PLC_L_D2S1,P5,60.0227513447,02,a,2015_Jan_15_1418,X,
stim/posf.jpg,stim/negf.jpg,stim/5.jpg,stim/4.jpg,stim/latef.jpg,AB,1,2,,,,,0,14,14,4,,,,,,,,,,,,,,4,0,0.69975092311,,,,,,PLC_L_D2S1,P5,60.0227513447,02,a,2015_Jan_15_1418,X,
stim/negf.jpg,stim/posf.jpg,stim/2.jpg,stim/3.jpg,stim/latef.jpg,EF,1,2,,,,,0,15,15,49,,,,,,,,,,,,,,2,1,0.533135689447,,,,,,PLC_L_D2S1,P5,60.0227513447,02,a,2015_Jan_15_1418,X,
stim/posf.jpg,stim/negf.jpg,stim/6.jpg,stim/1.jpg,stim/latef.jpg,CD,1,2,,,,,0,16,16,23,,,,,,,,,,,,,,4,0,0.616472090916,,,,,,PLC_L_D2S1,P5,60.0227513447,02,a,2015_Jan_15_1418,X,
stim/posf.jpg,stim/negf.jpg,stim/6.jpg,stim/1.jpg,stim/latef.jpg,CD,1,2,,,,,0,17,17,26,,,,,,,,,,,,,,2,1,0.299890404243,,,,,,PLC_L_D2S1,P5,60.0227513447,02,a,2015_Jan_15_1418,X,
stim/posf.jpg,stim/negf.jpg,stim/4.jpg,stim/5.jpg,stim/latef.jpg,AB,2,4,,,,,0,18,18,16,,,,,,,,,,,,,,4,1,0.383144268298,,,,,,PLC_L_D2S1,P5,60.0227513447,02,a,2015_Jan_15_1418,X,
stim/negf.jpg,stim/posf.jpg,stim/4.jpg,stim/5.jpg,stim/latef.jpg,AB,2,4,,,,,0,19,19,18,,,,,,,,,,,,,,2,0,0.366534918779,,,,,,PLC_L_D2S1,P5,60.0227513447,02,a,2015_Jan_15_1418,X,
stim/posf.jpg,stim/negf.jpg,stim/3.jpg,stim/2.jpg,stim/latef.jpg,EF,2,4,,,,,0,20,20,55,,,,,,,,,,,,,,2,0,0.38318217163,,,,,,PLC_L_D2S1,P5,60.0227513447,02,a,2015_Jan_15_1418,X,
stim/posf.jpg,stim/negf.jpg,stim/6.jpg,stim/1.jpg,stim/latef.jpg,CD,1,2,,,,,0,21,21,25,,,,,,,,,,,,,,4,0,0.399848804713,,,,,,PLC_L_D2S1,P5,60.0227513447,02,a,2015_Jan_15_1418,X,
stim/posf.jpg,stim/negf.jpg,stim/4.jpg,stim/5.jpg,stim/latef.jpg,AB,2,4,,,,,0,22,22,10,,,,,,,,,,,,,,2,0,0.899675979594,,,,,,PLC_L_D2S1,P5,60.0227513447,02,a,2015_Jan_15_1418,X,
stim/posf.jpg,stim/negf.jpg,stim/4.jpg,stim/5.jpg,stim/latef.jpg,AB,2,4,,,,,0,23,23,14,,,,,,,,,,,,,,2,0,0.449853837738,,,,,,PLC_L_D2S1,P5,60.0227513447,02,a,2015_Jan_15_1418,X,
stim/posf.jpg,stim/negf.jpg,stim/3.jpg,stim/2.jpg,stim/latef.jpg,EF,2,4,,,,,0,24,24,50,,,,,,,,,,,,,,4,1,0.433166892103,,,,,,PLC_L_D2S1,P5,60.0227513447,02,a,2015_Jan_15_1418,X,
stim/negf.jpg,stim/posf.jpg,stim/5.jpg,stim/4.jpg,stim/latef.jpg,AB,1,2,,,,,0,25,25,9,,,,,,,,,,,,,,4,0,0.483094768104,,,,,,PLC_L_D2S1,P5,60.0227513447,02,a,2015_Jan_15_1418,X,
stim/posf.jpg,stim/negf.jpg,stim/5.jpg,stim/4.jpg,stim/latef.jpg,AB,1,2,,,,,0,26,26,2,,,,,,,,,,,,,,4,0,0.516477979572,,,,,,PLC_L_D2S1,P5,60.0227513447,02,a,2015_Jan_15_1418,X,
stim/negf.jpg,stim/posf.jpg,stim/2.jpg,stim/3.jpg,stim/latef.jpg,EF,1,2,,,,,0,27,27,48,,,,,,,,,,,,,,2,1,0.749751884001,,,,,,PLC_L_D2S1,P5,60.0227513447,02,a,2015_Jan_15_1418,X,
stim/posf.jpg,stim/negf.jpg,stim/4.jpg,stim/5.jpg,stim/latef.jpg,AB,2,4,,,,,0,28,28,13,,,,,,,,,,,,,,4,1,0.43317829047,,,,,,PLC_L_D2S1,P5,60.0227513447,02,a,2015_Jan_15_1418,X,
stim/posf.jpg,stim/negf.jpg,stim/5.jpg,stim/4.jpg,stim/latef.jpg,AB,1,2,,,,,0,29,29,0,,,,,,,,,,,,,,2,1,0.41654545851,,,,,,PLC_L_D2S1,P5,60.0227513447,02,a,2015_Jan_15_1418,X,
stim/posf.jpg,stim/negf.jpg,stim/3.jpg,stim/2.jpg,stim/latef.jpg,EF,2,4,,,,,0,30,30,52,,,,,,,,,,,,,,4,1,0.333209652522,,,,,,PLC_L_D2S1,P5,60.0227513447,02,a,2015_Jan_15_1418,X,
stim/posf.jpg,stim/negf.jpg,stim/1.jpg,stim/6.jpg,stim/latef.jpg,CD,2,4,,,,,0,31,31,34,,,,,,,,,,,,,,2,0,0.599838777758,,,,,,PLC_L_D2S1,P5,60.0227513447,02,a,2015_Jan_15_1418,X,
stim/posf.jpg,stim/negf.jpg,stim/2.jpg,stim/3.jpg,stim/latef.jpg,EF,1,2,,,,,0,32,32,40,,,,,,,,,,,,,,4,0,0.416476048766,,,,,,PLC_L_D2S1,P5,60.0227513447,02,a,2015_Jan_15_1418,X,
stim/posf.jpg,stim/negf.jpg,stim/5.jpg,stim/4.jpg,stim/latef.jpg,AB,1,2,,,,,0,33,33,7,,,,,,,,,,,,,,2,1,0.433189691846,,,,,,PLC_L_D2S1,P5,60.0227513447,02,a,2015_Jan_15_1418,X,
stim/posf.jpg,stim/negf.jpg,stim/2.jpg,stim/3.jpg,stim/latef.jpg,EF,1,2,,,,,0,34,34,41,,,,,,,,,,,,,,4,0,0.366535580426,,,,,,PLC_L_D2S1,P5,60.0227513447,02,a,2015_Jan_15_1418,X,
stim/posf.jpg,stim/negf.jpg,stim/5.jpg,stim/4.jpg,stim/latef.jpg,AB,1,2,,,,,0,35,35,6,,,,,,,,,,,,,,2,1,0.549813375037,,,,,,PLC_L_D2S1,P5,60.0227513447,02,a,2015_Jan_15_1418,X,
stim/negf.jpg,stim/posf.jpg,stim/6.jpg,stim/1.jpg,stim/latef.jpg,CD,1,2,,,,,0,36,36,27,,,,,,,,,,,,,,2,1,0.283227127514,,,,,,PLC_L_D2S1,P5,60.0227513447,02,a,2015_Jan_15_1418,X,
stim/negf.jpg,stim/posf.jpg,stim/3.jpg,stim/2.jpg,stim/latef.jpg,EF,2,4,,,,,0,37,37,56,,,,,,,,,,,,,,4,1,0.566466269929,,,,,,PLC_L_D2S1,P5,60.0227513447,02,a,2015_Jan_15_1418,X,
stim/negf.jpg,stim/posf.jpg,stim/3.jpg,stim/2.jpg,stim/latef.jpg,EF,2,4,,,,,0,38,38,59,,,,,,,,,,,,,,2,0,0.583149892294,,,,,,PLC_L_D2S1,P5,60.0227513447,02,a,2015_Jan_15_1418,X,
stim/posf.jpg,stim/negf.jpg,stim/6.jpg,stim/1.jpg,stim/latef.jpg,CD,1,2,,,,,0,39,39,22,,,,,,,,,,,,,,2,1,0.366526218125,,,,,,PLC_L_D2S1,P5,60.0227513447,02,a,2015_Jan_15_1418,X,
stim/posf.jpg,stim/negf.jpg,stim/6.jpg,stim/1.jpg,stim/latef.jpg,CD,1,2,,,,,0,40,40,21,,,,,,,,,,,,,,2,1,0.433150104323,,,,,,PLC_L_D2S1,P5,60.0227513447,02,a,2015_Jan_15_1418,X,
stim/negf.jpg,stim/posf.jpg,stim/1.jpg,stim/6.jpg,stim/latef.jpg,CD,2,4,,,,,0,41,41,37,,,,,,,,,,,,,,2,0,0.683068488701,,,,,,PLC_L_D2S1,P5,60.0227513447,02,a,2015_Jan_15_1418,X,
stim/negf.jpg,stim/posf.jpg,stim/2.jpg,stim/3.jpg,stim/latef.jpg,EF,1,2,,,,,0,42,42,47,,,,,,,,,,,,,,4,0,0.516509335609,,,,,,PLC_L_D2S1,P5,60.0227513447,02,a,2015_Jan_15_1418,X,
stim/posf.jpg,stim/negf.jpg,stim/4.jpg,stim/5.jpg,stim/latef.jpg,AB,2,4,,,,,0,43,43,15,,,,,,,,,,,,,,2,0,0.316561353067,,,,,,PLC_L_D2S1,P5,60.0227513447,02,a,2015_Jan_15_1418,X,
stim/posf.jpg,stim/negf.jpg,stim/4.jpg,stim/5.jpg,stim/latef.jpg,AB,2,4,,,,,0,44,44,12,,,,,,,,,,,,,,4,1,0.299891246339,,,,,,PLC_L_D2S1,P5,60.0227513447,02,a,2015_Jan_15_1418,X,
stim/posf.jpg,stim/negf.jpg,stim/1.jpg,stim/6.jpg,stim/latef.jpg,CD,2,4,,,,,0,45,45,30,,,,,,,,,,,,,,2,0,0.366536903719,,,,,,PLC_L_D2S1,P5,60.0227513447,02,a,2015_Jan_15_1418,X,
stim/posf.jpg,stim/negf.jpg,stim/5.jpg,stim/4.jpg,stim/latef.jpg,AB,1,2,,,,,0,46,46,5,,,,,,,,,,,,,,4,0,0.683069565381,,,,,,PLC_L_D2S1,P5,60.0227513447,02,a,2015_Jan_15_1418,X,
stim/posf.jpg,stim/negf.jpg,stim/6.jpg,stim/1.jpg,stim/latef.jpg,CD,1,2,,,,,0,47,47,20,,,,,,,,,,,,,,2,1,0.316591070025,,,,,,PLC_L_D2S1,P5,60.0227513447,02,a,2015_Jan_15_1418,X,
stim/posf.jpg,stim/negf.jpg,stim/2.jpg,stim/3.jpg,stim/latef.jpg,EF,1,2,,,,,0,48,48,45,,,,,,,,,,,,,,2,1,0.583120503152,,,,,,PLC_L_D2S1,P5,60.0227513447,02,a,2015_Jan_15_1418,X,
stim/posf.jpg,stim/negf.jpg,stim/2.jpg,stim/3.jpg,stim/latef.jpg,EF,1,2,,,,,0,49,49,44,,,,,,,,,,,,,,4,0,0.483159943309,,,,,,PLC_L_D2S1,P5,60.0227513447,02,a,2015_Jan_15_1418,X,
stim/posf.jpg,stim/negf.jpg,stim/2.jpg,stim/3.jpg,stim/latef.jpg,EF,1,2,,,,,0,50,50,42,,,,,,,,,,,,,,2,1,0.549788458025,,,,,,PLC_L_D2S1,P5,60.0227513447,02,a,2015_Jan_15_1418,X,
stim/negf.jpg,stim/posf.jpg,stim/3.jpg,stim/2.jpg,stim/latef.jpg,EF,2,4,,,,,0,51,51,57,,,,,,,,,,,,,,4,1,0.76640640895,,,,,,PLC_L_D2S1,P5,60.0227513447,02,a,2015_Jan_15_1418,X,
stim/negf.jpg,stim/posf.jpg,stim/6.jpg,stim/1.jpg,stim/latef.jpg,CD,1,2,,,,,0,52,52,28,,,,,,,,,,,,,,2,1,0.633103307858,,,,,,PLC_L_D2S1,P5,60.0227513447,02,a,2015_Jan_15_1418,X,
stim/negf.jpg,stim/posf.jpg,stim/6.jpg,stim/1.jpg,stim/latef.jpg,CD,1,2,,,,,0,53,53,29,,,,,,,,,,,,,,4,0,1.41520122705,,,,,,PLC_L_D2S1,P5,60.0227513447,02,a,2015_Jan_15_1418,X,
stim/posf.jpg,stim/negf.jpg,stim/5.jpg,stim/4.jpg,stim/latef.jpg,AB,1,2,,,,,0,54,54,3,,,,,,,,,,,,,,2,1,0.51646094217,,,,,,PLC_L_D2S1,P5,60.0227513447,02,a,2015_Jan_15_1418,X,
stim/posf.jpg,stim/negf.jpg,stim/1.jpg,stim/6.jpg,stim/latef.jpg,CD,2,4,,,,,0,55,55,33,,,,,,,,,,,,,,4,1,1.31626890825,,,,,,PLC_L_D2S1,P5,60.0227513447,02,a,2015_Jan_15_1418,X,
stim/posf.jpg,stim/negf.jpg,stim/3.jpg,stim/2.jpg,stim/latef.jpg,EF,2,4,,,,,0,56,56,53,,,,,,,,,,,,,,2,0,1.19960800442,,,,,,PLC_L_D2S1,P5,60.0227513447,02,a,2015_Jan_15_1418,X,
stim/posf.jpg,stim/negf.jpg,stim/1.jpg,stim/6.jpg,stim/latef.jpg,CD,2,4,,,,,0,57,57,35,,,,,,,,,,,,,,4,1,0.64976601918,,,,,,PLC_L_D2S1,P5,60.0227513447,02,a,2015_Jan_15_1418,X,
stim/posf.jpg,stim/negf.jpg,stim/3.jpg,stim/2.jpg,stim/latef.jpg,EF,2,4,,,,,0,58,58,54,,,,,,,,,,,,,,4,1,0.616457152739,,,,,,PLC_L_D2S1,P5,60.0227513447,02,a,2015_Jan_15_1418,X,
stim/negf.jpg,stim/posf.jpg,stim/2.jpg,stim/3.jpg,stim/latef.jpg,EF,1,2,,,,,0,59,59,46,,,,,,,,,,,,,,4,0,0.633157162889,,,,,,PLC_L_D2S1,P5,60.0227513447,02,a,2015_Jan_15_1418,X,
,,,,,,,,,,,,,,,,,,,,,,,,,,,,,,,,0.9984375,1.0,1,0,0,PLC_L_D2S1,P5,60.0227513447,02,a,2015_Jan_15_1418,X,
stim/posf.jpg,stim/negf.jpg,stim/6.jpg,stim/1.jpg,stim/latef.jpg,CD,1,2,,,,,,,,,0,0,0,22,,,,,,,,,,2,1,0.416519804664,,,,,,PLC_L_D2S1,P5,60.0227513447,02,a,2015_Jan_15_1418,X,
stim/negf.jpg,stim/posf.jpg,stim/6.jpg,stim/1.jpg,stim/latef.jpg,CD,1,2,,,,,,,,,0,1,1,29,,,,,,,,,,4,0,0.383220126089,,,,,,PLC_L_D2S1,P5,60.0227513447,02,a,2015_Jan_15_1418,X,
stim/posf.jpg,stim/negf.jpg,stim/1.jpg,stim/6.jpg,stim/latef.jpg,CD,2,4,,,,,,,,,0,2,2,31,,,,,,,,,,4,1,0.316548829901,,,,,,PLC_L_D2S1,P5,60.0227513447,02,a,2015_Jan_15_1418,X,
stim/negf.jpg,stim/posf.jpg,stim/5.jpg,stim/4.jpg,stim/latef.jpg,AB,1,2,,,,,,,,,0,3,3,8,,,,,,,,,,2,1,0.266513240828,,,,,,PLC_L_D2S1,P5,60.0227513447,02,a,2015_Jan_15_1418,X,
stim/posf.jpg,stim/negf.jpg,stim/5.jpg,stim/4.jpg,stim/latef.jpg,AB,1,2,,,,,,,,,0,4,4,0,,,,,,,,,,4,0,0.316563010192,,,,,,PLC_L_D2S1,P5,60.0227513447,02,a,2015_Jan_15_1418,X,
stim/negf.jpg,stim/posf.jpg,stim/6.jpg,stim/1.jpg,stim/latef.jpg,CD,1,2,,,,,,,,,0,5,5,27,,,,,,,,,,2,1,0.333191631673,,,,,,PLC_L_D2S1,P5,60.0227513447,02,a,2015_Jan_15_1418,X,
stim/posf.jpg,stim/negf.jpg,stim/4.jpg,stim/5.jpg,stim/latef.jpg,AB,2,4,,,,,,,,,0,6,6,16,,,,,,,,,,4,1,0.399864729345,,,,,,PLC_L_D2S1,P5,60.0227513447,02,a,2015_Jan_15_1418,X,
stim/posf.jpg,stim/negf.jpg,stim/4.jpg,stim/5.jpg,stim/latef.jpg,AB,2,4,,,,,,,,,0,7,7,12,,,,,,,,,,2,0,0.449837846942,,,,,,PLC_L_D2S1,P5,60.0227513447,02,a,2015_Jan_15_1418,X,
stim/posf.jpg,stim/negf.jpg,stim/5.jpg,stim/4.jpg,stim/latef.jpg,AB,1,2,,,,,,,,,0,8,8,5,,,,,,,,,,2,1,0.283280438191,,,,,,PLC_L_D2S1,P5,60.0227513447,02,a,2015_Jan_15_1418,X,
stim/posf.jpg,stim/negf.jpg,stim/5.jpg,stim/4.jpg,stim/latef.jpg,AB,1,2,,,,,,,,,0,9,9,4,,,,,,,,,,4,0,0.399883493043,,,,,,PLC_L_D2S1,P5,60.0227513447,02,a,2015_Jan_15_1418,X,
stim/posf.jpg,stim/negf.jpg,stim/2.jpg,stim/3.jpg,stim/latef.jpg,EF,1,2,,,,,,,,,0,10,10,44,,,,,,,,,,2,1,0.28326152111,,,,,,PLC_L_D2S1,P5,60.0227513447,02,a,2015_Jan_15_1418,X,
stim/posf.jpg,stim/negf.jpg,stim/3.jpg,stim/2.jpg,stim/latef.jpg,EF,2,4,,,,,,,,,0,11,11,51,,,,,,,,,,4,1,0.266563378609,,,,,,PLC_L_D2S1,P5,60.0227513447,02,a,2015_Jan_15_1418,X,
stim/negf.jpg,stim/posf.jpg,stim/2.jpg,stim/3.jpg,stim/latef.jpg,EF,1,2,,,,,,,,,0,12,12,49,,,,,,,,,,2,1,0.266524305365,,,,,,PLC_L_D2S1,P5,60.0227513447,02,a,2015_Jan_15_1418,X,
stim/negf.jpg,stim/posf.jpg,stim/2.jpg,stim/3.jpg,stim/latef.jpg,EF,1,2,,,,,,,,,0,13,13,48,,,,,,,,,,2,1,0.249958765879,,,,,,PLC_L_D2S1,P5,60.0227513447,02,a,2015_Jan_15_1418,X,
stim/posf.jpg,stim/negf.jpg,stim/3.jpg,stim/2.jpg,stim/latef.jpg,EF,2,4,,,,,,,,,0,14,14,53,,,,,,,,,,4,1,0.249945190092,,,,,,PLC_L_D2S1,P5,60.0227513447,02,a,2015_Jan_15_1418,X,
stim/negf.jpg,stim/posf.jpg,stim/1.jpg,stim/6.jpg,stim/latef.jpg,CD,2,4,,,,,,,,,0,15,15,38,,,,,,,,,,2,0,0.24990668827,,,,,,PLC_L_D2S1,P5,60.0227513447,02,a,2015_Jan_15_1418,X,
stim/posf.jpg,stim/negf.jpg,stim/1.jpg,stim/6.jpg,stim/latef.jpg,CD,2,4,,,,,,,,,0,16,16,33,,,,,,,,,,4,1,0.383200851118,,,,,,PLC_L_D2S1,P5,60.0227513447,02,a,2015_Jan_15_1418,X,
stim/posf.jpg,stim/negf.jpg,stim/2.jpg,stim/3.jpg,stim/latef.jpg,EF,1,2,,,,,,,,,0,17,17,45,,,,,,,,,,2,1,0.633123839957,,,,,,PLC_L_D2S1,P5,60.0227513447,02,a,2015_Jan_15_1418,X,
stim/negf.jpg,stim/posf.jpg,stim/3.jpg,stim/2.jpg,stim/latef.jpg,EF,2,4,,,,,,,,,0,18,18,59,,,,,,,,,,4,1,1.29956091322,,,,,,PLC_L_D2S1,P5,60.0227513447,02,a,2015_Jan_15_1418,X,
stim/negf.jpg,stim/posf.jpg,stim/3.jpg,stim/2.jpg,stim/latef.jpg,EF,2,4,,,,,,,,,0,19,19,57,,,,,,,,,,2,0,1.09963036206,,,,,,PLC_L_D2S1,P5,60.0227513447,02,a,2015_Jan_15_1418,X,
stim/posf.jpg,stim/negf.jpg,stim/4.jpg,stim/5.jpg,stim/latef.jpg,AB,2,4,,,,,,,,,0,20,20,15,,,,,,,,,,4,1,0.716421071943,,,,,,PLC_L_D2S1,P5,60.0227513447,02,a,2015_Jan_15_1418,X,
stim/posf.jpg,stim/negf.jpg,stim/6.jpg,stim/1.jpg,stim/latef.jpg,CD,1,2,,,,,,,,,0,21,21,25,,,,,,,,,,2,1,0.483118494152,,,,,,PLC_L_D2S1,P5,60.0227513447,02,a,2015_Jan_15_1418,X,
stim/posf.jpg,stim/negf.jpg,stim/5.jpg,stim/4.jpg,stim/latef.jpg,AB,1,2,,,,,,,,,0,22,22,6,,,,,,,,,,4,0,0.399806468348,,,,,,PLC_L_D2S1,P5,60.0227513447,02,a,2015_Jan_15_1418,X,
stim/negf.jpg,stim/posf.jpg,stim/6.jpg,stim/1.jpg,stim/latef.jpg,CD,1,2,,,,,,,,,0,23,23,28,,,,,,,,,,2,1,0.616485600538,,,,,,PLC_L_D2S1,P5,60.0227513447,02,a,2015_Jan_15_1418,X,
stim/negf.jpg,stim/posf.jpg,stim/3.jpg,stim/2.jpg,stim/latef.jpg,EF,2,4,,,,,,,,,0,24,24,56,,,,,,,,,,2,0,0.616453363308,,,,,,PLC_L_D2S1,P5,60.0227513447,02,a,2015_Jan_15_1418,X,
stim/posf.jpg,stim/negf.jpg,stim/2.jpg,stim/3.jpg,stim/latef.jpg,EF,1,2,,,,,,,,,0,25,25,43,,,,,,,,,,4,0,0.649783946797,,,,,,PLC_L_D2S1,P5,60.0227513447,02,a,2015_Jan_15_1418,X,
stim/posf.jpg,stim/negf.jpg,stim/3.jpg,stim/2.jpg,stim/latef.jpg,EF,2,4,,,,,,,,,0,26,26,52,,,,,,,,,,2,0,0.599755064417,,,,,,PLC_L_D2S1,P5,60.0227513447,02,a,2015_Jan_15_1418,X,
stim/negf.jpg,stim/posf.jpg,stim/2.jpg,stim/3.jpg,stim/latef.jpg,EF,1,2,,,,,,,,,0,27,27,47,,,,,,,,,,4,0,0.449861401563,,,,,,PLC_L_D2S1,P5,60.0227513447,02,a,2015_Jan_15_1418,X,
stim/posf.jpg,stim/negf.jpg,stim/1.jpg,stim/6.jpg,stim/latef.jpg,CD,2,4,,,,,,,,,0,28,28,35,,,,,,,,,,2,0,0.566482158472,,,,,,PLC_L_D2S1,P5,60.0227513447,02,a,2015_Jan_15_1418,X,
stim/negf.jpg,stim/posf.jpg,stim/4.jpg,stim/5.jpg,stim/latef.jpg,AB,2,4,,,,,,,,,0,29,29,19,,,,,,,,,,4,1,0.549798536107,,,,,,PLC_L_D2S1,P5,60.0227513447,02,a,2015_Jan_15_1418,X,
stim/negf.jpg,stim/posf.jpg,stim/1.jpg,stim/6.jpg,stim/latef.jpg,CD,2,4,,,,,,,,,0,30,30,39,,,,,,,,,,2,0,0.483190646722,,,,,,PLC_L_D2S1,P5,60.0227513447,02,a,2015_Jan_15_1418,X,
stim/negf.jpg,stim/posf.jpg,stim/3.jpg,stim/2.jpg,stim/latef.jpg,EF,2,4,,,,,,,,,0,31,31,58,,,,,,,,,,4,1,0.41653261655,,,,,,PLC_L_D2S1,P5,60.0227513447,02,a,2015_Jan_15_1418,X,
stim/posf.jpg,stim/negf.jpg,stim/6.jpg,stim/1.jpg,stim/latef.jpg,CD,1,2,,,,,,,,,0,32,32,24,,,,,,,,,,2,1,0.349890276425,,,,,,PLC_L_D2S1,P5,60.0227513447,02,a,2015_Jan_15_1418,X,
stim/posf.jpg,stim/negf.jpg,stim/4.jpg,stim/5.jpg,stim/latef.jpg,AB,2,4,,,,,,,,,0,33,33,17,,,,,,,,,,4,1,0.733037967241,,,,,,PLC_L_D2S1,P5,60.0227513447,02,a,2015_Jan_15_1418,X,
stim/posf.jpg,stim/negf.jpg,stim/1.jpg,stim/6.jpg,stim/latef.jpg,CD,2,4,,,,,,,,,0,34,34,34,,,,,,,,,,2,0,0.899737377398,,,,,,PLC_L_D2S1,P5,60.0227513447,02,a,2015_Jan_15_1418,X,
stim/posf.jpg,stim/negf.jpg,stim/5.jpg,stim/4.jpg,stim/latef.jpg,AB,1,2,,,,,,,,,0,35,35,2,,,,,,,,,,4,0,0.483183125002,,,,,,PLC_L_D2S1,P5,60.0227513447,02,a,2015_Jan_15_1418,X,
stim/posf.jpg,stim/negf.jpg,stim/1.jpg,stim/6.jpg,stim/latef.jpg,CD,2,4,,,,,,,,,0,36,36,36,,,,,,,,,,2,0,0.283263695522,,,,,,PLC_L_D2S1,P5,60.0227513447,02,a,2015_Jan_15_1418,X,
stim/negf.jpg,stim/posf.jpg,stim/2.jpg,stim/3.jpg,stim/latef.jpg,EF,1,2,,,,,,,,,0,37,37,46,,,,,,,,,,4,0,0.799720186615,,,,,,PLC_L_D2S1,P5,60.0227513447,02,a,2015_Jan_15_1418,X,
stim/posf.jpg,stim/negf.jpg,stim/5.jpg,stim/4.jpg,stim/latef.jpg,AB,1,2,,,,,,,,,0,38,38,1,,,,,,,,,,2,1,0.399863291767,,,,,,PLC_L_D2S1,P5,60.0227513447,02,a,2015_Jan_15_1418,X,
stim/posf.jpg,stim/negf.jpg,stim/1.jpg,stim/6.jpg,stim/latef.jpg,CD,2,4,,,,,,,,,0,39,39,32,,,,,,,,,,4,1,0.316605382646,,,,,,PLC_L_D2S1,P5,60.0227513447,02,a,2015_Jan_15_1418,X,
stim/posf.jpg,stim/negf.jpg,stim/2.jpg,stim/3.jpg,stim/latef.jpg,EF,1,2,,,,,,,,,0,40,40,40,,,,,,,,,,4,0,0.333233101882,,,,,,PLC_L_D2S1,P5,60.0227513447,02,a,2015_Jan_15_1418,X,
stim/posf.jpg,stim/negf.jpg,stim/5.jpg,stim/4.jpg,stim/latef.jpg,AB,1,2,,,,,,,,,0,41,41,7,,,,,,,,,,2,1,0.333205811964,,,,,,PLC_L_D2S1,P5,60.0227513447,02,a,2015_Jan_15_1418,X,
stim/posf.jpg,stim/negf.jpg,stim/6.jpg,stim/1.jpg,stim/latef.jpg,CD,1,2,,,,,,,,,0,42,42,21,,,,,,,,,,4,0,0.466493692176,,,,,,PLC_L_D2S1,P5,60.0227513447,02,a,2015_Jan_15_1418,X,
stim/posf.jpg,stim/negf.jpg,stim/5.jpg,stim/4.jpg,stim/latef.jpg,AB,1,2,,,,,,,,,0,43,43,3,,,,,,,,,,2,1,0.29991398894,,,,,,PLC_L_D2S1,P5,60.0227513447,02,a,2015_Jan_15_1418,X,
stim/posf.jpg,stim/negf.jpg,stim/4.jpg,stim/5.jpg,stim/latef.jpg,AB,2,4,,,,,,,,,0,44,44,14,,,,,,,,,,4,1,0.416571118371,,,,,,PLC_L_D2S1,P5,60.0227513447,02,a,2015_Jan_15_1418,X,
stim/posf.jpg,stim/negf.jpg,stim/6.jpg,stim/1.jpg,stim/latef.jpg,CD,1,2,,,,,,,,,0,45,45,23,,,,,,,,,,2,1,0.716435853731,,,,,,PLC_L_D2S1,P5,60.0227513447,02,a,2015_Jan_15_1418,X,
stim/posf.jpg,stim/negf.jpg,stim/6.jpg,stim/1.jpg,stim/latef.jpg,CD,1,2,,,,,,,,,0,46,46,20,,,,,,,,,,None,0,,,,,,,PLC_L_D2S1,P5,60.0227513447,02,a,2015_Jan_15_1418,X,
stim/posf.jpg,stim/negf.jpg,stim/3.jpg,stim/2.jpg,stim/latef.jpg,EF,2,4,,,,,,,,,0,47,47,54,,,,,,,,,,4,1,0.416494914719,,,,,,PLC_L_D2S1,P5,60.0227513447,02,a,2015_Jan_15_1418,X,
stim/negf.jpg,stim/posf.jpg,stim/1.jpg,stim/6.jpg,stim/latef.jpg,CD,2,4,,,,,,,,,0,48,48,37,,,,,,,,,,2,0,0.38320750969,,,,,,PLC_L_D2S1,P5,60.0227513447,02,a,2015_Jan_15_1418,X,
stim/posf.jpg,stim/negf.jpg,stim/4.jpg,stim/5.jpg,stim/latef.jpg,AB,2,4,,,,,,,,,0,49,49,11,,,,,,,,,,4,1,0.449821859152,,,,,,PLC_L_D2S1,P5,60.0227513447,02,a,2015_Jan_15_1418,X,
stim/negf.jpg,stim/posf.jpg,stim/4.jpg,stim/5.jpg,stim/latef.jpg,AB,2,4,,,,,,,,,0,50,50,18,,,,,,,,,,2,0,0.399854031721,,,,,,PLC_L_D2S1,P5,60.0227513447,02,a,2015_Jan_15_1418,X,
stim/posf.jpg,stim/negf.jpg,stim/6.jpg,stim/1.jpg,stim/latef.jpg,CD,1,2,,,,,,,,,0,51,51,26,,,,,,,,,,2,1,0.38321593967,,,,,,PLC_L_D2S1,P5,60.0227513447,02,a,2015_Jan_15_1418,X,
stim/posf.jpg,stim/negf.jpg,stim/3.jpg,stim/2.jpg,stim/latef.jpg,EF,2,4,,,,,,,,,0,52,52,55,,,,,,,,,,2,0,0.383224426792,,,,,,PLC_L_D2S1,P5,60.0227513447,02,a,2015_Jan_15_1418,X,
stim/posf.jpg,stim/negf.jpg,stim/4.jpg,stim/5.jpg,stim/latef.jpg,AB,2,4,,,,,,,,,0,53,53,10,,,,,,,,,,4,1,0.316558977154,,,,,,PLC_L_D2S1,P5,60.0227513447,02,a,2015_Jan_15_1418,X,
stim/posf.jpg,stim/negf.jpg,stim/2.jpg,stim/3.jpg,stim/latef.jpg,EF,1,2,,,,,,,,,0,54,54,42,,,,,,,,,,2,1,0.316517777619,,,,,,PLC_L_D2S1,P5,60.0227513447,02,a,2015_Jan_15_1418,X,
stim/posf.jpg,stim/negf.jpg,stim/4.jpg,stim/5.jpg,stim/latef.jpg,AB,2,4,,,,,,,,,0,55,55,13,,,,,,,,,,4,1,0.383175476968,,,,,,PLC_L_D2S1,P5,60.0227513447,02,a,2015_Jan_15_1418,X,
stim/posf.jpg,stim/negf.jpg,stim/2.jpg,stim/3.jpg,stim/latef.jpg,EF,1,2,,,,,,,,,0,56,56,41,,,,,,,,,,2,1,0.299889911016,,,,,,PLC_L_D2S1,P5,60.0227513447,02,a,2015_Jan_15_1418,X,
stim/posf.jpg,stim/negf.jpg,stim/3.jpg,stim/2.jpg,stim/latef.jpg,EF,2,4,,,,,,,,,0,57,57,50,,,,,,,,,,2,0,0.299897724462,,,,,,PLC_L_D2S1,P5,60.0227513447,02,a,2015_Jan_15_1418,X,
stim/negf.jpg,stim/posf.jpg,stim/5.jpg,stim/4.jpg,stim/latef.jpg,AB,1,2,,,,,,,,,0,58,58,9,,,,,,,,,,4,0,0.216582874629,,,,,,PLC_L_D2S1,P5,60.0227513447,02,a,2015_Jan_15_1418,X,
stim/posf.jpg,stim/negf.jpg,stim/1.jpg,stim/6.jpg,stim/latef.jpg,CD,2,4,,,,,,,,,0,59,59,30,,,,,,,,,,2,0,0.349882255463,,,,,,PLC_L_D2S1,P5,60.0227513447,02,a,2015_Jan_15_1418,X,
,,,,,,,,,,,,,,,,,,,,,,,,,,,,,,,,0.9984375,1.0,1,0,0,PLC_L_D2S1,P5,60.0227513447,02,a,2015_Jan_15_1418,X,
stim/negf.jpg,stim/posf.jpg,stim/5.jpg,stim/4.jpg,stim/latef.jpg,AB,1,2,,,,,,,,,,,,,0,0,0,9,,,,,,2,1,0.433175872452,,,,,,PLC_L_D2S1,P5,60.0227513447,02,a,2015_Jan_15_1418,X,
stim/posf.jpg,stim/negf.jpg,stim/5.jpg,stim/4.jpg,stim/latef.jpg,AB,1,2,,,,,,,,,,,,,0,1,1,7,,,,,,2,1,0.316521398631,,,,,,PLC_L_D2S1,P5,60.0227513447,02,a,2015_Jan_15_1418,X,
stim/posf.jpg,stim/negf.jpg,stim/3.jpg,stim/2.jpg,stim/latef.jpg,EF,2,4,,,,,,,,,,,,,0,2,2,54,,,,,,2,0,0.283185254302,,,,,,PLC_L_D2S1,P5,60.0227513447,02,a,2015_Jan_15_1418,X,
stim/negf.jpg,stim/posf.jpg,stim/4.jpg,stim/5.jpg,stim/latef.jpg,AB,2,4,,,,,,,,,,,,,0,3,3,19,,,,,,4,1,0.266498320696,,,,,,PLC_L_D2S1,P5,60.0227513447,02,a,2015_Jan_15_1418,X,
stim/negf.jpg,stim/posf.jpg,stim/1.jpg,stim/6.jpg,stim/latef.jpg,CD,2,4,,,,,,,,,,,,,0,4,4,39,,,,,,2,0,0.249907521344,,,,,,PLC_L_D2S1,P5,60.0227513447,02,a,2015_Jan_15_1418,X,
stim/posf.jpg,stim/negf.jpg,stim/2.jpg,stim/3.jpg,stim/latef.jpg,EF,1,2,,,,,,,,,,,,,0,5,5,42,,,,,,2,1,0.333218665955,,,,,,PLC_L_D2S1,P5,60.0227513447,02,a,2015_Jan_15_1418,X,
stim/negf.jpg,stim/posf.jpg,stim/3.jpg,stim/2.jpg,stim/latef.jpg,EF,2,4,,,,,,,,,,,,,0,6,6,58,,,,,,2,0,0.433169009372,,,,,,PLC_L_D2S1,P5,60.0227513447,02,a,2015_Jan_15_1418,X,
stim/posf.jpg,stim/negf.jpg,stim/5.jpg,stim/4.jpg,stim/latef.jpg,AB,1,2,,,,,,,,,,,,,0,7,7,6,,,,,,2,1,0.333299810904,,,,,,PLC_L_D2S1,P5,60.0227513447,02,a,2015_Jan_15_1418,X,
stim/posf.jpg,stim/negf.jpg,stim/6.jpg,stim/1.jpg,stim/latef.jpg,CD,1,2,,,,,,,,,,,,,0,8,8,21,,,,,,2,1,0.299831379345,,,,,,PLC_L_D2S1,P5,60.0227513447,02,a,2015_Jan_15_1418,X,
stim/posf.jpg,stim/negf.jpg,stim/4.jpg,stim/5.jpg,stim/latef.jpg,AB,2,4,,,,,,,,,,,,,0,9,9,17,,,,,,4,1,0.51651312504,,,,,,PLC_L_D2S1,P5,60.0227513447,02,a,2015_Jan_15_1418,X,
stim/posf.jpg,stim/negf.jpg,stim/6.jpg,stim/1.jpg,stim/latef.jpg,CD,1,2,,,,,,,,,,,,,0,10,10,24,,,,,,2,1,0.449854953516,,,,,,PLC_L_D2S1,P5,60.0227513447,02,a,2015_Jan_15_1418,X,
stim/posf.jpg,stim/negf.jpg,stim/6.jpg,stim/1.jpg,stim/latef.jpg,CD,1,2,,,,,,,,,,,,,0,11,11,20,,,,,,2,1,0.333203857099,,,,,,PLC_L_D2S1,P5,60.0227513447,02,a,2015_Jan_15_1418,X,
stim/negf.jpg,stim/posf.jpg,stim/5.jpg,stim/4.jpg,stim/latef.jpg,AB,1,2,,,,,,,,,,,,,0,12,12,8,,,,,,2,1,0.466527012101,,,,,,PLC_L_D2S1,P5,60.0227513447,02,a,2015_Jan_15_1418,X,
stim/posf.jpg,stim/negf.jpg,stim/2.jpg,stim/3.jpg,stim/latef.jpg,EF,1,2,,,,,,,,,,,,,0,13,13,45,,,,,,4,0,0.449848932531,,,,,,PLC_L_D2S1,P5,60.0227513447,02,a,2015_Jan_15_1418,X,
stim/posf.jpg,stim/negf.jpg,stim/5.jpg,stim/4.jpg,stim/latef.jpg,AB,1,2,,,,,,,,,,,,,0,14,14,3,,,,,,2,1,0.266614190065,,,,,,PLC_L_D2S1,P5,60.0227513447,02,a,2015_Jan_15_1418,X,
stim/posf.jpg,stim/negf.jpg,stim/5.jpg,stim/4.jpg,stim/latef.jpg,AB,1,2,,,,,,,,,,,,,0,15,15,2,,,,,,2,1,0.383159344819,,,,,,PLC_L_D2S1,P5,60.0227513447,02,a,2015_Jan_15_1418,X,
stim/negf.jpg,stim/posf.jpg,stim/2.jpg,stim/3.jpg,stim/latef.jpg,EF,1,2,,,,,,,,,,,,,0,16,16,49,,,,,,2,1,0.266558957606,,,,,,PLC_L_D2S1,P5,60.0227513447,02,a,2015_Jan_15_1418,X,
stim/posf.jpg,stim/negf.jpg,stim/5.jpg,stim/4.jpg,stim/latef.jpg,AB,1,2,,,,,,,,,,,,,0,17,17,5,,,,,,4,0,0.366538981891,,,,,,PLC_L_D2S1,P5,60.0227513447,02,a,2015_Jan_15_1418,X,
stim/posf.jpg,stim/negf.jpg,stim/4.jpg,stim/5.jpg,stim/latef.jpg,AB,2,4,,,,,,,,,,,,,0,18,18,11,,,,,,2,0,0.366546888569,,,,,,PLC_L_D2S1,P5,60.0227513447,02,a,2015_Jan_15_1418,X,
stim/posf.jpg,stim/negf.jpg,stim/4.jpg,stim/5.jpg,stim/latef.jpg,AB,2,4,,,,,,,,,,,,,0,19,19,15,,,,,,2,0,0.383204517242,,,,,,PLC_L_D2S1,P5,60.0227513447,02,a,2015_Jan_15_1418,X,
stim/posf.jpg,stim/negf.jpg,stim/5.jpg,stim/4.jpg,stim/latef.jpg,AB,1,2,,,,,,,,,,,,,0,20,20,1,,,,,,2,1,0.4665272527,,,,,,PLC_L_D2S1,P5,60.0227513447,02,a,2015_Jan_15_1418,X,
stim/negf.jpg,stim/posf.jpg,stim/3.jpg,stim/2.jpg,stim/latef.jpg,EF,2,4,,,,,,,,,,,,,0,21,21,59,,,,,,2,0,0.649752575723,,,,,,PLC_L_D2S1,P5,60.0227513447,02,a,2015_Jan_15_1418,X,
stim/posf.jpg,stim/negf.jpg,stim/5.jpg,stim/4.jpg,stim/latef.jpg,AB,1,2,,,,,,,,,,,,,0,22,22,4,,,,,,2,1,0.533136949583,,,,,,PLC_L_D2S1,P5,60.0227513447,02,a,2015_Jan_15_1418,X,
stim/posf.jpg,stim/negf.jpg,stim/1.jpg,stim/6.jpg,stim/latef.jpg,CD,2,4,,,,,,,,,,,,,0,23,23,31,,,,,,2,0,0.649777002515,,,,,,PLC_L_D2S1,P5,60.0227513447,02,a,2015_Jan_15_1418,X,
stim/negf.jpg,stim/posf.jpg,stim/2.jpg,stim/3.jpg,stim/latef.jpg,EF,1,2,,,,,,,,,,,,,0,24,24,48,,,,,,4,0,0.51654240892,,,,,,PLC_L_D2S1,P5,60.0227513447,02,a,2015_Jan_15_1418,X,
stim/posf.jpg,stim/negf.jpg,stim/6.jpg,stim/1.jpg,stim/latef.jpg,CD,1,2,,,,,,,,,,,,,0,25,25,22,,,,,,2,1,0.549799426322,,,,,,PLC_L_D2S1,P5,60.0227513447,02,a,2015_Jan_15_1418,X,
stim/posf.jpg,stim/negf.jpg,stim/1.jpg,stim/6.jpg,stim/latef.jpg,CD,2,4,,,,,,,,,,,,,0,26,26,34,,,,,,4,1,0.449853371578,,,,,,PLC_L_D2S1,P5,60.0227513447,02,a,2015_Jan_15_1418,X,
stim/posf.jpg,stim/negf.jpg,stim/4.jpg,stim/5.jpg,stim/latef.jpg,AB,2,4,,,,,,,,,,,,,0,27,27,12,,,,,,2,0,0.283230516949,,,,,,PLC_L_D2S1,P5,60.0227513447,02,a,2015_Jan_15_1418,X,
stim/negf.jpg,stim/posf.jpg,stim/1.jpg,stim/6.jpg,stim/latef.jpg,CD,2,4,,,,,,,,,,,,,0,28,28,38,,,,,,2,0,0.24989323579,,,,,,PLC_L_D2S1,P5,60.0227513447,02,a,2015_Jan_15_1418,X,
stim/negf.jpg,stim/posf.jpg,stim/3.jpg,stim/2.jpg,stim/latef.jpg,EF,2,4,,,,,,,,,,,,,0,29,29,57,,,,,,2,0,0.299870897697,,,,,,PLC_L_D2S1,P5,60.0227513447,02,a,2015_Jan_15_1418,X,
stim/posf.jpg,stim/negf.jpg,stim/6.jpg,stim/1.jpg,stim/latef.jpg,CD,1,2,,,,,,,,,,,,,0,30,30,23,,,,,,4,0,0.299938954072,,,,,,PLC_L_D2S1,P5,60.0227513447,02,a,2015_Jan_15_1418,X,
stim/posf.jpg,stim/negf.jpg,stim/3.jpg,stim/2.jpg,stim/latef.jpg,EF,2,4,,,,,,,,,,,,,0,31,31,55,,,,,,2,0,0.466460143683,,,,,,PLC_L_D2S1,P5,60.0227513447,02,a,2015_Jan_15_1418,X,
stim/negf.jpg,stim/posf.jpg,stim/3.jpg,stim/2.jpg,stim/latef.jpg,EF,2,4,,,,,,,,,,,,,0,32,32,56,,,,,,2,0,0.566472239787,,,,,,PLC_L_D2S1,P5,60.0227513447,02,a,2015_Jan_15_1418,X,
stim/posf.jpg,stim/negf.jpg,stim/4.jpg,stim/5.jpg,stim/latef.jpg,AB,2,4,,,,,,,,,,,,,0,33,33,13,,,,,,2,0,0.39989361323,,,,,,PLC_L_D2S1,P5,60.0227513447,02,a,2015_Jan_15_1418,X,
stim/posf.jpg,stim/negf.jpg,stim/3.jpg,stim/2.jpg,stim/latef.jpg,EF,2,4,,,,,,,,,,,,,0,34,34,53,,,,,,4,1,0.316574856675,,,,,,PLC_L_D2S1,P5,60.0227513447,02,a,2015_Jan_15_1418,X,
stim/negf.jpg,stim/posf.jpg,stim/6.jpg,stim/1.jpg,stim/latef.jpg,CD,1,2,,,,,,,,,,,,,0,35,35,28,,,,,,2,1,0.33322072909,,,,,,PLC_L_D2S1,P5,60.0227513447,02,a,2015_Jan_15_1418,X,
stim/negf.jpg,stim/posf.jpg,stim/6.jpg,stim/1.jpg,stim/latef.jpg,CD,1,2,,,,,,,,,,,,,0,36,36,27,,,,,,4,0,0.349822553881,,,,,,PLC_L_D2S1,P5,60.0227513447,02,a,2015_Jan_15_1418,X,
stim/posf.jpg,stim/negf.jpg,stim/4.jpg,stim/5.jpg,stim/latef.jpg,AB,2,4,,,,,,,,,,,,,0,37,37,10,,,,,,4,1,0.499812384071,,,,,,PLC_L_D2S1,P5,60.0227513447,02,a,2015_Jan_15_1418,X,
stim/posf.jpg,stim/negf.jpg,stim/5.jpg,stim/4.jpg,stim/latef.jpg,AB,1,2,,,,,,,,,,,,,0,38,38,0,,,,,,2,1,0.399906900298,,,,,,PLC_L_D2S1,P5,60.0227513447,02,a,2015_Jan_15_1418,X,
stim/posf.jpg,stim/negf.jpg,stim/1.jpg,stim/6.jpg,stim/latef.jpg,CD,2,4,,,,,,,,,,,,,0,39,39,30,,,,,,2,0,0.283237025146,,,,,,PLC_L_D2S1,P5,60.0227513447,02,a,2015_Jan_15_1418,X,
stim/posf.jpg,stim/negf.jpg,stim/1.jpg,stim/6.jpg,stim/latef.jpg,CD,2,4,,,,,,,,,,,,,0,40,40,36,,,,,,4,1,0.483157176423,,,,,,PLC_L_D2S1,P5,60.0227513447,02,a,2015_Jan_15_1418,X,
stim/posf.jpg,stim/negf.jpg,stim/1.jpg,stim/6.jpg,stim/latef.jpg,CD,2,4,,,,,,,,,,,,,0,41,41,32,,,,,,4,1,0.366533472179,,,,,,PLC_L_D2S1,P5,60.0227513447,02,a,2015_Jan_15_1418,X,
stim/posf.jpg,stim/negf.jpg,stim/2.jpg,stim/3.jpg,stim/latef.jpg,EF,1,2,,,,,,,,,,,,,0,42,42,44,,,,,,4,0,0.316563855295,,,,,,PLC_L_D2S1,P5,60.0227513447,02,a,2015_Jan_15_1418,X,
stim/negf.jpg,stim/posf.jpg,stim/2.jpg,stim/3.jpg,stim/latef.jpg,EF,1,2,,,,,,,,,,,,,0,43,43,47,,,,,,2,1,0.0998789637711,,,,,,PLC_L_D2S1,P5,60.0227513447,02,a,2015_Jan_15_1418,X,
stim/negf.jpg,stim/posf.jpg,stim/4.jpg,stim/5.jpg,stim/latef.jpg,AB,2,4,,,,,,,,,,,,,0,44,44,18,,,,,,4,1,0.249912294222,,,,,,PLC_L_D2S1,P5,60.0227513447,02,a,2015_Jan_15_1418,X,
stim/negf.jpg,stim/posf.jpg,stim/1.jpg,stim/6.jpg,stim/latef.jpg,CD,2,4,,,,,,,,,,,,,0,45,45,37,,,,,,2,0,0.24990873336,,,,,,PLC_L_D2S1,P5,60.0227513447,02,a,2015_Jan_15_1418,X,
stim/negf.jpg,stim/posf.jpg,stim/6.jpg,stim/1.jpg,stim/latef.jpg,CD,1,2,,,,,,,,,,,,,0,46,46,29,,,,,,2,1,0.483164854532,,,,,,PLC_L_D2S1,P5,60.0227513447,02,a,2015_Jan_15_1418,X,
stim/posf.jpg,stim/negf.jpg,stim/1.jpg,stim/6.jpg,stim/latef.jpg,CD,2,4,,,,,,,,,,,,,0,47,47,33,,,,,,4,1,0.416534099239,,,,,,PLC_L_D2S1,P5,60.0227513447,02,a,2015_Jan_15_1418,X,
stim/posf.jpg,stim/negf.jpg,stim/2.jpg,stim/3.jpg,stim/latef.jpg,EF,1,2,,,,,,,,,,,,,0,48,48,41,,,,,,2,1,0.349913211505,,,,,,PLC_L_D2S1,P5,60.0227513447,02,a,2015_Jan_15_1418,X,
stim/posf.jpg,stim/negf.jpg,stim/3.jpg,stim/2.jpg,stim/latef.jpg,EF,2,4,,,,,,,,,,,,,0,49,49,52,,,,,,4,1,0.316593238422,,,,,,PLC_L_D2S1,P5,60.0227513447,02,a,2015_Jan_15_1418,X,
stim/negf.jpg,stim/posf.jpg,stim/2.jpg,stim/3.jpg,stim/latef.jpg,EF,1,2,,,,,,,,,,,,,0,50,50,46,,,,,,2,1,0.299883871986,,,,,,PLC_L_D2S1,P5,60.0227513447,02,a,2015_Jan_15_1418,X,
stim/posf.jpg,stim/negf.jpg,stim/1.jpg,stim/6.jpg,stim/latef.jpg,CD,2,4,,,,,,,,,,,,,0,51,51,35,,,,,,4,1,0.499831845505,,,,,,PLC_L_D2S1,P5,60.0227513447,02,a,2015_Jan_15_1418,X,
stim/posf.jpg,stim/negf.jpg,stim/4.jpg,stim/5.jpg,stim/latef.jpg,AB,2,4,,,,,,,,,,,,,0,52,52,14,,,,,,4,1,0.583134367658,,,,,,PLC_L_D2S1,P5,60.0227513447,02,a,2015_Jan_15_1418,X,
stim/posf.jpg,stim/negf.jpg,stim/6.jpg,stim/1.jpg,stim/latef.jpg,CD,1,2,,,,,,,,,,,,,0,53,53,26,,,,,,2,1,0.349872559332,,,,,,PLC_L_D2S1,P5,60.0227513447,02,a,2015_Jan_15_1418,X,
stim/posf.jpg,stim/negf.jpg,stim/6.jpg,stim/1.jpg,stim/latef.jpg,CD,1,2,,,,,,,,,,,,,0,54,54,25,,,,,,2,1,0.41653149175,,,,,,PLC_L_D2S1,P5,60.0227513447,02,a,2015_Jan_15_1418,X,
stim/posf.jpg,stim/negf.jpg,stim/2.jpg,stim/3.jpg,stim/latef.jpg,EF,1,2,,,,,,,,,,,,,0,55,55,40,,,,,,2,1,0.416515915986,,,,,,PLC_L_D2S1,P5,60.0227513447,02,a,2015_Jan_15_1418,X,
stim/posf.jpg,stim/negf.jpg,stim/4.jpg,stim/5.jpg,stim/latef.jpg,AB,2,4,,,,,,,,,,,,,0,56,56,16,,,,,,2,0,0.349891614756,,,,,,PLC_L_D2S1,P5,60.0227513447,02,a,2015_Jan_15_1418,X,
stim/posf.jpg,stim/negf.jpg,stim/3.jpg,stim/2.jpg,stim/latef.jpg,EF,2,4,,,,,,,,,,,,,0,57,57,50,,,,,,4,1,0.366501968775,,,,,,PLC_L_D2S1,P5,60.0227513447,02,a,2015_Jan_15_1418,X,
stim/posf.jpg,stim/negf.jpg,stim/2.jpg,stim/3.jpg,stim/latef.jpg,EF,1,2,,,,,,,,,,,,,0,58,58,43,,,,,,4,0,0.633158886178,,,,,,PLC_L_D2S1,P5,60.0227513447,02,a,2015_Jan_15_1418,X,
stim/posf.jpg,stim/negf.jpg,stim/3.jpg,stim/2.jpg,stim/latef.jpg,EF,2,4,,,,,,,,,,,,,0,59,59,51,,,,,,4,1,0.69971306489,,,,,,PLC_L_D2S1,P5,60.0227513447,02,a,2015_Jan_15_1418,X,
