fb_corr,fb_incorr,symbol2,symbol1,fb_late,pair,position,correct,block_01.thisRepN,block_01.thisTrialN,block_01.thisN,block_01.thisIndex,block_02.thisRepN,block_02.thisTrialN,block_02.thisN,block_02.thisIndex,block_03.thisRepN,block_03.thisTrialN,block_03.thisN,block_03.thisIndex,block_04.thisRepN,block_04.thisTrialN,block_04.thisN,block_04.thisIndex,mouse.x,mouse.y,mouse.leftButton,mouse.midButton,mouse.rightButton,buttonBox_2.keys,buttonBox_2.corr,buttonBox_2.rt,mouse_2.x,mouse_2.y,mouse_2.leftButton,mouse_2.midButton,mouse_2.rightButton,expName,Participant,frameRate,SessionNumber,Version,date,Group,
,,,,,,,,,,,,,,,,,,,,,,,,0.996875,1.0,1,0,0,,,,,,,,,PLC_L_D2S1,P6,60.0243438855,02,B,2015_Jan_08_1421,X,
stim/posf.jpg,stim/negf.jpg,stim/1.jpg,stim/5.jpg,stim/latef.jpg,AB,1,2,0,0,0,7,,,,,,,,,,,,,,,,,,2,1,1.19962729303,,,,,,PLC_L_D2S1,P6,60.0243438855,02,B,2015_Jan_08_1421,X,
stim/posf.jpg,stim/negf.jpg,stim/2.jpg,stim/4.jpg,stim/latef.jpg,CD,1,2,0,1,1,21,,,,,,,,,,,,,,,,,,2,1,0.999666270179,,,,,,PLC_L_D2S1,P6,60.0243438855,02,B,2015_Jan_08_1421,X,
stim/negf.jpg,stim/posf.jpg,stim/3.jpg,stim/6.jpg,stim/latef.jpg,EF,2,4,0,2,2,57,,,,,,,,,,,,,,,,,,None,0,,,,,,,PLC_L_D2S1,P6,60.0243438855,02,B,2015_Jan_08_1421,X,
stim/posf.jpg,stim/negf.jpg,stim/5.jpg,stim/1.jpg,stim/latef.jpg,AB,2,4,0,3,3,10,,,,,,,,,,,,,,,,,,4,1,1.11629231058,,,,,,PLC_L_D2S1,P6,60.0243438855,02,B,2015_Jan_08_1421,X,
stim/posf.jpg,stim/negf.jpg,stim/3.jpg,stim/6.jpg,stim/latef.jpg,EF,2,4,0,4,4,51,,,,,,,,,,,,,,,,,,2,0,1.09954729664,,,,,,PLC_L_D2S1,P6,60.0243438855,02,B,2015_Jan_08_1421,X,
stim/posf.jpg,stim/negf.jpg,stim/4.jpg,stim/2.jpg,stim/latef.jpg,CD,2,4,0,5,5,32,,,,,,,,,,,,,,,,,,4,1,1.06632095097,,,,,,PLC_L_D2S1,P6,60.0243438855,02,B,2015_Jan_08_1421,X,
stim/posf.jpg,stim/negf.jpg,stim/4.jpg,stim/2.jpg,stim/latef.jpg,CD,2,4,0,6,6,30,,,,,,,,,,,,,,,,,,4,1,0.916390421125,,,,,,PLC_L_D2S1,P6,60.0243438855,02,B,2015_Jan_08_1421,X,
stim/posf.jpg,stim/negf.jpg,stim/1.jpg,stim/5.jpg,stim/latef.jpg,AB,1,2,0,7,7,2,,,,,,,,,,,,,,,,,,4,0,1.31622853964,,,,,,PLC_L_D2S1,P6,60.0243438855,02,B,2015_Jan_08_1421,X,
stim/posf.jpg,stim/negf.jpg,stim/6.jpg,stim/3.jpg,stim/latef.jpg,EF,1,2,0,8,8,41,,,,,,,,,,,,,,,,,,4,0,1.08297643176,,,,,,PLC_L_D2S1,P6,60.0243438855,02,B,2015_Jan_08_1421,X,
stim/posf.jpg,stim/negf.jpg,stim/3.jpg,stim/6.jpg,stim/latef.jpg,EF,2,4,0,9,9,54,,,,,,,,,,,,,,,,,,4,1,0.833053309374,,,,,,PLC_L_D2S1,P6,60.0243438855,02,B,2015_Jan_08_1421,X,
stim/posf.jpg,stim/negf.jpg,stim/4.jpg,stim/2.jpg,stim/latef.jpg,CD,2,4,0,10,10,35,,,,,,,,,,,,,,,,,,4,1,1.18294967707,,,,,,PLC_L_D2S1,P6,60.0243438855,02,B,2015_Jan_08_1421,X,
stim/negf.jpg,stim/posf.jpg,stim/5.jpg,stim/1.jpg,stim/latef.jpg,AB,2,4,0,11,11,19,,,,,,,,,,,,,,,,,,4,1,1.48283930497,,,,,,PLC_L_D2S1,P6,60.0243438855,02,B,2015_Jan_08_1421,X,
stim/negf.jpg,stim/posf.jpg,stim/4.jpg,stim/2.jpg,stim/latef.jpg,CD,2,4,0,12,12,39,,,,,,,,,,,,,,,,,,4,1,1.04966260404,,,,,,PLC_L_D2S1,P6,60.0243438855,02,B,2015_Jan_08_1421,X,
stim/posf.jpg,stim/negf.jpg,stim/6.jpg,stim/3.jpg,stim/latef.jpg,EF,1,2,0,13,13,43,,,,,,,,,,,,,,,,,,4,0,1.43285673341,,,,,,PLC_L_D2S1,P6,60.0243438855,02,B,2015_Jan_08_1421,X,
stim/negf.jpg,stim/posf.jpg,stim/1.jpg,stim/5.jpg,stim/latef.jpg,AB,1,2,0,14,14,9,,,,,,,,,,,,,,,,,,2,1,1.24959497748,,,,,,PLC_L_D2S1,P6,60.0243438855,02,B,2015_Jan_08_1421,X,
stim/posf.jpg,stim/negf.jpg,stim/6.jpg,stim/3.jpg,stim/latef.jpg,EF,1,2,0,15,15,42,,,,,,,,,,,,,,,,,,2,1,1.29958723919,,,,,,PLC_L_D2S1,P6,60.0243438855,02,B,2015_Jan_08_1421,X,
stim/posf.jpg,stim/negf.jpg,stim/2.jpg,stim/4.jpg,stim/latef.jpg,CD,1,2,0,16,16,25,,,,,,,,,,,,,,,,,,2,1,1.04961065255,,,,,,PLC_L_D2S1,P6,60.0243438855,02,B,2015_Jan_08_1421,X,
stim/negf.jpg,stim/posf.jpg,stim/4.jpg,stim/2.jpg,stim/latef.jpg,CD,2,4,0,17,17,37,,,,,,,,,,,,,,,,,,4,1,0.866422005849,,,,,,PLC_L_D2S1,P6,60.0243438855,02,B,2015_Jan_08_1421,X,
stim/posf.jpg,stim/negf.jpg,stim/3.jpg,stim/6.jpg,stim/latef.jpg,EF,2,4,0,18,18,55,,,,,,,,,,,,,,,,,,2,0,0.966390697814,,,,,,PLC_L_D2S1,P6,60.0243438855,02,B,2015_Jan_08_1421,X,
stim/posf.jpg,stim/negf.jpg,stim/1.jpg,stim/5.jpg,stim/latef.jpg,AB,1,2,0,19,19,5,,,,,,,,,,,,,,,,,,4,0,1.19962132916,,,,,,PLC_L_D2S1,P6,60.0243438855,02,B,2015_Jan_08_1421,X,
stim/negf.jpg,stim/posf.jpg,stim/2.jpg,stim/4.jpg,stim/latef.jpg,CD,1,2,0,20,20,29,,,,,,,,,,,,,,,,,,2,1,0.966366451381,,,,,,PLC_L_D2S1,P6,60.0243438855,02,B,2015_Jan_08_1421,X,
stim/posf.jpg,stim/negf.jpg,stim/5.jpg,stim/1.jpg,stim/latef.jpg,AB,2,4,0,21,21,13,,,,,,,,,,,,,,,,,,4,1,1.08298844971,,,,,,PLC_L_D2S1,P6,60.0243438855,02,B,2015_Jan_08_1421,X,
stim/posf.jpg,stim/negf.jpg,stim/5.jpg,stim/1.jpg,stim/latef.jpg,AB,2,4,0,22,22,12,,,,,,,,,,,,,,,,,,4,1,0.849700056391,,,,,,PLC_L_D2S1,P6,60.0243438855,02,B,2015_Jan_08_1421,X,
stim/posf.jpg,stim/negf.jpg,stim/5.jpg,stim/1.jpg,stim/latef.jpg,AB,2,4,0,23,23,16,,,,,,,,,,,,,,,,,,4,1,0.849714880339,,,,,,PLC_L_D2S1,P6,60.0243438855,02,B,2015_Jan_08_1421,X,
stim/posf.jpg,stim/negf.jpg,stim/6.jpg,stim/3.jpg,stim/latef.jpg,EF,1,2,0,24,24,44,,,,,,,,,,,,,,,,,,2,1,1.48281687807,,,,,,PLC_L_D2S1,P6,60.0243438855,02,B,2015_Jan_08_1421,X,
stim/negf.jpg,stim/posf.jpg,stim/2.jpg,stim/4.jpg,stim/latef.jpg,CD,1,2,0,25,25,27,,,,,,,,,,,,,,,,,,2,1,1.3162304494,,,,,,PLC_L_D2S1,P6,60.0243438855,02,B,2015_Jan_08_1421,X,
stim/posf.jpg,stim/negf.jpg,stim/2.jpg,stim/4.jpg,stim/latef.jpg,CD,1,2,0,26,26,26,,,,,,,,,,,,,,,,,,2,1,0.683107104458,,,,,,PLC_L_D2S1,P6,60.0243438855,02,B,2015_Jan_08_1421,X,
stim/posf.jpg,stim/negf.jpg,stim/3.jpg,stim/6.jpg,stim/latef.jpg,EF,2,4,0,27,27,52,,,,,,,,,,,,,,,,,,2,0,1.26625502365,,,,,,PLC_L_D2S1,P6,60.0243438855,02,B,2015_Jan_08_1421,X,
stim/negf.jpg,stim/posf.jpg,stim/5.jpg,stim/1.jpg,stim/latef.jpg,AB,2,4,0,28,28,18,,,,,,,,,,,,,,,,,,4,1,1.33288854369,,,,,,PLC_L_D2S1,P6,60.0243438855,02,B,2015_Jan_08_1421,X,
stim/negf.jpg,stim/posf.jpg,stim/3.jpg,stim/6.jpg,stim/latef.jpg,EF,2,4,0,29,29,59,,,,,,,,,,,,,,,,,,2,0,1.38289174668,,,,,,PLC_L_D2S1,P6,60.0243438855,02,B,2015_Jan_08_1421,X,
stim/posf.jpg,stim/negf.jpg,stim/2.jpg,stim/4.jpg,stim/latef.jpg,CD,1,2,0,30,30,23,,,,,,,,,,,,,,,,,,2,1,1.38288145503,,,,,,PLC_L_D2S1,P6,60.0243438855,02,B,2015_Jan_08_1421,X,
stim/negf.jpg,stim/posf.jpg,stim/6.jpg,stim/3.jpg,stim/latef.jpg,EF,1,2,0,31,31,46,,,,,,,,,,,,,,,,,,2,1,1.31614428162,,,,,,PLC_L_D2S1,P6,60.0243438855,02,B,2015_Jan_08_1421,X,
stim/posf.jpg,stim/negf.jpg,stim/1.jpg,stim/5.jpg,stim/latef.jpg,AB,1,2,0,32,32,6,,,,,,,,,,,,,,,,,,2,1,1.14961356982,,,,,,PLC_L_D2S1,P6,60.0243438855,02,B,2015_Jan_08_1421,X,
stim/posf.jpg,stim/negf.jpg,stim/1.jpg,stim/5.jpg,stim/latef.jpg,AB,1,2,0,33,33,4,,,,,,,,,,,,,,,,,,4,0,1.1495939429,,,,,,PLC_L_D2S1,P6,60.0243438855,02,B,2015_Jan_08_1421,X,
stim/negf.jpg,stim/posf.jpg,stim/6.jpg,stim/3.jpg,stim/latef.jpg,EF,1,2,0,34,34,49,,,,,,,,,,,,,,,,,,2,1,1.19956843934,,,,,,PLC_L_D2S1,P6,60.0243438855,02,B,2015_Jan_08_1421,X,
stim/posf.jpg,stim/negf.jpg,stim/1.jpg,stim/5.jpg,stim/latef.jpg,AB,1,2,0,35,35,3,,,,,,,,,,,,,,,,,,2,1,1.39954185006,,,,,,PLC_L_D2S1,P6,60.0243438855,02,B,2015_Jan_08_1421,X,
stim/posf.jpg,stim/negf.jpg,stim/4.jpg,stim/2.jpg,stim/latef.jpg,CD,2,4,0,36,36,36,,,,,,,,,,,,,,,,,,4,1,1.38289796919,,,,,,PLC_L_D2S1,P6,60.0243438855,02,B,2015_Jan_08_1421,X,
stim/posf.jpg,stim/negf.jpg,stim/4.jpg,stim/2.jpg,stim/latef.jpg,CD,2,4,0,37,37,33,,,,,,,,,,,,,,,,,,4,1,0.866318081819,,,,,,PLC_L_D2S1,P6,60.0243438855,02,B,2015_Jan_08_1421,X,
stim/posf.jpg,stim/negf.jpg,stim/6.jpg,stim/3.jpg,stim/latef.jpg,EF,1,2,0,38,38,40,,,,,,,,,,,,,,,,,,2,1,0.949694119593,,,,,,PLC_L_D2S1,P6,60.0243438855,02,B,2015_Jan_08_1421,X,
stim/posf.jpg,stim/negf.jpg,stim/3.jpg,stim/6.jpg,stim/latef.jpg,EF,2,4,0,39,39,50,,,,,,,,,,,,,,,,,,4,1,1.1329626484,,,,,,PLC_L_D2S1,P6,60.0243438855,02,B,2015_Jan_08_1421,X,
stim/posf.jpg,stim/negf.jpg,stim/5.jpg,stim/1.jpg,stim/latef.jpg,AB,2,4,0,40,40,15,,,,,,,,,,,,,,,,,,4,1,1.24959361509,,,,,,PLC_L_D2S1,P6,60.0243438855,02,B,2015_Jan_08_1421,X,
stim/negf.jpg,stim/posf.jpg,stim/2.jpg,stim/4.jpg,stim/latef.jpg,CD,1,2,0,41,41,28,,,,,,,,,,,,,,,,,,2,1,0.849712017203,,,,,,PLC_L_D2S1,P6,60.0243438855,02,B,2015_Jan_08_1421,X,
stim/negf.jpg,stim/posf.jpg,stim/3.jpg,stim/6.jpg,stim/latef.jpg,EF,2,4,0,42,42,56,,,,,,,,,,,,,,,,,,2,0,1.11628720386,,,,,,PLC_L_D2S1,P6,60.0243438855,02,B,2015_Jan_08_1421,X,
stim/negf.jpg,stim/posf.jpg,stim/4.jpg,stim/2.jpg,stim/latef.jpg,CD,2,4,0,43,43,38,,,,,,,,,,,,,,,,,,4,1,0.96633484861,,,,,,PLC_L_D2S1,P6,60.0243438855,02,B,2015_Jan_08_1421,X,
stim/posf.jpg,stim/negf.jpg,stim/2.jpg,stim/4.jpg,stim/latef.jpg,CD,1,2,0,44,44,24,,,,,,,,,,,,,,,,,,2,1,0.916340454583,,,,,,PLC_L_D2S1,P6,60.0243438855,02,B,2015_Jan_08_1421,X,
stim/posf.jpg,stim/negf.jpg,stim/1.jpg,stim/5.jpg,stim/latef.jpg,AB,1,2,0,45,45,1,,,,,,,,,,,,,,,,,,2,1,0.833042301937,,,,,,PLC_L_D2S1,P6,60.0243438855,02,B,2015_Jan_08_1421,X,
stim/negf.jpg,stim/posf.jpg,stim/6.jpg,stim/3.jpg,stim/latef.jpg,EF,1,2,0,46,46,47,,,,,,,,,,,,,,,,,,2,1,1.26623436816,,,,,,PLC_L_D2S1,P6,60.0243438855,02,B,2015_Jan_08_1421,X,
stim/posf.jpg,stim/negf.jpg,stim/2.jpg,stim/4.jpg,stim/latef.jpg,CD,1,2,0,47,47,20,,,,,,,,,,,,,,,,,,2,1,0.949721427658,,,,,,PLC_L_D2S1,P6,60.0243438855,02,B,2015_Jan_08_1421,X,
stim/posf.jpg,stim/negf.jpg,stim/4.jpg,stim/2.jpg,stim/latef.jpg,CD,2,4,0,48,48,34,,,,,,,,,,,,,,,,,,4,1,1.28294120796,,,,,,PLC_L_D2S1,P6,60.0243438855,02,B,2015_Jan_08_1421,X,
stim/posf.jpg,stim/negf.jpg,stim/6.jpg,stim/3.jpg,stim/latef.jpg,EF,1,2,0,49,49,45,,,,,,,,,,,,,,,,,,2,1,0.983004329291,,,,,,PLC_L_D2S1,P6,60.0243438855,02,B,2015_Jan_08_1421,X,
stim/negf.jpg,stim/posf.jpg,stim/3.jpg,stim/6.jpg,stim/latef.jpg,EF,2,4,0,50,50,58,,,,,,,,,,,,,,,,,,4,1,0.982945168833,,,,,,PLC_L_D2S1,P6,60.0243438855,02,B,2015_Jan_08_1421,X,
stim/posf.jpg,stim/negf.jpg,stim/2.jpg,stim/4.jpg,stim/latef.jpg,CD,1,2,0,51,51,22,,,,,,,,,,,,,,,,,,2,1,0.849703896964,,,,,,PLC_L_D2S1,P6,60.0243438855,02,B,2015_Jan_08_1421,X,
stim/posf.jpg,stim/negf.jpg,stim/3.jpg,stim/6.jpg,stim/latef.jpg,EF,2,4,0,52,52,53,,,,,,,,,,,,,,,,,,2,0,0.766406884159,,,,,,PLC_L_D2S1,P6,60.0243438855,02,B,2015_Jan_08_1421,X,
stim/posf.jpg,stim/negf.jpg,stim/5.jpg,stim/1.jpg,stim/latef.jpg,AB,2,4,0,53,53,11,,,,,,,,,,,,,,,,,,4,1,0.983014205908,,,,,,PLC_L_D2S1,P6,60.0243438855,02,B,2015_Jan_08_1421,X,
stim/negf.jpg,stim/posf.jpg,stim/6.jpg,stim/3.jpg,stim/latef.jpg,EF,1,2,0,54,54,48,,,,,,,,,,,,,,,,,,4,0,0.783067525808,,,,,,PLC_L_D2S1,P6,60.0243438855,02,B,2015_Jan_08_1421,X,
stim/posf.jpg,stim/negf.jpg,stim/4.jpg,stim/2.jpg,stim/latef.jpg,CD,2,4,0,55,55,31,,,,,,,,,,,,,,,,,,4,1,0.966352631935,,,,,,PLC_L_D2S1,P6,60.0243438855,02,B,2015_Jan_08_1421,X,
stim/posf.jpg,stim/negf.jpg,stim/1.jpg,stim/5.jpg,stim/latef.jpg,AB,1,2,0,56,56,0,,,,,,,,,,,,,,,,,,2,1,0.883008500688,,,,,,PLC_L_D2S1,P6,60.0243438855,02,B,2015_Jan_08_1421,X,
stim/negf.jpg,stim/posf.jpg,stim/1.jpg,stim/5.jpg,stim/latef.jpg,AB,1,2,0,57,57,8,,,,,,,,,,,,,,,,,,2,1,0.699760473981,,,,,,PLC_L_D2S1,P6,60.0243438855,02,B,2015_Jan_08_1421,X,
stim/posf.jpg,stim/negf.jpg,stim/5.jpg,stim/1.jpg,stim/latef.jpg,AB,2,4,0,58,58,17,,,,,,,,,,,,,,,,,,4,1,0.966300424809,,,,,,PLC_L_D2S1,P6,60.0243438855,02,B,2015_Jan_08_1421,X,
stim/posf.jpg,stim/negf.jpg,stim/5.jpg,stim/1.jpg,stim/latef.jpg,AB,2,4,0,59,59,14,,,,,,,,,,,,,,,,,,4,1,0.799721629161,,,,,,PLC_L_D2S1,P6,60.0243438855,02,B,2015_Jan_08_1421,X,
,,,,,,,,,,,,,,,,,,,,,,,,,,,,,,,,0.996875,1.0,1,0,0,PLC_L_D2S1,P6,60.0243438855,02,B,2015_Jan_08_1421,X,
stim/posf.jpg,stim/negf.jpg,stim/2.jpg,stim/4.jpg,stim/latef.jpg,CD,1,2,,,,,0,0,0,26,,,,,,,,,,,,,,2,1,0.849722420132,,,,,,PLC_L_D2S1,P6,60.0243438855,02,B,2015_Jan_08_1421,X,
stim/posf.jpg,stim/negf.jpg,stim/5.jpg,stim/1.jpg,stim/latef.jpg,AB,2,4,,,,,0,1,1,11,,,,,,,,,,,,,,4,1,0.783020076541,,,,,,PLC_L_D2S1,P6,60.0243438855,02,B,2015_Jan_08_1421,X,
stim/negf.jpg,stim/posf.jpg,stim/5.jpg,stim/1.jpg,stim/latef.jpg,AB,2,4,,,,,0,2,2,19,,,,,,,,,,,,,,4,1,0.816359696544,,,,,,PLC_L_D2S1,P6,60.0243438855,02,B,2015_Jan_08_1421,X,
stim/posf.jpg,stim/negf.jpg,stim/5.jpg,stim/1.jpg,stim/latef.jpg,AB,2,4,,,,,0,3,3,14,,,,,,,,,,,,,,4,1,0.649790912851,,,,,,PLC_L_D2S1,P6,60.0243438855,02,B,2015_Jan_08_1421,X,
stim/posf.jpg,stim/negf.jpg,stim/4.jpg,stim/2.jpg,stim/latef.jpg,CD,2,4,,,,,0,4,4,33,,,,,,,,,,,,,,4,1,0.766409620981,,,,,,PLC_L_D2S1,P6,60.0243438855,02,B,2015_Jan_08_1421,X,
stim/negf.jpg,stim/posf.jpg,stim/2.jpg,stim/4.jpg,stim/latef.jpg,CD,1,2,,,,,0,5,5,28,,,,,,,,,,,,,,2,1,0.699759944662,,,,,,PLC_L_D2S1,P6,60.0243438855,02,B,2015_Jan_08_1421,X,
stim/posf.jpg,stim/negf.jpg,stim/4.jpg,stim/2.jpg,stim/latef.jpg,CD,2,4,,,,,0,6,6,32,,,,,,,,,,,,,,4,1,0.483197151901,,,,,,PLC_L_D2S1,P6,60.0243438855,02,B,2015_Jan_08_1421,X,
stim/posf.jpg,stim/negf.jpg,stim/4.jpg,stim/2.jpg,stim/latef.jpg,CD,2,4,,,,,0,7,7,30,,,,,,,,,,,,,,4,1,0.933031357659,,,,,,PLC_L_D2S1,P6,60.0243438855,02,B,2015_Jan_08_1421,X,
stim/posf.jpg,stim/negf.jpg,stim/5.jpg,stim/1.jpg,stim/latef.jpg,AB,2,4,,,,,0,8,8,17,,,,,,,,,,,,,,4,1,1.04957279118,,,,,,PLC_L_D2S1,P6,60.0243438855,02,B,2015_Jan_08_1421,X,
stim/negf.jpg,stim/posf.jpg,stim/6.jpg,stim/3.jpg,stim/latef.jpg,EF,1,2,,,,,0,9,9,48,,,,,,,,,,,,,,2,1,1.29954066812,,,,,,PLC_L_D2S1,P6,60.0243438855,02,B,2015_Jan_08_1421,X,
stim/posf.jpg,stim/negf.jpg,stim/3.jpg,stim/6.jpg,stim/latef.jpg,EF,2,4,,,,,0,10,10,53,,,,,,,,,,,,,,2,0,0.899683864031,,,,,,PLC_L_D2S1,P6,60.0243438855,02,B,2015_Jan_08_1421,X,
stim/posf.jpg,stim/negf.jpg,stim/5.jpg,stim/1.jpg,stim/latef.jpg,AB,2,4,,,,,0,11,11,16,,,,,,,,,,,,,,4,1,0.76641340441,,,,,,PLC_L_D2S1,P6,60.0243438855,02,B,2015_Jan_08_1421,X,
stim/posf.jpg,stim/negf.jpg,stim/2.jpg,stim/4.jpg,stim/latef.jpg,CD,1,2,,,,,0,12,12,23,,,,,,,,,,,,,,2,1,0.999679698649,,,,,,PLC_L_D2S1,P6,60.0243438855,02,B,2015_Jan_08_1421,X,
stim/posf.jpg,stim/negf.jpg,stim/1.jpg,stim/5.jpg,stim/latef.jpg,AB,1,2,,,,,0,13,13,7,,,,,,,,,,,,,,2,1,0.966351025932,,,,,,PLC_L_D2S1,P6,60.0243438855,02,B,2015_Jan_08_1421,X,
stim/posf.jpg,stim/negf.jpg,stim/1.jpg,stim/5.jpg,stim/latef.jpg,AB,1,2,,,,,0,14,14,5,,,,,,,,,,,,,,2,1,0.983020395335,,,,,,PLC_L_D2S1,P6,60.0243438855,02,B,2015_Jan_08_1421,X,
stim/negf.jpg,stim/posf.jpg,stim/2.jpg,stim/4.jpg,stim/latef.jpg,CD,1,2,,,,,0,15,15,27,,,,,,,,,,,,,,2,1,0.833058452192,,,,,,PLC_L_D2S1,P6,60.0243438855,02,B,2015_Jan_08_1421,X,
stim/posf.jpg,stim/negf.jpg,stim/5.jpg,stim/1.jpg,stim/latef.jpg,AB,2,4,,,,,0,16,16,15,,,,,,,,,,,,,,4,1,0.78307437087,,,,,,PLC_L_D2S1,P6,60.0243438855,02,B,2015_Jan_08_1421,X,
stim/negf.jpg,stim/posf.jpg,stim/4.jpg,stim/2.jpg,stim/latef.jpg,CD,2,4,,,,,0,17,17,38,,,,,,,,,,,,,,4,1,0.833084325682,,,,,,PLC_L_D2S1,P6,60.0243438855,02,B,2015_Jan_08_1421,X,
stim/posf.jpg,stim/negf.jpg,stim/5.jpg,stim/1.jpg,stim/latef.jpg,AB,2,4,,,,,0,18,18,13,,,,,,,,,,,,,,4,1,0.833093140653,,,,,,PLC_L_D2S1,P6,60.0243438855,02,B,2015_Jan_08_1421,X,
stim/posf.jpg,stim/negf.jpg,stim/5.jpg,stim/1.jpg,stim/latef.jpg,AB,2,4,,,,,0,19,19,10,,,,,,,,,,,,,,4,1,0.616464104781,,,,,,PLC_L_D2S1,P6,60.0243438855,02,B,2015_Jan_08_1421,X,
stim/negf.jpg,stim/posf.jpg,stim/6.jpg,stim/3.jpg,stim/latef.jpg,EF,1,2,,,,,0,20,20,47,,,,,,,,,,,,,,2,1,1.11633901399,,,,,,PLC_L_D2S1,P6,60.0243438855,02,B,2015_Jan_08_1421,X,
stim/posf.jpg,stim/negf.jpg,stim/4.jpg,stim/2.jpg,stim/latef.jpg,CD,2,4,,,,,0,21,21,35,,,,,,,,,,,,,,4,1,0.883041877881,,,,,,PLC_L_D2S1,P6,60.0243438855,02,B,2015_Jan_08_1421,X,
stim/negf.jpg,stim/posf.jpg,stim/3.jpg,stim/6.jpg,stim/latef.jpg,EF,2,4,,,,,0,22,22,58,,,,,,,,,,,,,,2,0,0.63312699303,,,,,,PLC_L_D2S1,P6,60.0243438855,02,B,2015_Jan_08_1421,X,
stim/negf.jpg,stim/posf.jpg,stim/3.jpg,stim/6.jpg,stim/latef.jpg,EF,2,4,,,,,0,23,23,57,,,,,,,,,,,,,,2,0,0.549854028165,,,,,,PLC_L_D2S1,P6,60.0243438855,02,B,2015_Jan_08_1421,X,
stim/posf.jpg,stim/negf.jpg,stim/2.jpg,stim/4.jpg,stim/latef.jpg,CD,1,2,,,,,0,24,24,25,,,,,,,,,,,,,,2,1,0.866361242397,,,,,,PLC_L_D2S1,P6,60.0243438855,02,B,2015_Jan_08_1421,X,
stim/negf.jpg,stim/posf.jpg,stim/4.jpg,stim/2.jpg,stim/latef.jpg,CD,2,4,,,,,0,25,25,39,,,,,,,,,,,,,,4,1,1.04969253164,,,,,,PLC_L_D2S1,P6,60.0243438855,02,B,2015_Jan_08_1421,X,
stim/posf.jpg,stim/negf.jpg,stim/5.jpg,stim/1.jpg,stim/latef.jpg,AB,2,4,,,,,0,26,26,12,,,,,,,,,,,,,,4,1,0.982997421072,,,,,,PLC_L_D2S1,P6,60.0243438855,02,B,2015_Jan_08_1421,X,
stim/negf.jpg,stim/posf.jpg,stim/2.jpg,stim/4.jpg,stim/latef.jpg,CD,1,2,,,,,0,27,27,29,,,,,,,,,,,,,,2,1,0.849726627619,,,,,,PLC_L_D2S1,P6,60.0243438855,02,B,2015_Jan_08_1421,X,
stim/posf.jpg,stim/negf.jpg,stim/6.jpg,stim/3.jpg,stim/latef.jpg,EF,1,2,,,,,0,28,28,44,,,,,,,,,,,,,,4,0,0.949681331719,,,,,,PLC_L_D2S1,P6,60.0243438855,02,B,2015_Jan_08_1421,X,
stim/posf.jpg,stim/negf.jpg,stim/6.jpg,stim/3.jpg,stim/latef.jpg,EF,1,2,,,,,0,29,29,41,,,,,,,,,,,,,,4,0,0.483149651506,,,,,,PLC_L_D2S1,P6,60.0243438855,02,B,2015_Jan_08_1421,X,
stim/negf.jpg,stim/posf.jpg,stim/1.jpg,stim/5.jpg,stim/latef.jpg,AB,1,2,,,,,0,30,30,9,,,,,,,,,,,,,,2,1,0.833011051045,,,,,,PLC_L_D2S1,P6,60.0243438855,02,B,2015_Jan_08_1421,X,
stim/posf.jpg,stim/negf.jpg,stim/1.jpg,stim/5.jpg,stim/latef.jpg,AB,1,2,,,,,0,31,31,3,,,,,,,,,,,,,,2,1,0.516509364591,,,,,,PLC_L_D2S1,P6,60.0243438855,02,B,2015_Jan_08_1421,X,
stim/posf.jpg,stim/negf.jpg,stim/3.jpg,stim/6.jpg,stim/latef.jpg,EF,2,4,,,,,0,32,32,52,,,,,,,,,,,,,,2,0,0.983006082661,,,,,,PLC_L_D2S1,P6,60.0243438855,02,B,2015_Jan_08_1421,X,
stim/posf.jpg,stim/negf.jpg,stim/2.jpg,stim/4.jpg,stim/latef.jpg,CD,1,2,,,,,0,33,33,20,,,,,,,,,,,,,,2,1,0.8997184352,,,,,,PLC_L_D2S1,P6,60.0243438855,02,B,2015_Jan_08_1421,X,
stim/posf.jpg,stim/negf.jpg,stim/3.jpg,stim/6.jpg,stim/latef.jpg,EF,2,4,,,,,0,34,34,51,,,,,,,,,,,,,,4,1,0.933038437305,,,,,,PLC_L_D2S1,P6,60.0243438855,02,B,2015_Jan_08_1421,X,
stim/posf.jpg,stim/negf.jpg,stim/3.jpg,stim/6.jpg,stim/latef.jpg,EF,2,4,,,,,0,35,35,54,,,,,,,,,,,,,,4,1,0.583158496553,,,,,,PLC_L_D2S1,P6,60.0243438855,02,B,2015_Jan_08_1421,X,
stim/negf.jpg,stim/posf.jpg,stim/3.jpg,stim/6.jpg,stim/latef.jpg,EF,2,4,,,,,0,36,36,56,,,,,,,,,,,,,,4,1,0.616465737852,,,,,,PLC_L_D2S1,P6,60.0243438855,02,B,2015_Jan_08_1421,X,
stim/posf.jpg,stim/negf.jpg,stim/4.jpg,stim/2.jpg,stim/latef.jpg,CD,2,4,,,,,0,37,37,36,,,,,,,,,,,,,,4,1,0.749756693559,,,,,,PLC_L_D2S1,P6,60.0243438855,02,B,2015_Jan_08_1421,X,
stim/posf.jpg,stim/negf.jpg,stim/6.jpg,stim/3.jpg,stim/latef.jpg,EF,1,2,,,,,0,38,38,40,,,,,,,,,,,,,,4,0,0.683089128653,,,,,,PLC_L_D2S1,P6,60.0243438855,02,B,2015_Jan_08_1421,X,
stim/negf.jpg,stim/posf.jpg,stim/5.jpg,stim/1.jpg,stim/latef.jpg,AB,2,4,,,,,0,39,39,18,,,,,,,,,,,,,,4,1,0.899707791671,,,,,,PLC_L_D2S1,P6,60.0243438855,02,B,2015_Jan_08_1421,X,
stim/posf.jpg,stim/negf.jpg,stim/2.jpg,stim/4.jpg,stim/latef.jpg,CD,1,2,,,,,0,40,40,24,,,,,,,,,,,,,,2,1,1.08297785731,,,,,,PLC_L_D2S1,P6,60.0243438855,02,B,2015_Jan_08_1421,X,
stim/posf.jpg,stim/negf.jpg,stim/6.jpg,stim/3.jpg,stim/latef.jpg,EF,1,2,,,,,0,41,41,42,,,,,,,,,,,,,,2,1,1.21627472575,,,,,,PLC_L_D2S1,P6,60.0243438855,02,B,2015_Jan_08_1421,X,
stim/posf.jpg,stim/negf.jpg,stim/4.jpg,stim/2.jpg,stim/latef.jpg,CD,2,4,,,,,0,42,42,31,,,,,,,,,,,,,,4,1,0.883086175292,,,,,,PLC_L_D2S1,P6,60.0243438855,02,B,2015_Jan_08_1421,X,
stim/posf.jpg,stim/negf.jpg,stim/2.jpg,stim/4.jpg,stim/latef.jpg,CD,1,2,,,,,0,43,43,22,,,,,,,,,,,,,,2,1,0.933023456966,,,,,,PLC_L_D2S1,P6,60.0243438855,02,B,2015_Jan_08_1421,X,
stim/posf.jpg,stim/negf.jpg,stim/2.jpg,stim/4.jpg,stim/latef.jpg,CD,1,2,,,,,0,44,44,21,,,,,,,,,,,,,,2,1,0.58312498703,,,,,,PLC_L_D2S1,P6,60.0243438855,02,B,2015_Jan_08_1421,X,
stim/posf.jpg,stim/negf.jpg,stim/1.jpg,stim/5.jpg,stim/latef.jpg,AB,1,2,,,,,0,45,45,0,,,,,,,,,,,,,,2,1,0.649773490425,,,,,,PLC_L_D2S1,P6,60.0243438855,02,B,2015_Jan_08_1421,X,
stim/posf.jpg,stim/negf.jpg,stim/1.jpg,stim/5.jpg,stim/latef.jpg,AB,1,2,,,,,0,46,46,1,,,,,,,,,,,,,,2,1,0.699745610935,,,,,,PLC_L_D2S1,P6,60.0243438855,02,B,2015_Jan_08_1421,X,
stim/negf.jpg,stim/posf.jpg,stim/1.jpg,stim/5.jpg,stim/latef.jpg,AB,1,2,,,,,0,47,47,8,,,,,,,,,,,,,,2,1,0.499856701829,,,,,,PLC_L_D2S1,P6,60.0243438855,02,B,2015_Jan_08_1421,X,
stim/posf.jpg,stim/negf.jpg,stim/3.jpg,stim/6.jpg,stim/latef.jpg,EF,2,4,,,,,0,48,48,55,,,,,,,,,,,,,,2,0,0.783088301592,,,,,,PLC_L_D2S1,P6,60.0243438855,02,B,2015_Jan_08_1421,X,
stim/negf.jpg,stim/posf.jpg,stim/3.jpg,stim/6.jpg,stim/latef.jpg,EF,2,4,,,,,0,49,49,59,,,,,,,,,,,,,,4,1,0.649789276772,,,,,,PLC_L_D2S1,P6,60.0243438855,02,B,2015_Jan_08_1421,X,
stim/posf.jpg,stim/negf.jpg,stim/6.jpg,stim/3.jpg,stim/latef.jpg,EF,1,2,,,,,0,50,50,43,,,,,,,,,,,,,,2,1,0.766412469079,,,,,,PLC_L_D2S1,P6,60.0243438855,02,B,2015_Jan_08_1421,X,
stim/posf.jpg,stim/negf.jpg,stim/4.jpg,stim/2.jpg,stim/latef.jpg,CD,2,4,,,,,0,51,51,34,,,,,,,,,,,,,,4,1,0.866382905392,,,,,,PLC_L_D2S1,P6,60.0243438855,02,B,2015_Jan_08_1421,X,
stim/posf.jpg,stim/negf.jpg,stim/6.jpg,stim/3.jpg,stim/latef.jpg,EF,1,2,,,,,0,52,52,45,,,,,,,,,,,,,,2,1,1.16632251788,,,,,,PLC_L_D2S1,P6,60.0243438855,02,B,2015_Jan_08_1421,X,
stim/negf.jpg,stim/posf.jpg,stim/6.jpg,stim/3.jpg,stim/latef.jpg,EF,1,2,,,,,0,53,53,46,,,,,,,,,,,,,,4,0,0.833084632446,,,,,,PLC_L_D2S1,P6,60.0243438855,02,B,2015_Jan_08_1421,X,
stim/posf.jpg,stim/negf.jpg,stim/1.jpg,stim/5.jpg,stim/latef.jpg,AB,1,2,,,,,0,54,54,2,,,,,,,,,,,,,,2,1,1.29957690844,,,,,,PLC_L_D2S1,P6,60.0243438855,02,B,2015_Jan_08_1421,X,
stim/posf.jpg,stim/negf.jpg,stim/1.jpg,stim/5.jpg,stim/latef.jpg,AB,1,2,,,,,0,55,55,4,,,,,,,,,,,,,,2,1,0.666423368245,,,,,,PLC_L_D2S1,P6,60.0243438855,02,B,2015_Jan_08_1421,X,
stim/negf.jpg,stim/posf.jpg,stim/6.jpg,stim/3.jpg,stim/latef.jpg,EF,1,2,,,,,0,56,56,49,,,,,,,,,,,,,,2,1,1.16629528199,,,,,,PLC_L_D2S1,P6,60.0243438855,02,B,2015_Jan_08_1421,X,
stim/posf.jpg,stim/negf.jpg,stim/1.jpg,stim/5.jpg,stim/latef.jpg,AB,1,2,,,,,0,57,57,6,,,,,,,,,,,,,,2,1,1.08298777603,,,,,,PLC_L_D2S1,P6,60.0243438855,02,B,2015_Jan_08_1421,X,
stim/posf.jpg,stim/negf.jpg,stim/3.jpg,stim/6.jpg,stim/latef.jpg,EF,2,4,,,,,0,58,58,50,,,,,,,,,,,,,,None,0,,,,,,,PLC_L_D2S1,P6,60.0243438855,02,B,2015_Jan_08_1421,X,
stim/negf.jpg,stim/posf.jpg,stim/4.jpg,stim/2.jpg,stim/latef.jpg,CD,2,4,,,,,0,59,59,37,,,,,,,,,,,,,,4,1,1.06635349208,,,,,,PLC_L_D2S1,P6,60.0243438855,02,B,2015_Jan_08_1421,X,
,,,,,,,,,,,,,,,,,,,,,,,,,,,,,,,,0.99375,1.0,1,0,0,PLC_L_D2S1,P6,60.0243438855,02,B,2015_Jan_08_1421,X,
stim/posf.jpg,stim/negf.jpg,stim/1.jpg,stim/5.jpg,stim/latef.jpg,AB,1,2,,,,,,,,,0,0,0,3,,,,,,,,,,2,1,0.966352442463,,,,,,PLC_L_D2S1,P6,60.0243438855,02,B,2015_Jan_08_1421,X,
stim/negf.jpg,stim/posf.jpg,stim/3.jpg,stim/6.jpg,stim/latef.jpg,EF,2,4,,,,,,,,,0,1,1,57,,,,,,,,,,2,0,1.03299224216,,,,,,PLC_L_D2S1,P6,60.0243438855,02,B,2015_Jan_08_1421,X,
stim/posf.jpg,stim/negf.jpg,stim/3.jpg,stim/6.jpg,stim/latef.jpg,EF,2,4,,,,,,,,,0,2,2,53,,,,,,,,,,4,1,0.649826942655,,,,,,PLC_L_D2S1,P6,60.0243438855,02,B,2015_Jan_08_1421,X,
stim/negf.jpg,stim/posf.jpg,stim/5.jpg,stim/1.jpg,stim/latef.jpg,AB,2,4,,,,,,,,,0,3,3,18,,,,,,,,,,4,1,0.833112012692,,,,,,PLC_L_D2S1,P6,60.0243438855,02,B,2015_Jan_08_1421,X,
stim/posf.jpg,stim/negf.jpg,stim/5.jpg,stim/1.jpg,stim/latef.jpg,AB,2,4,,,,,,,,,0,4,4,13,,,,,,,,,,4,1,0.616501130067,,,,,,PLC_L_D2S1,P6,60.0243438855,02,B,2015_Jan_08_1421,X,
stim/negf.jpg,stim/posf.jpg,stim/6.jpg,stim/3.jpg,stim/latef.jpg,EF,1,2,,,,,,,,,0,5,5,48,,,,,,,,,,2,1,1.08295904241,,,,,,PLC_L_D2S1,P6,60.0243438855,02,B,2015_Jan_08_1421,X,
stim/posf.jpg,stim/negf.jpg,stim/6.jpg,stim/3.jpg,stim/latef.jpg,EF,1,2,,,,,,,,,0,6,6,40,,,,,,,,,,4,0,0.616472979902,,,,,,PLC_L_D2S1,P6,60.0243438855,02,B,2015_Jan_08_1421,X,
stim/posf.jpg,stim/negf.jpg,stim/5.jpg,stim/1.jpg,stim/latef.jpg,AB,2,4,,,,,,,,,0,7,7,14,,,,,,,,,,4,1,0.716393717341,,,,,,PLC_L_D2S1,P6,60.0243438855,02,B,2015_Jan_08_1421,X,
stim/posf.jpg,stim/negf.jpg,stim/1.jpg,stim/5.jpg,stim/latef.jpg,AB,1,2,,,,,,,,,0,8,8,4,,,,,,,,,,2,1,0.76639123014,,,,,,PLC_L_D2S1,P6,60.0243438855,02,B,2015_Jan_08_1421,X,
stim/posf.jpg,stim/negf.jpg,stim/6.jpg,stim/3.jpg,stim/latef.jpg,EF,1,2,,,,,,,,,0,9,9,41,,,,,,,,,,2,1,0.799690823377,,,,,,PLC_L_D2S1,P6,60.0243438855,02,B,2015_Jan_08_1421,X,
stim/posf.jpg,stim/negf.jpg,stim/2.jpg,stim/4.jpg,stim/latef.jpg,CD,1,2,,,,,,,,,0,10,10,22,,,,,,,,,,2,1,1.03298373396,,,,,,PLC_L_D2S1,P6,60.0243438855,02,B,2015_Jan_08_1421,X,
stim/posf.jpg,stim/negf.jpg,stim/6.jpg,stim/3.jpg,stim/latef.jpg,EF,1,2,,,,,,,,,0,11,11,44,,,,,,,,,,2,1,0.883042416222,,,,,,PLC_L_D2S1,P6,60.0243438855,02,B,2015_Jan_08_1421,X,
stim/negf.jpg,stim/posf.jpg,stim/5.jpg,stim/1.jpg,stim/latef.jpg,AB,2,4,,,,,,,,,0,12,12,19,,,,,,,,,,4,1,0.633094112075,,,,,,PLC_L_D2S1,P6,60.0243438855,02,B,2015_Jan_08_1421,X,
stim/posf.jpg,stim/negf.jpg,stim/2.jpg,stim/4.jpg,stim/latef.jpg,CD,1,2,,,,,,,,,0,13,13,24,,,,,,,,,,2,1,0.79974605003,,,,,,PLC_L_D2S1,P6,60.0243438855,02,B,2015_Jan_08_1421,X,
stim/posf.jpg,stim/negf.jpg,stim/5.jpg,stim/1.jpg,stim/latef.jpg,AB,2,4,,,,,,,,,0,14,14,17,,,,,,,,,,4,1,0.749729710303,,,,,,PLC_L_D2S1,P6,60.0243438855,02,B,2015_Jan_08_1421,X,
stim/posf.jpg,stim/negf.jpg,stim/2.jpg,stim/4.jpg,stim/latef.jpg,CD,1,2,,,,,,,,,0,15,15,23,,,,,,,,,,2,1,0.599755902587,,,,,,PLC_L_D2S1,P6,60.0243438855,02,B,2015_Jan_08_1421,X,
stim/posf.jpg,stim/negf.jpg,stim/2.jpg,stim/4.jpg,stim/latef.jpg,CD,1,2,,,,,,,,,0,16,16,21,,,,,,,,,,2,1,0.549804302223,,,,,,PLC_L_D2S1,P6,60.0243438855,02,B,2015_Jan_08_1421,X,
stim/posf.jpg,stim/negf.jpg,stim/4.jpg,stim/2.jpg,stim/latef.jpg,CD,2,4,,,,,,,,,0,17,17,36,,,,,,,,,,4,1,0.766388177532,,,,,,PLC_L_D2S1,P6,60.0243438855,02,B,2015_Jan_08_1421,X,
stim/posf.jpg,stim/negf.jpg,stim/2.jpg,stim/4.jpg,stim/latef.jpg,CD,1,2,,,,,,,,,0,18,18,25,,,,,,,,,,2,1,0.516472375396,,,,,,PLC_L_D2S1,P6,60.0243438855,02,B,2015_Jan_08_1421,X,
stim/negf.jpg,stim/posf.jpg,stim/2.jpg,stim/4.jpg,stim/latef.jpg,CD,1,2,,,,,,,,,0,19,19,29,,,,,,,,,,2,1,0.533160270976,,,,,,PLC_L_D2S1,P6,60.0243438855,02,B,2015_Jan_08_1421,X,
stim/posf.jpg,stim/negf.jpg,stim/5.jpg,stim/1.jpg,stim/latef.jpg,AB,2,4,,,,,,,,,0,20,20,15,,,,,,,,,,4,1,0.883094746656,,,,,,PLC_L_D2S1,P6,60.0243438855,02,B,2015_Jan_08_1421,X,
stim/posf.jpg,stim/negf.jpg,stim/4.jpg,stim/2.jpg,stim/latef.jpg,CD,2,4,,,,,,,,,0,21,21,32,,,,,,,,,,4,1,0.616443455312,,,,,,PLC_L_D2S1,P6,60.0243438855,02,B,2015_Jan_08_1421,X,
stim/negf.jpg,stim/posf.jpg,stim/3.jpg,stim/6.jpg,stim/latef.jpg,EF,2,4,,,,,,,,,0,22,22,58,,,,,,,,,,4,1,1.23292189984,,,,,,PLC_L_D2S1,P6,60.0243438855,02,B,2015_Jan_08_1421,X,
stim/negf.jpg,stim/posf.jpg,stim/4.jpg,stim/2.jpg,stim/latef.jpg,CD,2,4,,,,,,,,,0,23,23,37,,,,,,,,,,4,1,1.06638097458,,,,,,PLC_L_D2S1,P6,60.0243438855,02,B,2015_Jan_08_1421,X,
stim/negf.jpg,stim/posf.jpg,stim/3.jpg,stim/6.jpg,stim/latef.jpg,EF,2,4,,,,,,,,,0,24,24,56,,,,,,,,,,4,1,0.999656555966,,,,,,PLC_L_D2S1,P6,60.0243438855,02,B,2015_Jan_08_1421,X,
stim/posf.jpg,stim/negf.jpg,stim/1.jpg,stim/5.jpg,stim/latef.jpg,AB,1,2,,,,,,,,,0,25,25,6,,,,,,,,,,2,1,1.04964213502,,,,,,PLC_L_D2S1,P6,60.0243438855,02,B,2015_Jan_08_1421,X,
stim/negf.jpg,stim/posf.jpg,stim/2.jpg,stim/4.jpg,stim/latef.jpg,CD,1,2,,,,,,,,,0,26,26,28,,,,,,,,,,4,0,0.899689439929,,,,,,PLC_L_D2S1,P6,60.0243438855,02,B,2015_Jan_08_1421,X,
stim/posf.jpg,stim/negf.jpg,stim/6.jpg,stim/3.jpg,stim/latef.jpg,EF,1,2,,,,,,,,,0,27,27,43,,,,,,,,,,2,1,0.883023144187,,,,,,PLC_L_D2S1,P6,60.0243438855,02,B,2015_Jan_08_1421,X,
stim/posf.jpg,stim/negf.jpg,stim/6.jpg,stim/3.jpg,stim/latef.jpg,EF,1,2,,,,,,,,,0,28,28,42,,,,,,,,,,2,1,0.699803911249,,,,,,PLC_L_D2S1,P6,60.0243438855,02,B,2015_Jan_08_1421,X,
stim/posf.jpg,stim/negf.jpg,stim/3.jpg,stim/6.jpg,stim/latef.jpg,EF,2,4,,,,,,,,,0,29,29,50,,,,,,,,,,2,0,0.616410057067,,,,,,PLC_L_D2S1,P6,60.0243438855,02,B,2015_Jan_08_1421,X,
stim/negf.jpg,stim/posf.jpg,stim/2.jpg,stim/4.jpg,stim/latef.jpg,CD,1,2,,,,,,,,,0,30,30,27,,,,,,,,,,2,1,0.933014521695,,,,,,PLC_L_D2S1,P6,60.0243438855,02,B,2015_Jan_08_1421,X,
stim/posf.jpg,stim/negf.jpg,stim/3.jpg,stim/6.jpg,stim/latef.jpg,EF,2,4,,,,,,,,,0,31,31,52,,,,,,,,,,2,0,0.733129293764,,,,,,PLC_L_D2S1,P6,60.0243438855,02,B,2015_Jan_08_1421,X,
stim/posf.jpg,stim/negf.jpg,stim/6.jpg,stim/3.jpg,stim/latef.jpg,EF,1,2,,,,,,,,,0,32,32,45,,,,,,,,,,2,1,0.73310927587,,,,,,PLC_L_D2S1,P6,60.0243438855,02,B,2015_Jan_08_1421,X,
stim/posf.jpg,stim/negf.jpg,stim/4.jpg,stim/2.jpg,stim/latef.jpg,CD,2,4,,,,,,,,,0,33,33,30,,,,,,,,,,4,1,0.883068500237,,,,,,PLC_L_D2S1,P6,60.0243438855,02,B,2015_Jan_08_1421,X,
stim/posf.jpg,stim/negf.jpg,stim/1.jpg,stim/5.jpg,stim/latef.jpg,AB,1,2,,,,,,,,,0,34,34,7,,,,,,,,,,2,1,0.649806070632,,,,,,PLC_L_D2S1,P6,60.0243438855,02,B,2015_Jan_08_1421,X,
stim/posf.jpg,stim/negf.jpg,stim/4.jpg,stim/2.jpg,stim/latef.jpg,CD,2,4,,,,,,,,,0,35,35,33,,,,,,,,,,4,1,0.633127447162,,,,,,PLC_L_D2S1,P6,60.0243438855,02,B,2015_Jan_08_1421,X,
stim/negf.jpg,stim/posf.jpg,stim/6.jpg,stim/3.jpg,stim/latef.jpg,EF,1,2,,,,,,,,,0,36,36,46,,,,,,,,,,2,1,0.766458125879,,,,,,PLC_L_D2S1,P6,60.0243438855,02,B,2015_Jan_08_1421,X,
stim/posf.jpg,stim/negf.jpg,stim/5.jpg,stim/1.jpg,stim/latef.jpg,AB,2,4,,,,,,,,,0,37,37,10,,,,,,,,,,4,1,1.04961627657,,,,,,PLC_L_D2S1,P6,60.0243438855,02,B,2015_Jan_08_1421,X,
stim/negf.jpg,stim/posf.jpg,stim/3.jpg,stim/6.jpg,stim/latef.jpg,EF,2,4,,,,,,,,,0,38,38,59,,,,,,,,,,2,0,1.14960689619,,,,,,PLC_L_D2S1,P6,60.0243438855,02,B,2015_Jan_08_1421,X,
stim/posf.jpg,stim/negf.jpg,stim/1.jpg,stim/5.jpg,stim/latef.jpg,AB,1,2,,,,,,,,,0,39,39,0,,,,,,,,,,2,1,0.866393073737,,,,,,PLC_L_D2S1,P6,60.0243438855,02,B,2015_Jan_08_1421,X,
stim/posf.jpg,stim/negf.jpg,stim/4.jpg,stim/2.jpg,stim/latef.jpg,CD,2,4,,,,,,,,,0,40,40,34,,,,,,,,,,4,1,0.649777730994,,,,,,PLC_L_D2S1,P6,60.0243438855,02,B,2015_Jan_08_1421,X,
stim/posf.jpg,stim/negf.jpg,stim/5.jpg,stim/1.jpg,stim/latef.jpg,AB,2,4,,,,,,,,,0,41,41,16,,,,,,,,,,4,1,0.866374779137,,,,,,PLC_L_D2S1,P6,60.0243438855,02,B,2015_Jan_08_1421,X,
stim/negf.jpg,stim/posf.jpg,stim/6.jpg,stim/3.jpg,stim/latef.jpg,EF,1,2,,,,,,,,,0,42,42,49,,,,,,,,,,4,0,0.716422926143,,,,,,PLC_L_D2S1,P6,60.0243438855,02,B,2015_Jan_08_1421,X,
stim/posf.jpg,stim/negf.jpg,stim/1.jpg,stim/5.jpg,stim/latef.jpg,AB,1,2,,,,,,,,,0,43,43,2,,,,,,,,,,2,1,0.649765926571,,,,,,PLC_L_D2S1,P6,60.0243438855,02,B,2015_Jan_08_1421,X,
stim/negf.jpg,stim/posf.jpg,stim/4.jpg,stim/2.jpg,stim/latef.jpg,CD,2,4,,,,,,,,,0,44,44,38,,,,,,,,,,4,1,0.749742609454,,,,,,PLC_L_D2S1,P6,60.0243438855,02,B,2015_Jan_08_1421,X,
stim/posf.jpg,stim/negf.jpg,stim/3.jpg,stim/6.jpg,stim/latef.jpg,EF,2,4,,,,,,,,,0,45,45,54,,,,,,,,,,2,0,1.18296174916,,,,,,PLC_L_D2S1,P6,60.0243438855,02,B,2015_Jan_08_1421,X,
stim/posf.jpg,stim/negf.jpg,stim/3.jpg,stim/6.jpg,stim/latef.jpg,EF,2,4,,,,,,,,,0,46,46,51,,,,,,,,,,2,0,0.683143158322,,,,,,PLC_L_D2S1,P6,60.0243438855,02,B,2015_Jan_08_1421,X,
stim/posf.jpg,stim/negf.jpg,stim/3.jpg,stim/6.jpg,stim/latef.jpg,EF,2,4,,,,,,,,,0,47,47,55,,,,,,,,,,2,0,0.433210619469,,,,,,PLC_L_D2S1,P6,60.0243438855,02,B,2015_Jan_08_1421,X,
stim/posf.jpg,stim/negf.jpg,stim/1.jpg,stim/5.jpg,stim/latef.jpg,AB,1,2,,,,,,,,,0,48,48,1,,,,,,,,,,2,1,0.949660294284,,,,,,PLC_L_D2S1,P6,60.0243438855,02,B,2015_Jan_08_1421,X,
stim/negf.jpg,stim/posf.jpg,stim/1.jpg,stim/5.jpg,stim/latef.jpg,AB,1,2,,,,,,,,,0,49,49,9,,,,,,,,,,2,1,0.533140042557,,,,,,PLC_L_D2S1,P6,60.0243438855,02,B,2015_Jan_08_1421,X,
stim/posf.jpg,stim/negf.jpg,stim/5.jpg,stim/1.jpg,stim/latef.jpg,AB,2,4,,,,,,,,,0,50,50,11,,,,,,,,,,4,1,0.849657903324,,,,,,PLC_L_D2S1,P6,60.0243438855,02,B,2015_Jan_08_1421,X,
stim/posf.jpg,stim/negf.jpg,stim/2.jpg,stim/4.jpg,stim/latef.jpg,CD,1,2,,,,,,,,,0,51,51,20,,,,,,,,,,2,1,0.516497674454,,,,,,PLC_L_D2S1,P6,60.0243438855,02,B,2015_Jan_08_1421,X,
stim/posf.jpg,stim/negf.jpg,stim/4.jpg,stim/2.jpg,stim/latef.jpg,CD,2,4,,,,,,,,,0,52,52,35,,,,,,,,,,4,1,0.649788464749,,,,,,PLC_L_D2S1,P6,60.0243438855,02,B,2015_Jan_08_1421,X,
stim/negf.jpg,stim/posf.jpg,stim/6.jpg,stim/3.jpg,stim/latef.jpg,EF,1,2,,,,,,,,,0,53,53,47,,,,,,,,,,4,0,0.833054494327,,,,,,PLC_L_D2S1,P6,60.0243438855,02,B,2015_Jan_08_1421,X,
stim/negf.jpg,stim/posf.jpg,stim/4.jpg,stim/2.jpg,stim/latef.jpg,CD,2,4,,,,,,,,,0,54,54,39,,,,,,,,,,4,1,0.883036070406,,,,,,PLC_L_D2S1,P6,60.0243438855,02,B,2015_Jan_08_1421,X,
stim/posf.jpg,stim/negf.jpg,stim/2.jpg,stim/4.jpg,stim/latef.jpg,CD,1,2,,,,,,,,,0,55,55,26,,,,,,,,,,2,1,0.783077787385,,,,,,PLC_L_D2S1,P6,60.0243438855,02,B,2015_Jan_08_1421,X,
stim/posf.jpg,stim/negf.jpg,stim/5.jpg,stim/1.jpg,stim/latef.jpg,AB,2,4,,,,,,,,,0,56,56,12,,,,,,,,,,4,1,0.866387933926,,,,,,PLC_L_D2S1,P6,60.0243438855,02,B,2015_Jan_08_1421,X,
stim/posf.jpg,stim/negf.jpg,stim/1.jpg,stim/5.jpg,stim/latef.jpg,AB,1,2,,,,,,,,,0,57,57,5,,,,,,,,,,2,1,0.933027532124,,,,,,PLC_L_D2S1,P6,60.0243438855,02,B,2015_Jan_08_1421,X,
stim/negf.jpg,stim/posf.jpg,stim/1.jpg,stim/5.jpg,stim/latef.jpg,AB,1,2,,,,,,,,,0,58,58,8,,,,,,,,,,2,1,0.616459196547,,,,,,PLC_L_D2S1,P6,60.0243438855,02,B,2015_Jan_08_1421,X,
stim/posf.jpg,stim/negf.jpg,stim/4.jpg,stim/2.jpg,stim/latef.jpg,CD,2,4,,,,,,,,,0,59,59,31,,,,,,,,,,4,1,0.883022253968,,,,,,PLC_L_D2S1,P6,60.0243438855,02,B,2015_Jan_08_1421,X,
,,,,,,,,,,,,,,,,,,,,,,,,,,,,,,,,0.99375,0.994140625,1,0,0,PLC_L_D2S1,P6,60.0243438855,02,B,2015_Jan_08_1421,X,
stim/posf.jpg,stim/negf.jpg,stim/3.jpg,stim/6.jpg,stim/latef.jpg,EF,2,4,,,,,,,,,,,,,0,0,0,51,,,,,,4,1,1.28291786678,,,,,,PLC_L_D2S1,P6,60.0243438855,02,B,2015_Jan_08_1421,X,
stim/posf.jpg,stim/negf.jpg,stim/5.jpg,stim/1.jpg,stim/latef.jpg,AB,2,4,,,,,,,,,,,,,0,1,1,16,,,,,,4,1,0.966339462109,,,,,,PLC_L_D2S1,P6,60.0243438855,02,B,2015_Jan_08_1421,X,
stim/posf.jpg,stim/negf.jpg,stim/2.jpg,stim/4.jpg,stim/latef.jpg,CD,1,2,,,,,,,,,,,,,0,2,2,26,,,,,,2,1,0.749712967572,,,,,,PLC_L_D2S1,P6,60.0243438855,02,B,2015_Jan_08_1421,X,
stim/negf.jpg,stim/posf.jpg,stim/3.jpg,stim/6.jpg,stim/latef.jpg,EF,2,4,,,,,,,,,,,,,0,3,3,56,,,,,,4,1,0.883021905099,,,,,,PLC_L_D2S1,P6,60.0243438855,02,B,2015_Jan_08_1421,X,
stim/negf.jpg,stim/posf.jpg,stim/6.jpg,stim/3.jpg,stim/latef.jpg,EF,1,2,,,,,,,,,,,,,0,4,4,48,,,,,,4,0,0.749756588296,,,,,,PLC_L_D2S1,P6,60.0243438855,02,B,2015_Jan_08_1421,X,
stim/posf.jpg,stim/negf.jpg,stim/1.jpg,stim/5.jpg,stim/latef.jpg,AB,1,2,,,,,,,,,,,,,0,5,5,1,,,,,,2,1,0.866400357892,,,,,,PLC_L_D2S1,P6,60.0243438855,02,B,2015_Jan_08_1421,X,
stim/posf.jpg,stim/negf.jpg,stim/4.jpg,stim/2.jpg,stim/latef.jpg,CD,2,4,,,,,,,,,,,,,0,6,6,32,,,,,,4,1,1.11629013917,,,,,,PLC_L_D2S1,P6,60.0243438855,02,B,2015_Jan_08_1421,X,
stim/posf.jpg,stim/negf.jpg,stim/4.jpg,stim/2.jpg,stim/latef.jpg,CD,2,4,,,,,,,,,,,,,0,7,7,33,,,,,,4,1,0.683093212833,,,,,,PLC_L_D2S1,P6,60.0243438855,02,B,2015_Jan_08_1421,X,
stim/posf.jpg,stim/negf.jpg,stim/1.jpg,stim/5.jpg,stim/latef.jpg,AB,1,2,,,,,,,,,,,,,0,8,8,3,,,,,,2,1,0.783091700062,,,,,,PLC_L_D2S1,P6,60.0243438855,02,B,2015_Jan_08_1421,X,
stim/posf.jpg,stim/negf.jpg,stim/1.jpg,stim/5.jpg,stim/latef.jpg,AB,1,2,,,,,,,,,,,,,0,9,9,4,,,,,,2,1,0.533154252976,,,,,,PLC_L_D2S1,P6,60.0243438855,02,B,2015_Jan_08_1421,X,
stim/posf.jpg,stim/negf.jpg,stim/5.jpg,stim/1.jpg,stim/latef.jpg,AB,2,4,,,,,,,,,,,,,0,10,10,10,,,,,,4,1,0.816399272186,,,,,,PLC_L_D2S1,P6,60.0243438855,02,B,2015_Jan_08_1421,X,
stim/posf.jpg,stim/negf.jpg,stim/4.jpg,stim/2.jpg,stim/latef.jpg,CD,2,4,,,,,,,,,,,,,0,11,11,34,,,,,,4,1,0.649778001669,,,,,,PLC_L_D2S1,P6,60.0243438855,02,B,2015_Jan_08_1421,X,
stim/negf.jpg,stim/posf.jpg,stim/2.jpg,stim/4.jpg,stim/latef.jpg,CD,1,2,,,,,,,,,,,,,0,12,12,27,,,,,,2,1,0.716436120029,,,,,,PLC_L_D2S1,P6,60.0243438855,02,B,2015_Jan_08_1421,X,
stim/negf.jpg,stim/posf.jpg,stim/4.jpg,stim/2.jpg,stim/latef.jpg,CD,2,4,,,,,,,,,,,,,0,13,13,37,,,,,,4,1,0.599798843617,,,,,,PLC_L_D2S1,P6,60.0243438855,02,B,2015_Jan_08_1421,X,
stim/negf.jpg,stim/posf.jpg,stim/6.jpg,stim/3.jpg,stim/latef.jpg,EF,1,2,,,,,,,,,,,,,0,14,14,46,,,,,,2,1,1.28290930444,,,,,,PLC_L_D2S1,P6,60.0243438855,02,B,2015_Jan_08_1421,X,
stim/posf.jpg,stim/negf.jpg,stim/4.jpg,stim/2.jpg,stim/latef.jpg,CD,2,4,,,,,,,,,,,,,0,15,15,35,,,,,,4,1,0.716431849385,,,,,,PLC_L_D2S1,P6,60.0243438855,02,B,2015_Jan_08_1421,X,
stim/posf.jpg,stim/negf.jpg,stim/4.jpg,stim/2.jpg,stim/latef.jpg,CD,2,4,,,,,,,,,,,,,0,16,16,36,,,,,,4,1,0.683104250345,,,,,,PLC_L_D2S1,P6,60.0243438855,02,B,2015_Jan_08_1421,X,
stim/posf.jpg,stim/negf.jpg,stim/3.jpg,stim/6.jpg,stim/latef.jpg,EF,2,4,,,,,,,,,,,,,0,17,17,53,,,,,,2,0,0.916333795986,,,,,,PLC_L_D2S1,P6,60.0243438855,02,B,2015_Jan_08_1421,X,
stim/negf.jpg,stim/posf.jpg,stim/5.jpg,stim/1.jpg,stim/latef.jpg,AB,2,4,,,,,,,,,,,,,0,18,18,19,,,,,,4,1,0.59980493079,,,,,,PLC_L_D2S1,P6,60.0243438855,02,B,2015_Jan_08_1421,X,
stim/negf.jpg,stim/posf.jpg,stim/1.jpg,stim/5.jpg,stim/latef.jpg,AB,1,2,,,,,,,,,,,,,0,19,19,9,,,,,,2,1,0.899691650439,,,,,,PLC_L_D2S1,P6,60.0243438855,02,B,2015_Jan_08_1421,X,
stim/posf.jpg,stim/negf.jpg,stim/3.jpg,stim/6.jpg,stim/latef.jpg,EF,2,4,,,,,,,,,,,,,0,20,20,50,,,,,,2,0,0.599847880842,,,,,,PLC_L_D2S1,P6,60.0243438855,02,B,2015_Jan_08_1421,X,
stim/posf.jpg,stim/negf.jpg,stim/2.jpg,stim/4.jpg,stim/latef.jpg,CD,1,2,,,,,,,,,,,,,0,21,21,24,,,,,,2,1,0.599775361087,,,,,,PLC_L_D2S1,P6,60.0243438855,02,B,2015_Jan_08_1421,X,
stim/negf.jpg,stim/posf.jpg,stim/3.jpg,stim/6.jpg,stim/latef.jpg,EF,2,4,,,,,,,,,,,,,0,22,22,59,,,,,,4,1,0.899608165352,,,,,,PLC_L_D2S1,P6,60.0243438855,02,B,2015_Jan_08_1421,X,
stim/posf.jpg,stim/negf.jpg,stim/6.jpg,stim/3.jpg,stim/latef.jpg,EF,1,2,,,,,,,,,,,,,0,23,23,45,,,,,,2,1,0.683097330095,,,,,,PLC_L_D2S1,P6,60.0243438855,02,B,2015_Jan_08_1421,X,
stim/posf.jpg,stim/negf.jpg,stim/1.jpg,stim/5.jpg,stim/latef.jpg,AB,1,2,,,,,,,,,,,,,0,24,24,6,,,,,,2,1,0.983004407486,,,,,,PLC_L_D2S1,P6,60.0243438855,02,B,2015_Jan_08_1421,X,
stim/posf.jpg,stim/negf.jpg,stim/2.jpg,stim/4.jpg,stim/latef.jpg,CD,1,2,,,,,,,,,,,,,0,25,25,23,,,,,,2,1,0.799745968828,,,,,,PLC_L_D2S1,P6,60.0243438855,02,B,2015_Jan_08_1421,X,
stim/negf.jpg,stim/posf.jpg,stim/2.jpg,stim/4.jpg,stim/latef.jpg,CD,1,2,,,,,,,,,,,,,0,26,26,29,,,,,,2,1,0.716404243577,,,,,,PLC_L_D2S1,P6,60.0243438855,02,B,2015_Jan_08_1421,X,
stim/posf.jpg,stim/negf.jpg,stim/2.jpg,stim/4.jpg,stim/latef.jpg,CD,1,2,,,,,,,,,,,,,0,27,27,25,,,,,,2,1,0.583161753671,,,,,,PLC_L_D2S1,P6,60.0243438855,02,B,2015_Jan_08_1421,X,
stim/negf.jpg,stim/posf.jpg,stim/5.jpg,stim/1.jpg,stim/latef.jpg,AB,2,4,,,,,,,,,,,,,0,28,28,18,,,,,,4,1,0.833063029601,,,,,,PLC_L_D2S1,P6,60.0243438855,02,B,2015_Jan_08_1421,X,
stim/posf.jpg,stim/negf.jpg,stim/4.jpg,stim/2.jpg,stim/latef.jpg,CD,2,4,,,,,,,,,,,,,0,29,29,31,,,,,,4,1,0.916349937219,,,,,,PLC_L_D2S1,P6,60.0243438855,02,B,2015_Jan_08_1421,X,
stim/negf.jpg,stim/posf.jpg,stim/2.jpg,stim/4.jpg,stim/latef.jpg,CD,1,2,,,,,,,,,,,,,0,30,30,28,,,,,,2,1,0.766388045203,,,,,,PLC_L_D2S1,P6,60.0243438855,02,B,2015_Jan_08_1421,X,
stim/posf.jpg,stim/negf.jpg,stim/3.jpg,stim/6.jpg,stim/latef.jpg,EF,2,4,,,,,,,,,,,,,0,31,31,55,,,,,,4,1,1.14961514876,,,,,,PLC_L_D2S1,P6,60.0243438855,02,B,2015_Jan_08_1421,X,
stim/posf.jpg,stim/negf.jpg,stim/1.jpg,stim/5.jpg,stim/latef.jpg,AB,1,2,,,,,,,,,,,,,0,32,32,2,,,,,,2,1,1.24958460162,,,,,,PLC_L_D2S1,P6,60.0243438855,02,B,2015_Jan_08_1421,X,
stim/posf.jpg,stim/negf.jpg,stim/5.jpg,stim/1.jpg,stim/latef.jpg,AB,2,4,,,,,,,,,,,,,0,33,33,12,,,,,,4,1,0.849723229148,,,,,,PLC_L_D2S1,P6,60.0243438855,02,B,2015_Jan_08_1421,X,
stim/posf.jpg,stim/negf.jpg,stim/3.jpg,stim/6.jpg,stim/latef.jpg,EF,2,4,,,,,,,,,,,,,0,34,34,54,,,,,,4,1,1.08297115661,,,,,,PLC_L_D2S1,P6,60.0243438855,02,B,2015_Jan_08_1421,X,
stim/posf.jpg,stim/negf.jpg,stim/6.jpg,stim/3.jpg,stim/latef.jpg,EF,1,2,,,,,,,,,,,,,0,35,35,40,,,,,,2,1,1.08298137006,,,,,,PLC_L_D2S1,P6,60.0243438855,02,B,2015_Jan_08_1421,X,
stim/posf.jpg,stim/negf.jpg,stim/1.jpg,stim/5.jpg,stim/latef.jpg,AB,1,2,,,,,,,,,,,,,0,36,36,7,,,,,,4,0,1.01631897805,,,,,,PLC_L_D2S1,P6,60.0243438855,02,B,2015_Jan_08_1421,X,
stim/posf.jpg,stim/negf.jpg,stim/1.jpg,stim/5.jpg,stim/latef.jpg,AB,1,2,,,,,,,,,,,,,0,37,37,5,,,,,,4,0,0.899610661574,,,,,,PLC_L_D2S1,P6,60.0243438855,02,B,2015_Jan_08_1421,X,
stim/posf.jpg,stim/negf.jpg,stim/5.jpg,stim/1.jpg,stim/latef.jpg,AB,2,4,,,,,,,,,,,,,0,38,38,14,,,,,,2,0,0.549813375839,,,,,,PLC_L_D2S1,P6,60.0243438855,02,B,2015_Jan_08_1421,X,
stim/negf.jpg,stim/posf.jpg,stim/6.jpg,stim/3.jpg,stim/latef.jpg,EF,1,2,,,,,,,,,,,,,0,39,39,47,,,,,,2,1,1.41620419997,,,,,,PLC_L_D2S1,P6,60.0243438855,02,B,2015_Jan_08_1421,X,
stim/posf.jpg,stim/negf.jpg,stim/5.jpg,stim/1.jpg,stim/latef.jpg,AB,2,4,,,,,,,,,,,,,0,40,40,17,,,,,,4,1,0.999676646041,,,,,,PLC_L_D2S1,P6,60.0243438855,02,B,2015_Jan_08_1421,X,
stim/negf.jpg,stim/posf.jpg,stim/3.jpg,stim/6.jpg,stim/latef.jpg,EF,2,4,,,,,,,,,,,,,0,41,41,58,,,,,,4,1,0.849740089173,,,,,,PLC_L_D2S1,P6,60.0243438855,02,B,2015_Jan_08_1421,X,
stim/posf.jpg,stim/negf.jpg,stim/6.jpg,stim/3.jpg,stim/latef.jpg,EF,1,2,,,,,,,,,,,,,0,42,42,43,,,,,,4,0,0.899768377682,,,,,,PLC_L_D2S1,P6,60.0243438855,02,B,2015_Jan_08_1421,X,
stim/posf.jpg,stim/negf.jpg,stim/5.jpg,stim/1.jpg,stim/latef.jpg,AB,2,4,,,,,,,,,,,,,0,43,43,15,,,,,,4,1,0.849675160337,,,,,,PLC_L_D2S1,P6,60.0243438855,02,B,2015_Jan_08_1421,X,
stim/posf.jpg,stim/negf.jpg,stim/2.jpg,stim/4.jpg,stim/latef.jpg,CD,1,2,,,,,,,,,,,,,0,44,44,20,,,,,,2,1,0.749784894851,,,,,,PLC_L_D2S1,P6,60.0243438855,02,B,2015_Jan_08_1421,X,
stim/posf.jpg,stim/negf.jpg,stim/6.jpg,stim/3.jpg,stim/latef.jpg,EF,1,2,,,,,,,,,,,,,0,45,45,41,,,,,,2,1,0.816391434651,,,,,,PLC_L_D2S1,P6,60.0243438855,02,B,2015_Jan_08_1421,X,
stim/posf.jpg,stim/negf.jpg,stim/3.jpg,stim/6.jpg,stim/latef.jpg,EF,2,4,,,,,,,,,,,,,0,46,46,52,,,,,,4,1,0.633161507056,,,,,,PLC_L_D2S1,P6,60.0243438855,02,B,2015_Jan_08_1421,X,
stim/posf.jpg,stim/negf.jpg,stim/5.jpg,stim/1.jpg,stim/latef.jpg,AB,2,4,,,,,,,,,,,,,0,47,47,11,,,,,,4,1,0.733077134758,,,,,,PLC_L_D2S1,P6,60.0243438855,02,B,2015_Jan_08_1421,X,
stim/negf.jpg,stim/posf.jpg,stim/4.jpg,stim/2.jpg,stim/latef.jpg,CD,2,4,,,,,,,,,,,,,0,48,48,38,,,,,,4,1,0.666455428154,,,,,,PLC_L_D2S1,P6,60.0243438855,02,B,2015_Jan_08_1421,X,
stim/posf.jpg,stim/negf.jpg,stim/6.jpg,stim/3.jpg,stim/latef.jpg,EF,1,2,,,,,,,,,,,,,0,49,49,42,,,,,,2,1,0.98299317148,,,,,,PLC_L_D2S1,P6,60.0243438855,02,B,2015_Jan_08_1421,X,
stim/posf.jpg,stim/negf.jpg,stim/4.jpg,stim/2.jpg,stim/latef.jpg,CD,2,4,,,,,,,,,,,,,0,50,50,30,,,,,,4,1,0.799736260629,,,,,,PLC_L_D2S1,P6,60.0243438855,02,B,2015_Jan_08_1421,X,
stim/posf.jpg,stim/negf.jpg,stim/6.jpg,stim/3.jpg,stim/latef.jpg,EF,1,2,,,,,,,,,,,,,0,51,51,44,,,,,,2,1,0.83304828084,,,,,,PLC_L_D2S1,P6,60.0243438855,02,B,2015_Jan_08_1421,X,
stim/posf.jpg,stim/negf.jpg,stim/1.jpg,stim/5.jpg,stim/latef.jpg,AB,1,2,,,,,,,,,,,,,0,52,52,0,,,,,,2,1,0.716433969669,,,,,,PLC_L_D2S1,P6,60.0243438855,02,B,2015_Jan_08_1421,X,
stim/negf.jpg,stim/posf.jpg,stim/6.jpg,stim/3.jpg,stim/latef.jpg,EF,1,2,,,,,,,,,,,,,0,53,53,49,,,,,,2,1,1.24958398207,,,,,,PLC_L_D2S1,P6,60.0243438855,02,B,2015_Jan_08_1421,X,
stim/posf.jpg,stim/negf.jpg,stim/2.jpg,stim/4.jpg,stim/latef.jpg,CD,1,2,,,,,,,,,,,,,0,54,54,21,,,,,,4,0,1.23293001707,,,,,,PLC_L_D2S1,P6,60.0243438855,02,B,2015_Jan_08_1421,X,
stim/posf.jpg,stim/negf.jpg,stim/2.jpg,stim/4.jpg,stim/latef.jpg,CD,1,2,,,,,,,,,,,,,0,55,55,22,,,,,,2,1,0.433193678243,,,,,,PLC_L_D2S1,P6,60.0243438855,02,B,2015_Jan_08_1421,X,
stim/negf.jpg,stim/posf.jpg,stim/1.jpg,stim/5.jpg,stim/latef.jpg,AB,1,2,,,,,,,,,,,,,0,56,56,8,,,,,,2,1,0.766430093007,,,,,,PLC_L_D2S1,P6,60.0243438855,02,B,2015_Jan_08_1421,X,
stim/negf.jpg,stim/posf.jpg,stim/4.jpg,stim/2.jpg,stim/latef.jpg,CD,2,4,,,,,,,,,,,,,0,57,57,39,,,,,,4,1,0.766367395734,,,,,,PLC_L_D2S1,P6,60.0243438855,02,B,2015_Jan_08_1421,X,
stim/posf.jpg,stim/negf.jpg,stim/5.jpg,stim/1.jpg,stim/latef.jpg,AB,2,4,,,,,,,,,,,,,0,58,58,13,,,,,,2,0,1.19957277013,,,,,,PLC_L_D2S1,P6,60.0243438855,02,B,2015_Jan_08_1421,X,
stim/negf.jpg,stim/posf.jpg,stim/3.jpg,stim/6.jpg,stim/latef.jpg,EF,2,4,,,,,,,,,,,,,0,59,59,57,,,,,,4,1,0.999662372463,,,,,,PLC_L_D2S1,P6,60.0243438855,02,B,2015_Jan_08_1421,X,
