fb_corr,fb_incorr,symbol2,symbol1,fb_late,pair,position,correct,block_01.thisRepN,block_01.thisTrialN,block_01.thisN,block_01.thisIndex,block_02.thisRepN,block_02.thisTrialN,block_02.thisN,block_02.thisIndex,mouse.x,mouse.y,mouse.leftButton,mouse.midButton,mouse.rightButton,buttonBox_2.keys,buttonBox_2.corr,buttonBox_2.rt,mouse_2.x,mouse_2.y,mouse_2.leftButton,mouse_2.midButton,mouse_2.rightButton,date,Participant,expName,Group,frameRate,
,,,,,,,,,,,,,,,,0.9984375,0.57421875,1,0,0,,,,,,,,,2016_Jun_27_0952,P1,PLC_L_D1S2,NHGX,60.0184368032,
stim/posf.jpg,stim/negf.jpg,stim/2.jpg,stim/1.jpg,stim/latef.jpg,CD,2,4,0,0,0,31,,,,,,,,,,4,1,0.933061273224,,,,,,2016_Jun_27_0952,P1,PLC_L_D1S2,NHGX,60.0184368032,
stim/posf.jpg,stim/negf.jpg,stim/6.jpg,stim/5.jpg,stim/latef.jpg,EF,2,4,0,1,1,50,,,,,,,,,,4,1,1.31622532161,,,,,,2016_Jun_27_0952,P1,PLC_L_D1S2,NHGX,60.0184368032,
stim/posf.jpg,stim/negf.jpg,stim/5.jpg,stim/6.jpg,stim/latef.jpg,EF,1,2,0,2,2,43,,,,,,,,,,4,0,1.36622343291,,,,,,2016_Jun_27_0952,P1,PLC_L_D1S2,NHGX,60.0184368032,
stim/posf.jpg,stim/negf.jpg,stim/3.jpg,stim/4.jpg,stim/latef.jpg,AB,1,2,0,3,3,4,,,,,,,,,,2,1,1.21625254547,,,,,,2016_Jun_27_0952,P1,PLC_L_D1S2,NHGX,60.0184368032,
stim/posf.jpg,stim/negf.jpg,stim/1.jpg,stim/2.jpg,stim/latef.jpg,CD,1,2,0,4,4,26,,,,,,,,,,4,0,1.09967830317,,,,,,2016_Jun_27_0952,P1,PLC_L_D1S2,NHGX,60.0184368032,
stim/posf.jpg,stim/negf.jpg,stim/6.jpg,stim/5.jpg,stim/latef.jpg,EF,2,4,0,5,5,51,,,,,,,,,,4,1,1.18288885648,,,,,,2016_Jun_27_0952,P1,PLC_L_D1S2,NHGX,60.0184368032,
stim/negf.jpg,stim/posf.jpg,stim/6.jpg,stim/5.jpg,stim/latef.jpg,EF,2,4,0,6,6,58,,,,,,,,,,2,0,0.916358770234,,,,,,2016_Jun_27_0952,P1,PLC_L_D1S2,NHGX,60.0184368032,
stim/posf.jpg,stim/negf.jpg,stim/4.jpg,stim/3.jpg,stim/latef.jpg,AB,2,4,0,7,7,17,,,,,,,,,,4,1,1.01633697491,,,,,,2016_Jun_27_0952,P1,PLC_L_D1S2,NHGX,60.0184368032,
stim/posf.jpg,stim/negf.jpg,stim/5.jpg,stim/6.jpg,stim/latef.jpg,EF,1,2,0,8,8,44,,,,,,,,,,4,0,1.13296276569,,,,,,2016_Jun_27_0952,P1,PLC_L_D1S2,NHGX,60.0184368032,
stim/posf.jpg,stim/negf.jpg,stim/6.jpg,stim/5.jpg,stim/latef.jpg,EF,2,4,0,9,9,57,,,,,,,,,,2,0,1.36622195021,,,,,,2016_Jun_27_0952,P1,PLC_L_D1S2,NHGX,60.0184368032,
stim/posf.jpg,stim/negf.jpg,stim/4.jpg,stim/3.jpg,stim/latef.jpg,AB,2,4,0,10,10,13,,,,,,,,,,2,0,0.916366186721,,,,,,2016_Jun_27_0952,P1,PLC_L_D1S2,NHGX,60.0184368032,
stim/posf.jpg,stim/negf.jpg,stim/6.jpg,stim/5.jpg,stim/latef.jpg,EF,2,4,0,11,11,55,,,,,,,,,,4,1,1.01627468365,,,,,,2016_Jun_27_0952,P1,PLC_L_D1S2,NHGX,60.0184368032,
stim/posf.jpg,stim/negf.jpg,stim/4.jpg,stim/3.jpg,stim/latef.jpg,AB,2,4,0,12,12,10,,,,,,,,,,2,0,1.14958167533,,,,,,2016_Jun_27_0952,P1,PLC_L_D1S2,NHGX,60.0184368032,
stim/negf.jpg,stim/posf.jpg,stim/5.jpg,stim/6.jpg,stim/latef.jpg,EF,1,2,0,13,13,48,,,,,,,,,,4,0,1.04964129894,,,,,,2016_Jun_27_0952,P1,PLC_L_D1S2,NHGX,60.0184368032,
stim/posf.jpg,stim/negf.jpg,stim/5.jpg,stim/6.jpg,stim/latef.jpg,EF,1,2,0,14,14,41,,,,,,,,,,4,0,1.24954967557,,,,,,2016_Jun_27_0952,P1,PLC_L_D1S2,NHGX,60.0184368032,
stim/posf.jpg,stim/negf.jpg,stim/4.jpg,stim/3.jpg,stim/latef.jpg,AB,2,4,0,15,15,12,,,,,,,,,,4,1,1.36627014835,,,,,,2016_Jun_27_0952,P1,PLC_L_D1S2,NHGX,60.0184368032,
stim/negf.jpg,stim/posf.jpg,stim/2.jpg,stim/1.jpg,stim/latef.jpg,CD,2,4,0,16,16,39,,,,,,,,,,2,0,1.08295601086,,,,,,2016_Jun_27_0952,P1,PLC_L_D1S2,NHGX,60.0184368032,
stim/posf.jpg,stim/negf.jpg,stim/3.jpg,stim/4.jpg,stim/latef.jpg,AB,1,2,0,17,17,8,,,,,,,,,,2,1,1.33289133164,,,,,,2016_Jun_27_0952,P1,PLC_L_D1S2,NHGX,60.0184368032,
stim/posf.jpg,stim/negf.jpg,stim/4.jpg,stim/3.jpg,stim/latef.jpg,AB,2,4,0,18,18,16,,,,,,,,,,2,0,1.16523771099,,,,,,2016_Jun_27_0952,P1,PLC_L_D1S2,NHGX,60.0184368032,
stim/posf.jpg,stim/negf.jpg,stim/4.jpg,stim/3.jpg,stim/latef.jpg,AB,2,4,0,19,19,18,,,,,,,,,,4,1,1.6494704521,,,,,,2016_Jun_27_0952,P1,PLC_L_D1S2,NHGX,60.0184368032,
stim/posf.jpg,stim/negf.jpg,stim/6.jpg,stim/5.jpg,stim/latef.jpg,EF,2,4,0,20,20,54,,,,,,,,,,4,1,1.43286815889,,,,,,2016_Jun_27_0952,P1,PLC_L_D1S2,NHGX,60.0184368032,
stim/posf.jpg,stim/negf.jpg,stim/6.jpg,stim/5.jpg,stim/latef.jpg,EF,2,4,0,21,21,52,,,,,,,,,,4,1,1.18295367704,,,,,,2016_Jun_27_0952,P1,PLC_L_D1S2,NHGX,60.0184368032,
stim/posf.jpg,stim/negf.jpg,stim/5.jpg,stim/6.jpg,stim/latef.jpg,EF,1,2,0,22,22,45,,,,,,,,,,2,1,1.43283439072,,,,,,2016_Jun_27_0952,P1,PLC_L_D1S2,NHGX,60.0184368032,
stim/posf.jpg,stim/negf.jpg,stim/5.jpg,stim/6.jpg,stim/latef.jpg,EF,1,2,0,23,23,42,,,,,,,,,,2,1,1.21627523402,,,,,,2016_Jun_27_0952,P1,PLC_L_D1S2,NHGX,60.0184368032,
stim/posf.jpg,stim/negf.jpg,stim/5.jpg,stim/6.jpg,stim/latef.jpg,EF,1,2,0,24,24,46,,,,,,,,,,2,1,1.41620973677,,,,,,2016_Jun_27_0952,P1,PLC_L_D1S2,NHGX,60.0184368032,
stim/posf.jpg,stim/negf.jpg,stim/2.jpg,stim/1.jpg,stim/latef.jpg,CD,2,4,0,25,25,32,,,,,,,,,,2,0,1.46618602868,,,,,,2016_Jun_27_0952,P1,PLC_L_D1S2,NHGX,60.0184368032,
stim/posf.jpg,stim/negf.jpg,stim/1.jpg,stim/2.jpg,stim/latef.jpg,CD,1,2,0,26,26,21,,,,,,,,,,2,1,1.38287420395,,,,,,2016_Jun_27_0952,P1,PLC_L_D1S2,NHGX,60.0184368032,
stim/posf.jpg,stim/negf.jpg,stim/1.jpg,stim/2.jpg,stim/latef.jpg,CD,1,2,0,27,27,24,,,,,,,,,,2,1,1.13291845625,,,,,,2016_Jun_27_0952,P1,PLC_L_D1S2,NHGX,60.0184368032,
stim/posf.jpg,stim/negf.jpg,stim/3.jpg,stim/4.jpg,stim/latef.jpg,AB,1,2,0,28,28,2,,,,,,,,,,2,1,1.48279876392,,,,,,2016_Jun_27_0952,P1,PLC_L_D1S2,NHGX,60.0184368032,
stim/posf.jpg,stim/negf.jpg,stim/5.jpg,stim/6.jpg,stim/latef.jpg,EF,1,2,0,29,29,47,,,,,,,,,,2,1,1.24959718799,,,,,,2016_Jun_27_0952,P1,PLC_L_D1S2,NHGX,60.0184368032,
stim/posf.jpg,stim/negf.jpg,stim/1.jpg,stim/2.jpg,stim/latef.jpg,CD,1,2,0,30,30,20,,,,,,,,,,2,1,1.63278619559,,,,,,2016_Jun_27_0952,P1,PLC_L_D1S2,NHGX,60.0184368032,
stim/posf.jpg,stim/negf.jpg,stim/2.jpg,stim/1.jpg,stim/latef.jpg,CD,2,4,0,31,31,36,,,,,,,,,,4,1,1.61614239592,,,,,,2016_Jun_27_0952,P1,PLC_L_D1S2,NHGX,60.0184368032,
stim/negf.jpg,stim/posf.jpg,stim/4.jpg,stim/3.jpg,stim/latef.jpg,AB,2,4,0,32,32,19,,,,,,,,,,4,1,1.58282251412,,,,,,2016_Jun_27_0952,P1,PLC_L_D1S2,NHGX,60.0184368032,
stim/posf.jpg,stim/negf.jpg,stim/2.jpg,stim/1.jpg,stim/latef.jpg,CD,2,4,0,33,33,33,,,,,,,,,,4,1,1.2329722363,,,,,,2016_Jun_27_0952,P1,PLC_L_D1S2,NHGX,60.0184368032,
stim/negf.jpg,stim/posf.jpg,stim/5.jpg,stim/6.jpg,stim/latef.jpg,EF,1,2,0,34,34,49,,,,,,,,,,2,1,1.1996079037,,,,,,2016_Jun_27_0952,P1,PLC_L_D1S2,NHGX,60.0184368032,
stim/posf.jpg,stim/negf.jpg,stim/1.jpg,stim/2.jpg,stim/latef.jpg,CD,1,2,0,35,35,25,,,,,,,,,,2,1,1.38289808648,,,,,,2016_Jun_27_0952,P1,PLC_L_D1S2,NHGX,60.0184368032,
stim/posf.jpg,stim/negf.jpg,stim/5.jpg,stim/6.jpg,stim/latef.jpg,EF,1,2,0,36,36,40,,,,,,,,,,4,0,1.18285341915,,,,,,2016_Jun_27_0952,P1,PLC_L_D1S2,NHGX,60.0184368032,
stim/posf.jpg,stim/negf.jpg,stim/1.jpg,stim/2.jpg,stim/latef.jpg,CD,1,2,0,37,37,27,,,,,,,,,,2,1,1.23295814919,,,,,,2016_Jun_27_0952,P1,PLC_L_D1S2,NHGX,60.0184368032,
stim/posf.jpg,stim/negf.jpg,stim/3.jpg,stim/4.jpg,stim/latef.jpg,AB,1,2,0,38,38,6,,,,,,,,,,4,0,1.24958526026,,,,,,2016_Jun_27_0952,P1,PLC_L_D1S2,NHGX,60.0184368032,
stim/negf.jpg,stim/posf.jpg,stim/2.jpg,stim/1.jpg,stim/latef.jpg,CD,2,4,0,39,39,38,,,,,,,,,,4,1,1.03300259697,,,,,,2016_Jun_27_0952,P1,PLC_L_D1S2,NHGX,60.0184368032,
stim/posf.jpg,stim/negf.jpg,stim/6.jpg,stim/5.jpg,stim/latef.jpg,EF,2,4,0,40,40,56,,,,,,,,,,2,0,1.31624670792,,,,,,2016_Jun_27_0952,P1,PLC_L_D1S2,NHGX,60.0184368032,
stim/posf.jpg,stim/negf.jpg,stim/2.jpg,stim/1.jpg,stim/latef.jpg,CD,2,4,0,41,41,34,,,,,,,,,,2,0,1.13295957775,,,,,,2016_Jun_27_0952,P1,PLC_L_D1S2,NHGX,60.0184368032,
stim/posf.jpg,stim/negf.jpg,stim/3.jpg,stim/4.jpg,stim/latef.jpg,AB,1,2,0,42,42,0,,,,,,,,,,2,1,1.4495288246,,,,,,2016_Jun_27_0952,P1,PLC_L_D1S2,NHGX,60.0184368032,
stim/posf.jpg,stim/negf.jpg,stim/1.jpg,stim/2.jpg,stim/latef.jpg,CD,1,2,0,43,43,23,,,,,,,,,,4,0,1.26625969128,,,,,,2016_Jun_27_0952,P1,PLC_L_D1S2,NHGX,60.0184368032,
stim/posf.jpg,stim/negf.jpg,stim/3.jpg,stim/4.jpg,stim/latef.jpg,AB,1,2,0,44,44,7,,,,,,,,,,2,1,1.11630707438,,,,,,2016_Jun_27_0952,P1,PLC_L_D1S2,NHGX,60.0184368032,
stim/posf.jpg,stim/negf.jpg,stim/1.jpg,stim/2.jpg,stim/latef.jpg,CD,1,2,0,45,45,22,,,,,,,,,,2,1,0.966352463515,,,,,,2016_Jun_27_0952,P1,PLC_L_D1S2,NHGX,60.0184368032,
stim/posf.jpg,stim/negf.jpg,stim/3.jpg,stim/4.jpg,stim/latef.jpg,AB,1,2,0,46,46,5,,,,,,,,,,4,0,1.5494944038,,,,,,2016_Jun_27_0952,P1,PLC_L_D1S2,NHGX,60.0184368032,
stim/posf.jpg,stim/negf.jpg,stim/4.jpg,stim/3.jpg,stim/latef.jpg,AB,2,4,0,47,47,15,,,,,,,,,,4,1,1.51617881069,,,,,,2016_Jun_27_0952,P1,PLC_L_D1S2,NHGX,60.0184368032,
stim/posf.jpg,stim/negf.jpg,stim/3.jpg,stim/4.jpg,stim/latef.jpg,AB,1,2,0,48,48,1,,,,,,,,,,2,1,1.26622190811,,,,,,2016_Jun_27_0952,P1,PLC_L_D1S2,NHGX,60.0184368032,
stim/posf.jpg,stim/negf.jpg,stim/6.jpg,stim/5.jpg,stim/latef.jpg,EF,2,4,0,49,49,53,,,,,,,,,,4,1,1.06632015098,,,,,,2016_Jun_27_0952,P1,PLC_L_D1S2,NHGX,60.0184368032,
stim/posf.jpg,stim/negf.jpg,stim/2.jpg,stim/1.jpg,stim/latef.jpg,CD,2,4,0,50,50,37,,,,,,,,,,2,0,1.29956679123,,,,,,2016_Jun_27_0952,P1,PLC_L_D1S2,NHGX,60.0184368032,
stim/posf.jpg,stim/negf.jpg,stim/2.jpg,stim/1.jpg,stim/latef.jpg,CD,2,4,0,51,51,35,,,,,,,,,,4,1,0.799725223118,,,,,,2016_Jun_27_0952,P1,PLC_L_D1S2,NHGX,60.0184368032,
stim/negf.jpg,stim/posf.jpg,stim/6.jpg,stim/5.jpg,stim/latef.jpg,EF,2,4,0,52,52,59,,,,,,,,,,4,1,1.04966137097,,,,,,2016_Jun_27_0952,P1,PLC_L_D1S2,NHGX,60.0184368032,
stim/negf.jpg,stim/posf.jpg,stim/1.jpg,stim/2.jpg,stim/latef.jpg,CD,1,2,0,53,53,29,,,,,,,,,,2,1,1.16627559492,,,,,,2016_Jun_27_0952,P1,PLC_L_D1S2,NHGX,60.0184368032,
stim/posf.jpg,stim/negf.jpg,stim/2.jpg,stim/1.jpg,stim/latef.jpg,CD,2,4,0,54,54,30,,,,,,,,,,2,0,1.09963866738,,,,,,2016_Jun_27_0952,P1,PLC_L_D1S2,NHGX,60.0184368032,
stim/posf.jpg,stim/negf.jpg,stim/4.jpg,stim/3.jpg,stim/latef.jpg,AB,2,4,0,55,55,14,,,,,,,,,,4,1,1.14965607176,,,,,,2016_Jun_27_0952,P1,PLC_L_D1S2,NHGX,60.0184368032,
stim/posf.jpg,stim/negf.jpg,stim/4.jpg,stim/3.jpg,stim/latef.jpg,AB,2,4,0,56,56,11,,,,,,,,,,4,1,1.24958311892,,,,,,2016_Jun_27_0952,P1,PLC_L_D1S2,NHGX,60.0184368032,
stim/negf.jpg,stim/posf.jpg,stim/1.jpg,stim/2.jpg,stim/latef.jpg,CD,1,2,0,57,57,28,,,,,,,,,,2,1,1.16629503237,,,,,,2016_Jun_27_0952,P1,PLC_L_D1S2,NHGX,60.0184368032,
stim/posf.jpg,stim/negf.jpg,stim/3.jpg,stim/4.jpg,stim/latef.jpg,AB,1,2,0,58,58,3,,,,,,,,,,2,1,1.11630590447,,,,,,2016_Jun_27_0952,P1,PLC_L_D1S2,NHGX,60.0184368032,
stim/negf.jpg,stim/posf.jpg,stim/3.jpg,stim/4.jpg,stim/latef.jpg,AB,1,2,0,59,59,9,,,,,,,,,,2,1,1.03299346922,,,,,,2016_Jun_27_0952,P1,PLC_L_D1S2,NHGX,60.0184368032,
,,,,,,,,,,,,,,,,,,,,,,,,0.9984375,0.57421875,1,0,0,2016_Jun_27_0952,P1,PLC_L_D1S2,NHGX,60.0184368032,
stim/posf.jpg,stim/negf.jpg,stim/1.jpg,stim/2.jpg,stim/latef.jpg,CD,1,2,,,,,0,0,0,27,,,,,,2,1,0.849698793242,,,,,,2016_Jun_27_0952,P1,PLC_L_D1S2,NHGX,60.0184368032,
stim/negf.jpg,stim/posf.jpg,stim/2.jpg,stim/1.jpg,stim/latef.jpg,CD,2,4,,,,,0,1,1,39,,,,,,4,1,1.03298264825,,,,,,2016_Jun_27_0952,P1,PLC_L_D1S2,NHGX,60.0184368032,
stim/posf.jpg,stim/negf.jpg,stim/3.jpg,stim/4.jpg,stim/latef.jpg,AB,1,2,,,,,0,2,2,0,,,,,,2,1,1.34954942594,,,,,,2016_Jun_27_0952,P1,PLC_L_D1S2,NHGX,60.0184368032,
stim/negf.jpg,stim/posf.jpg,stim/3.jpg,stim/4.jpg,stim/latef.jpg,AB,1,2,,,,,0,3,3,9,,,,,,2,1,1.01633672529,,,,,,2016_Jun_27_0952,P1,PLC_L_D1S2,NHGX,60.0184368032,
stim/posf.jpg,stim/negf.jpg,stim/2.jpg,stim/1.jpg,stim/latef.jpg,CD,2,4,,,,,0,4,4,36,,,,,,2,0,1.39954825302,,,,,,2016_Jun_27_0952,P1,PLC_L_D1S2,NHGX,60.0184368032,
stim/posf.jpg,stim/negf.jpg,stim/6.jpg,stim/5.jpg,stim/latef.jpg,EF,2,4,,,,,0,5,5,51,,,,,,2,0,1.1829374937,,,,,,2016_Jun_27_0952,P1,PLC_L_D1S2,NHGX,60.0184368032,
stim/posf.jpg,stim/negf.jpg,stim/2.jpg,stim/1.jpg,stim/latef.jpg,CD,2,4,,,,,0,6,6,32,,,,,,4,1,1.01636977166,,,,,,2016_Jun_27_0952,P1,PLC_L_D1S2,NHGX,60.0184368032,
stim/posf.jpg,stim/negf.jpg,stim/3.jpg,stim/4.jpg,stim/latef.jpg,AB,1,2,,,,,0,7,7,2,,,,,,2,1,1.11626103563,,,,,,2016_Jun_27_0952,P1,PLC_L_D1S2,NHGX,60.0184368032,
stim/posf.jpg,stim/negf.jpg,stim/6.jpg,stim/5.jpg,stim/latef.jpg,EF,2,4,,,,,0,8,8,50,,,,,,2,0,1.1163155074,,,,,,2016_Jun_27_0952,P1,PLC_L_D1S2,NHGX,60.0184368032,
stim/posf.jpg,stim/negf.jpg,stim/6.jpg,stim/5.jpg,stim/latef.jpg,EF,2,4,,,,,0,9,9,53,,,,,,4,1,1.21626869873,,,,,,2016_Jun_27_0952,P1,PLC_L_D1S2,NHGX,60.0184368032,
stim/posf.jpg,stim/negf.jpg,stim/2.jpg,stim/1.jpg,stim/latef.jpg,CD,2,4,,,,,0,10,10,37,,,,,,4,1,1.29956895963,,,,,,2016_Jun_27_0952,P1,PLC_L_D1S2,NHGX,60.0184368032,
stim/negf.jpg,stim/posf.jpg,stim/6.jpg,stim/5.jpg,stim/latef.jpg,EF,2,4,,,,,0,11,11,58,,,,,,4,1,0.883065591988,,,,,,2016_Jun_27_0952,P1,PLC_L_D1S2,NHGX,60.0184368032,
stim/posf.jpg,stim/negf.jpg,stim/4.jpg,stim/3.jpg,stim/latef.jpg,AB,2,4,,,,,0,12,12,10,,,,,,4,1,1.23303425388,,,,,,2016_Jun_27_0952,P1,PLC_L_D1S2,NHGX,60.0184368032,
stim/negf.jpg,stim/posf.jpg,stim/2.jpg,stim/1.jpg,stim/latef.jpg,CD,2,4,,,,,0,13,13,38,,,,,,4,1,1.16627499944,,,,,,2016_Jun_27_0952,P1,PLC_L_D1S2,NHGX,60.0184368032,
stim/posf.jpg,stim/negf.jpg,stim/1.jpg,stim/2.jpg,stim/latef.jpg,CD,1,2,,,,,0,14,14,24,,,,,,2,1,0.999603323284,,,,,,2016_Jun_27_0952,P1,PLC_L_D1S2,NHGX,60.0184368032,
stim/negf.jpg,stim/posf.jpg,stim/1.jpg,stim/2.jpg,stim/latef.jpg,CD,1,2,,,,,0,15,15,28,,,,,,2,1,0.933034530567,,,,,,2016_Jun_27_0952,P1,PLC_L_D1S2,NHGX,60.0184368032,
stim/posf.jpg,stim/negf.jpg,stim/1.jpg,stim/2.jpg,stim/latef.jpg,CD,1,2,,,,,0,16,16,26,,,,,,4,0,1.03298341516,,,,,,2016_Jun_27_0952,P1,PLC_L_D1S2,NHGX,60.0184368032,
stim/negf.jpg,stim/posf.jpg,stim/5.jpg,stim/6.jpg,stim/latef.jpg,EF,1,2,,,,,0,17,17,49,,,,,,4,0,0.899717406635,,,,,,2016_Jun_27_0952,P1,PLC_L_D1S2,NHGX,60.0184368032,
stim/posf.jpg,stim/negf.jpg,stim/5.jpg,stim/6.jpg,stim/latef.jpg,EF,1,2,,,,,0,18,18,40,,,,,,4,0,0.899613699145,,,,,,2016_Jun_27_0952,P1,PLC_L_D1S2,NHGX,60.0184368032,
stim/posf.jpg,stim/negf.jpg,stim/4.jpg,stim/3.jpg,stim/latef.jpg,AB,2,4,,,,,0,19,19,12,,,,,,4,1,1.08298482267,,,,,,2016_Jun_27_0952,P1,PLC_L_D1S2,NHGX,60.0184368032,
stim/negf.jpg,stim/posf.jpg,stim/5.jpg,stim/6.jpg,stim/latef.jpg,EF,1,2,,,,,0,20,20,48,,,,,,2,1,1.03299418501,,,,,,2016_Jun_27_0952,P1,PLC_L_D1S2,NHGX,60.0184368032,
stim/posf.jpg,stim/negf.jpg,stim/6.jpg,stim/5.jpg,stim/latef.jpg,EF,2,4,,,,,0,21,21,57,,,,,,4,1,0.849709755566,,,,,,2016_Jun_27_0952,P1,PLC_L_D1S2,NHGX,60.0184368032,
stim/posf.jpg,stim/negf.jpg,stim/5.jpg,stim/6.jpg,stim/latef.jpg,EF,1,2,,,,,0,22,22,41,,,,,,4,0,0.866371813745,,,,,,2016_Jun_27_0952,P1,PLC_L_D1S2,NHGX,60.0184368032,
stim/posf.jpg,stim/negf.jpg,stim/1.jpg,stim/2.jpg,stim/latef.jpg,CD,1,2,,,,,0,23,23,20,,,,,,2,1,0.866364346133,,,,,,2016_Jun_27_0952,P1,PLC_L_D1S2,NHGX,60.0184368032,
stim/posf.jpg,stim/negf.jpg,stim/2.jpg,stim/1.jpg,stim/latef.jpg,CD,2,4,,,,,0,24,24,35,,,,,,4,1,1.14961860136,,,,,,2016_Jun_27_0952,P1,PLC_L_D1S2,NHGX,60.0184368032,
stim/posf.jpg,stim/negf.jpg,stim/3.jpg,stim/4.jpg,stim/latef.jpg,AB,1,2,,,,,0,25,25,4,,,,,,2,1,1.21626814234,,,,,,2016_Jun_27_0952,P1,PLC_L_D1S2,NHGX,60.0184368032,
stim/posf.jpg,stim/negf.jpg,stim/3.jpg,stim/4.jpg,stim/latef.jpg,AB,1,2,,,,,0,26,26,8,,,,,,2,1,1.14959619251,,,,,,2016_Jun_27_0952,P1,PLC_L_D1S2,NHGX,60.0184368032,
stim/posf.jpg,stim/negf.jpg,stim/6.jpg,stim/5.jpg,stim/latef.jpg,EF,2,4,,,,,0,27,27,52,,,,,,2,0,0.982979986617,,,,,,2016_Jun_27_0952,P1,PLC_L_D1S2,NHGX,60.0184368032,
stim/posf.jpg,stim/negf.jpg,stim/4.jpg,stim/3.jpg,stim/latef.jpg,AB,2,4,,,,,0,28,28,11,,,,,,2,0,1.24952825317,,,,,,2016_Jun_27_0952,P1,PLC_L_D1S2,NHGX,60.0184368032,
stim/posf.jpg,stim/negf.jpg,stim/6.jpg,stim/5.jpg,stim/latef.jpg,EF,2,4,,,,,0,29,29,56,,,,,,4,1,1.11628784746,,,,,,2016_Jun_27_0952,P1,PLC_L_D1S2,NHGX,60.0184368032,
stim/posf.jpg,stim/negf.jpg,stim/4.jpg,stim/3.jpg,stim/latef.jpg,AB,2,4,,,,,0,30,30,18,,,,,,4,1,1.24960017744,,,,,,2016_Jun_27_0952,P1,PLC_L_D1S2,NHGX,60.0184368032,
stim/posf.jpg,stim/negf.jpg,stim/6.jpg,stim/5.jpg,stim/latef.jpg,EF,2,4,,,,,0,31,31,55,,,,,,4,1,0.982993354937,,,,,,2016_Jun_27_0952,P1,PLC_L_D1S2,NHGX,60.0184368032,
stim/posf.jpg,stim/negf.jpg,stim/4.jpg,stim/3.jpg,stim/latef.jpg,AB,2,4,,,,,0,32,32,13,,,,,,4,1,1.04967514229,,,,,,2016_Jun_27_0952,P1,PLC_L_D1S2,NHGX,60.0184368032,
stim/posf.jpg,stim/negf.jpg,stim/2.jpg,stim/1.jpg,stim/latef.jpg,CD,2,4,,,,,0,33,33,34,,,,,,2,0,1.26631076157,,,,,,2016_Jun_27_0952,P1,PLC_L_D1S2,NHGX,60.0184368032,
stim/negf.jpg,stim/posf.jpg,stim/6.jpg,stim/5.jpg,stim/latef.jpg,EF,2,4,,,,,0,34,34,59,,,,,,2,0,1.24964695905,,,,,,2016_Jun_27_0952,P1,PLC_L_D1S2,NHGX,60.0184368032,
stim/posf.jpg,stim/negf.jpg,stim/3.jpg,stim/4.jpg,stim/latef.jpg,AB,1,2,,,,,0,35,35,3,,,,,,2,1,1.08292142465,,,,,,2016_Jun_27_0952,P1,PLC_L_D1S2,NHGX,60.0184368032,
stim/posf.jpg,stim/negf.jpg,stim/3.jpg,stim/4.jpg,stim/latef.jpg,AB,1,2,,,,,0,36,36,7,,,,,,4,0,1.16628780235,,,,,,2016_Jun_27_0952,P1,PLC_L_D1S2,NHGX,60.0184368032,
stim/posf.jpg,stim/negf.jpg,stim/4.jpg,stim/3.jpg,stim/latef.jpg,AB,2,4,,,,,0,37,37,14,,,,,,4,1,0.84971386982,,,,,,2016_Jun_27_0952,P1,PLC_L_D1S2,NHGX,60.0184368032,
stim/posf.jpg,stim/negf.jpg,stim/4.jpg,stim/3.jpg,stim/latef.jpg,AB,2,4,,,,,0,38,38,17,,,,,,4,1,0.883059676243,,,,,,2016_Jun_27_0952,P1,PLC_L_D1S2,NHGX,60.0184368032,
stim/posf.jpg,stim/negf.jpg,stim/5.jpg,stim/6.jpg,stim/latef.jpg,EF,1,2,,,,,0,39,39,45,,,,,,4,0,1.26624486733,,,,,,2016_Jun_27_0952,P1,PLC_L_D1S2,NHGX,60.0184368032,
stim/posf.jpg,stim/negf.jpg,stim/4.jpg,stim/3.jpg,stim/latef.jpg,AB,2,4,,,,,0,40,40,15,,,,,,4,1,1.23293864557,,,,,,2016_Jun_27_0952,P1,PLC_L_D1S2,NHGX,60.0184368032,
stim/posf.jpg,stim/negf.jpg,stim/5.jpg,stim/6.jpg,stim/latef.jpg,EF,1,2,,,,,0,41,41,42,,,,,,2,1,1.26625441914,,,,,,2016_Jun_27_0952,P1,PLC_L_D1S2,NHGX,60.0184368032,
stim/posf.jpg,stim/negf.jpg,stim/5.jpg,stim/6.jpg,stim/latef.jpg,EF,1,2,,,,,0,42,42,44,,,,,,2,1,0.899707920993,,,,,,2016_Jun_27_0952,P1,PLC_L_D1S2,NHGX,60.0184368032,
stim/posf.jpg,stim/negf.jpg,stim/3.jpg,stim/4.jpg,stim/latef.jpg,AB,1,2,,,,,0,43,43,1,,,,,,2,1,1.14959877896,,,,,,2016_Jun_27_0952,P1,PLC_L_D1S2,NHGX,60.0184368032,
stim/negf.jpg,stim/posf.jpg,stim/1.jpg,stim/2.jpg,stim/latef.jpg,CD,1,2,,,,,0,44,44,29,,,,,,2,1,1.14960897437,,,,,,2016_Jun_27_0952,P1,PLC_L_D1S2,NHGX,60.0184368032,
stim/posf.jpg,stim/negf.jpg,stim/1.jpg,stim/2.jpg,stim/latef.jpg,CD,1,2,,,,,0,45,45,25,,,,,,2,1,0.949717286336,,,,,,2016_Jun_27_0952,P1,PLC_L_D1S2,NHGX,60.0184368032,
stim/posf.jpg,stim/negf.jpg,stim/1.jpg,stim/2.jpg,stim/latef.jpg,CD,1,2,,,,,0,46,46,21,,,,,,2,1,1.01632275848,,,,,,2016_Jun_27_0952,P1,PLC_L_D1S2,NHGX,60.0184368032,
stim/posf.jpg,stim/negf.jpg,stim/2.jpg,stim/1.jpg,stim/latef.jpg,CD,2,4,,,,,0,47,47,30,,,,,,4,1,0.949681749761,,,,,,2016_Jun_27_0952,P1,PLC_L_D1S2,NHGX,60.0184368032,
stim/posf.jpg,stim/negf.jpg,stim/5.jpg,stim/6.jpg,stim/latef.jpg,EF,1,2,,,,,0,48,48,47,,,,,,2,1,1.24958815046,,,,,,2016_Jun_27_0952,P1,PLC_L_D1S2,NHGX,60.0184368032,
stim/posf.jpg,stim/negf.jpg,stim/2.jpg,stim/1.jpg,stim/latef.jpg,CD,2,4,,,,,0,49,49,31,,,,,,4,1,1.21629987444,,,,,,2016_Jun_27_0952,P1,PLC_L_D1S2,NHGX,60.0184368032,
stim/posf.jpg,stim/negf.jpg,stim/4.jpg,stim/3.jpg,stim/latef.jpg,AB,2,4,,,,,0,50,50,16,,,,,,4,1,1.11621900888,,,,,,2016_Jun_27_0952,P1,PLC_L_D1S2,NHGX,60.0184368032,
stim/posf.jpg,stim/negf.jpg,stim/1.jpg,stim/2.jpg,stim/latef.jpg,CD,1,2,,,,,0,51,51,22,,,,,,2,1,1.26620645258,,,,,,2016_Jun_27_0952,P1,PLC_L_D1S2,NHGX,60.0184368032,
stim/posf.jpg,stim/negf.jpg,stim/5.jpg,stim/6.jpg,stim/latef.jpg,EF,1,2,,,,,0,52,52,43,,,,,,2,1,1.24961318186,,,,,,2016_Jun_27_0952,P1,PLC_L_D1S2,NHGX,60.0184368032,
stim/posf.jpg,stim/negf.jpg,stim/3.jpg,stim/4.jpg,stim/latef.jpg,AB,1,2,,,,,0,53,53,6,,,,,,2,1,1.28290020075,,,,,,2016_Jun_27_0952,P1,PLC_L_D1S2,NHGX,60.0184368032,
stim/posf.jpg,stim/negf.jpg,stim/5.jpg,stim/6.jpg,stim/latef.jpg,EF,1,2,,,,,0,54,54,46,,,,,,2,1,1.16624945076,,,,,,2016_Jun_27_0952,P1,PLC_L_D1S2,NHGX,60.0184368032,
stim/posf.jpg,stim/negf.jpg,stim/1.jpg,stim/2.jpg,stim/latef.jpg,CD,1,2,,,,,0,55,55,23,,,,,,2,1,1.1495882467,,,,,,2016_Jun_27_0952,P1,PLC_L_D1S2,NHGX,60.0184368032,
stim/negf.jpg,stim/posf.jpg,stim/4.jpg,stim/3.jpg,stim/latef.jpg,AB,2,4,,,,,0,56,56,19,,,,,,4,1,1.19958204826,,,,,,2016_Jun_27_0952,P1,PLC_L_D1S2,NHGX,60.0184368032,
stim/posf.jpg,stim/negf.jpg,stim/2.jpg,stim/1.jpg,stim/latef.jpg,CD,2,4,,,,,0,57,57,33,,,,,,4,1,1.54949489402,,,,,,2016_Jun_27_0952,P1,PLC_L_D1S2,NHGX,60.0184368032,
stim/posf.jpg,stim/negf.jpg,stim/6.jpg,stim/5.jpg,stim/latef.jpg,EF,2,4,,,,,0,58,58,54,,,,,,4,1,1.26624141773,,,,,,2016_Jun_27_0952,P1,PLC_L_D1S2,NHGX,60.0184368032,
stim/posf.jpg,stim/negf.jpg,stim/3.jpg,stim/4.jpg,stim/latef.jpg,AB,1,2,,,,,0,59,59,5,,,,,,4,0,1.06630451801,,,,,,2016_Jun_27_0952,P1,PLC_L_D1S2,NHGX,60.0184368032,
