fb_corr,fb_incorr,symbol2,symbol1,fb_late,pair,position,correct,block_01.thisRepN,block_01.thisTrialN,block_01.thisN,block_01.thisIndex,block_02.thisRepN,block_02.thisTrialN,block_02.thisN,block_02.thisIndex,mouse.x,mouse.y,mouse.leftButton,mouse.midButton,mouse.rightButton,buttonBox_2.keys,buttonBox_2.corr,buttonBox_2.rt,mouse_2.x,mouse_2.y,mouse_2.leftButton,mouse_2.midButton,mouse_2.rightButton,expName,Participant,frameRate,SessionNumber,Version,date,Group,
,,,,,,,,,,,,,,,,0.9984375,0.853515625,1,0,0,,,,,,,,,PLC_L_D1S2,P11,60.021992893,01,B,2015_Jan_29_1631,Y,
stim/negf.jpg,stim/posf.jpg,stim/3.jpg,stim/2.jpg,stim/latef.jpg,EF,2,4,0,0,0,59,,,,,,,,,,4,1,1.43291910542,,,,,,PLC_L_D1S2,P11,60.021992893,01,B,2015_Jan_29_1631,Y,
stim/posf.jpg,stim/negf.jpg,stim/2.jpg,stim/3.jpg,stim/latef.jpg,EF,1,2,0,1,1,40,,,,,,,,,,2,1,1.01632847148,,,,,,PLC_L_D1S2,P11,60.021992893,01,B,2015_Jan_29_1631,Y,
stim/posf.jpg,stim/negf.jpg,stim/5.jpg,stim/6.jpg,stim/latef.jpg,CD,1,2,0,2,2,24,,,,,,,,,,2,1,1.16627607358,,,,,,PLC_L_D1S2,P11,60.021992893,01,B,2015_Jan_29_1631,Y,
stim/negf.jpg,stim/posf.jpg,stim/3.jpg,stim/2.jpg,stim/latef.jpg,EF,2,4,0,3,3,58,,,,,,,,,,2,0,1.26624330402,,,,,,PLC_L_D1S2,P11,60.021992893,01,B,2015_Jan_29_1631,Y,
stim/negf.jpg,stim/posf.jpg,stim/4.jpg,stim/1.jpg,stim/latef.jpg,AB,2,4,0,4,4,19,,,,,,,,,,4,1,0.949694777879,,,,,,PLC_L_D1S2,P11,60.021992893,01,B,2015_Jan_29_1631,Y,
stim/posf.jpg,stim/negf.jpg,stim/3.jpg,stim/2.jpg,stim/latef.jpg,EF,2,4,0,5,5,51,,,,,,,,,,2,0,1.06627678936,,,,,,PLC_L_D1S2,P11,60.021992893,01,B,2015_Jan_29_1631,Y,
stim/posf.jpg,stim/negf.jpg,stim/1.jpg,stim/4.jpg,stim/latef.jpg,AB,1,2,0,6,6,5,,,,,,,,,,2,1,1.18294334425,,,,,,PLC_L_D1S2,P11,60.021992893,01,B,2015_Jan_29_1631,Y,
stim/negf.jpg,stim/posf.jpg,stim/1.jpg,stim/4.jpg,stim/latef.jpg,AB,1,2,0,7,7,6,,,,,,,,,,2,1,0.999663227858,,,,,,PLC_L_D1S2,P11,60.021992893,01,B,2015_Jan_29_1631,Y,
stim/posf.jpg,stim/negf.jpg,stim/3.jpg,stim/2.jpg,stim/latef.jpg,EF,2,4,0,8,8,54,,,,,,,,,,4,1,0.833039958197,,,,,,PLC_L_D1S2,P11,60.021992893,01,B,2015_Jan_29_1631,Y,
stim/posf.jpg,stim/negf.jpg,stim/5.jpg,stim/6.jpg,stim/latef.jpg,CD,1,2,0,9,9,20,,,,,,,,,,2,1,1.04965321744,,,,,,PLC_L_D1S2,P11,60.021992893,01,B,2015_Jan_29_1631,Y,
stim/posf.jpg,stim/negf.jpg,stim/2.jpg,stim/3.jpg,stim/latef.jpg,EF,1,2,0,10,10,45,,,,,,,,,,4,0,0.983004293936,,,,,,PLC_L_D1S2,P11,60.021992893,01,B,2015_Jan_29_1631,Y,
stim/posf.jpg,stim/negf.jpg,stim/4.jpg,stim/1.jpg,stim/latef.jpg,AB,2,4,0,11,11,13,,,,,,,,,,4,1,1.13296514701,,,,,,PLC_L_D1S2,P11,60.021992893,01,B,2015_Jan_29_1631,Y,
stim/negf.jpg,stim/posf.jpg,stim/4.jpg,stim/1.jpg,stim/latef.jpg,AB,2,4,0,12,12,18,,,,,,,,,,4,1,1.03291394759,,,,,,PLC_L_D1S2,P11,60.021992893,01,B,2015_Jan_29_1631,Y,
stim/posf.jpg,stim/negf.jpg,stim/6.jpg,stim/5.jpg,stim/latef.jpg,CD,2,4,0,13,13,34,,,,,,,,,,4,1,1.14959897445,,,,,,PLC_L_D1S2,P11,60.021992893,01,B,2015_Jan_29_1631,Y,
stim/negf.jpg,stim/posf.jpg,stim/3.jpg,stim/2.jpg,stim/latef.jpg,EF,2,4,0,14,14,57,,,,,,,,,,4,1,0.983004907464,,,,,,PLC_L_D1S2,P11,60.021992893,01,B,2015_Jan_29_1631,Y,
stim/posf.jpg,stim/negf.jpg,stim/4.jpg,stim/1.jpg,stim/latef.jpg,AB,2,4,0,15,15,12,,,,,,,,,,4,1,0.91637478675,,,,,,PLC_L_D1S2,P11,60.021992893,01,B,2015_Jan_29_1631,Y,
stim/posf.jpg,stim/negf.jpg,stim/4.jpg,stim/1.jpg,stim/latef.jpg,AB,2,4,0,16,16,15,,,,,,,,,,4,1,0.849703180793,,,,,,PLC_L_D1S2,P11,60.021992893,01,B,2015_Jan_29_1631,Y,
stim/posf.jpg,stim/negf.jpg,stim/6.jpg,stim/5.jpg,stim/latef.jpg,CD,2,4,0,17,17,33,,,,,,,,,,4,1,0.966326130158,,,,,,PLC_L_D1S2,P11,60.021992893,01,B,2015_Jan_29_1631,Y,
stim/posf.jpg,stim/negf.jpg,stim/6.jpg,stim/5.jpg,stim/latef.jpg,CD,2,4,0,18,18,32,,,,,,,,,,4,1,0.799705007837,,,,,,PLC_L_D1S2,P11,60.021992893,01,B,2015_Jan_29_1631,Y,
stim/posf.jpg,stim/negf.jpg,stim/4.jpg,stim/1.jpg,stim/latef.jpg,AB,2,4,0,19,19,10,,,,,,,,,,4,1,0.816385538508,,,,,,PLC_L_D1S2,P11,60.021992893,01,B,2015_Jan_29_1631,Y,
stim/posf.jpg,stim/negf.jpg,stim/5.jpg,stim/6.jpg,stim/latef.jpg,CD,1,2,0,20,20,23,,,,,,,,,,2,1,0.999679209632,,,,,,PLC_L_D1S2,P11,60.021992893,01,B,2015_Jan_29_1631,Y,
stim/negf.jpg,stim/posf.jpg,stim/2.jpg,stim/3.jpg,stim/latef.jpg,EF,1,2,0,21,21,47,,,,,,,,,,2,1,0.833057142965,,,,,,PLC_L_D1S2,P11,60.021992893,01,B,2015_Jan_29_1631,Y,
stim/negf.jpg,stim/posf.jpg,stim/1.jpg,stim/4.jpg,stim/latef.jpg,AB,1,2,0,22,22,7,,,,,,,,,,2,1,0.716480644203,,,,,,PLC_L_D1S2,P11,60.021992893,01,B,2015_Jan_29_1631,Y,
stim/negf.jpg,stim/posf.jpg,stim/5.jpg,stim/6.jpg,stim/latef.jpg,CD,1,2,0,23,23,28,,,,,,,,,,2,1,0.99966791352,,,,,,PLC_L_D1S2,P11,60.021992893,01,B,2015_Jan_29_1631,Y,
stim/negf.jpg,stim/posf.jpg,stim/5.jpg,stim/6.jpg,stim/latef.jpg,CD,1,2,0,24,24,27,,,,,,,,,,2,1,1.01636593272,,,,,,PLC_L_D1S2,P11,60.021992893,01,B,2015_Jan_29_1631,Y,
stim/posf.jpg,stim/negf.jpg,stim/1.jpg,stim/4.jpg,stim/latef.jpg,AB,1,2,0,25,25,2,,,,,,,,,,2,1,0.766405539787,,,,,,PLC_L_D1S2,P11,60.021992893,01,B,2015_Jan_29_1631,Y,
stim/posf.jpg,stim/negf.jpg,stim/3.jpg,stim/2.jpg,stim/latef.jpg,EF,2,4,0,26,26,50,,,,,,,,,,4,1,0.983014654721,,,,,,PLC_L_D1S2,P11,60.021992893,01,B,2015_Jan_29_1631,Y,
stim/posf.jpg,stim/negf.jpg,stim/3.jpg,stim/2.jpg,stim/latef.jpg,EF,2,4,0,27,27,53,,,,,,,,,,4,1,0.783053216692,,,,,,PLC_L_D1S2,P11,60.021992893,01,B,2015_Jan_29_1631,Y,
stim/negf.jpg,stim/posf.jpg,stim/6.jpg,stim/5.jpg,stim/latef.jpg,CD,2,4,0,28,28,37,,,,,,,,,,4,1,0.783069466135,,,,,,PLC_L_D1S2,P11,60.021992893,01,B,2015_Jan_29_1631,Y,
stim/posf.jpg,stim/negf.jpg,stim/2.jpg,stim/3.jpg,stim/latef.jpg,EF,1,2,0,29,29,42,,,,,,,,,,2,1,0.866406393912,,,,,,PLC_L_D1S2,P11,60.021992893,01,B,2015_Jan_29_1631,Y,
stim/posf.jpg,stim/negf.jpg,stim/4.jpg,stim/1.jpg,stim/latef.jpg,AB,2,4,0,30,30,14,,,,,,,,,,4,1,0.76641109762,,,,,,PLC_L_D1S2,P11,60.021992893,01,B,2015_Jan_29_1631,Y,
stim/negf.jpg,stim/posf.jpg,stim/1.jpg,stim/4.jpg,stim/latef.jpg,AB,1,2,0,31,31,9,,,,,,,,,,2,1,1.06630024774,,,,,,PLC_L_D1S2,P11,60.021992893,01,B,2015_Jan_29_1631,Y,
stim/posf.jpg,stim/negf.jpg,stim/2.jpg,stim/3.jpg,stim/latef.jpg,EF,1,2,0,32,32,43,,,,,,,,,,2,1,0.966333411277,,,,,,PLC_L_D1S2,P11,60.021992893,01,B,2015_Jan_29_1631,Y,
stim/negf.jpg,stim/posf.jpg,stim/4.jpg,stim/1.jpg,stim/latef.jpg,AB,2,4,0,33,33,17,,,,,,,,,,4,1,0.949677511908,,,,,,PLC_L_D1S2,P11,60.021992893,01,B,2015_Jan_29_1631,Y,
stim/negf.jpg,stim/posf.jpg,stim/6.jpg,stim/5.jpg,stim/latef.jpg,CD,2,4,0,34,34,36,,,,,,,,,,4,1,0.933024731299,,,,,,PLC_L_D1S2,P11,60.021992893,01,B,2015_Jan_29_1631,Y,
stim/negf.jpg,stim/posf.jpg,stim/2.jpg,stim/3.jpg,stim/latef.jpg,EF,1,2,0,35,35,48,,,,,,,,,,2,1,0.716389577561,,,,,,PLC_L_D1S2,P11,60.021992893,01,B,2015_Jan_29_1631,Y,
stim/posf.jpg,stim/negf.jpg,stim/3.jpg,stim/2.jpg,stim/latef.jpg,EF,2,4,0,36,36,52,,,,,,,,,,4,1,0.649799928573,,,,,,PLC_L_D1S2,P11,60.021992893,01,B,2015_Jan_29_1631,Y,
stim/posf.jpg,stim/negf.jpg,stim/5.jpg,stim/6.jpg,stim/latef.jpg,CD,1,2,0,37,37,25,,,,,,,,,,2,1,0.983003758603,,,,,,PLC_L_D1S2,P11,60.021992893,01,B,2015_Jan_29_1631,Y,
stim/negf.jpg,stim/posf.jpg,stim/4.jpg,stim/1.jpg,stim/latef.jpg,AB,2,4,0,38,38,16,,,,,,,,,,4,1,0.766407208941,,,,,,PLC_L_D1S2,P11,60.021992893,01,B,2015_Jan_29_1631,Y,
stim/posf.jpg,stim/negf.jpg,stim/2.jpg,stim/3.jpg,stim/latef.jpg,EF,1,2,0,39,39,41,,,,,,,,,,2,1,0.833045636327,,,,,,PLC_L_D1S2,P11,60.021992893,01,B,2015_Jan_29_1631,Y,
stim/posf.jpg,stim/negf.jpg,stim/5.jpg,stim/6.jpg,stim/latef.jpg,CD,1,2,0,40,40,21,,,,,,,,,,2,1,0.883042356665,,,,,,PLC_L_D1S2,P11,60.021992893,01,B,2015_Jan_29_1631,Y,
stim/negf.jpg,stim/posf.jpg,stim/5.jpg,stim/6.jpg,stim/latef.jpg,CD,1,2,0,41,41,26,,,,,,,,,,2,1,0.966312861132,,,,,,PLC_L_D1S2,P11,60.021992893,01,B,2015_Jan_29_1631,Y,
stim/posf.jpg,stim/negf.jpg,stim/1.jpg,stim/4.jpg,stim/latef.jpg,AB,1,2,0,42,42,0,,,,,,,,,,4,0,0.883042507039,,,,,,PLC_L_D1S2,P11,60.021992893,01,B,2015_Jan_29_1631,Y,
stim/posf.jpg,stim/negf.jpg,stim/6.jpg,stim/5.jpg,stim/latef.jpg,CD,2,4,0,43,43,30,,,,,,,,,,4,1,0.983006760074,,,,,,PLC_L_D1S2,P11,60.021992893,01,B,2015_Jan_29_1631,Y,
stim/negf.jpg,stim/posf.jpg,stim/2.jpg,stim/3.jpg,stim/latef.jpg,EF,1,2,0,44,44,49,,,,,,,,,,2,1,1.03296844321,,,,,,PLC_L_D1S2,P11,60.021992893,01,B,2015_Jan_29_1631,Y,
stim/negf.jpg,stim/posf.jpg,stim/3.jpg,stim/2.jpg,stim/latef.jpg,EF,2,4,0,45,45,56,,,,,,,,,,4,1,1.08298604753,,,,,,PLC_L_D1S2,P11,60.021992893,01,B,2015_Jan_29_1631,Y,
stim/posf.jpg,stim/negf.jpg,stim/1.jpg,stim/4.jpg,stim/latef.jpg,AB,1,2,0,46,46,4,,,,,,,,,,4,0,1.3329271715,,,,,,PLC_L_D1S2,P11,60.021992893,01,B,2015_Jan_29_1631,Y,
stim/posf.jpg,stim/negf.jpg,stim/4.jpg,stim/1.jpg,stim/latef.jpg,AB,2,4,0,47,47,11,,,,,,,,,,4,1,0.832994797804,,,,,,PLC_L_D1S2,P11,60.021992893,01,B,2015_Jan_29_1631,Y,
stim/negf.jpg,stim/posf.jpg,stim/6.jpg,stim/5.jpg,stim/latef.jpg,CD,2,4,0,48,48,38,,,,,,,,,,4,1,1.18292648128,,,,,,PLC_L_D1S2,P11,60.021992893,01,B,2015_Jan_29_1631,Y,
stim/posf.jpg,stim/negf.jpg,stim/6.jpg,stim/5.jpg,stim/latef.jpg,CD,2,4,0,49,49,35,,,,,,,,,,4,1,0.749737285671,,,,,,PLC_L_D1S2,P11,60.021992893,01,B,2015_Jan_29_1631,Y,
stim/posf.jpg,stim/negf.jpg,stim/6.jpg,stim/5.jpg,stim/latef.jpg,CD,2,4,0,50,50,31,,,,,,,,,,4,1,0.699760904952,,,,,,PLC_L_D1S2,P11,60.021992893,01,B,2015_Jan_29_1631,Y,
stim/negf.jpg,stim/posf.jpg,stim/3.jpg,stim/2.jpg,stim/latef.jpg,EF,2,4,0,51,51,55,,,,,,,,,,4,1,0.733091909489,,,,,,PLC_L_D1S2,P11,60.021992893,01,B,2015_Jan_29_1631,Y,
stim/posf.jpg,stim/negf.jpg,stim/5.jpg,stim/6.jpg,stim/latef.jpg,CD,1,2,0,52,52,22,,,,,,,,,,2,1,0.816390485821,,,,,,PLC_L_D1S2,P11,60.021992893,01,B,2015_Jan_29_1631,Y,
stim/negf.jpg,stim/posf.jpg,stim/6.jpg,stim/5.jpg,stim/latef.jpg,CD,2,4,0,53,53,39,,,,,,,,,,4,1,0.933044583708,,,,,,PLC_L_D1S2,P11,60.021992893,01,B,2015_Jan_29_1631,Y,
stim/posf.jpg,stim/negf.jpg,stim/2.jpg,stim/3.jpg,stim/latef.jpg,EF,1,2,0,54,54,44,,,,,,,,,,4,0,0.9996468912,,,,,,PLC_L_D1S2,P11,60.021992893,01,B,2015_Jan_29_1631,Y,
stim/negf.jpg,stim/posf.jpg,stim/1.jpg,stim/4.jpg,stim/latef.jpg,AB,1,2,0,55,55,8,,,,,,,,,,2,1,1.13295077123,,,,,,PLC_L_D1S2,P11,60.021992893,01,B,2015_Jan_29_1631,Y,
stim/negf.jpg,stim/posf.jpg,stim/5.jpg,stim/6.jpg,stim/latef.jpg,CD,1,2,0,56,56,29,,,,,,,,,,2,1,1.01630600256,,,,,,PLC_L_D1S2,P11,60.021992893,01,B,2015_Jan_29_1631,Y,
stim/posf.jpg,stim/negf.jpg,stim/1.jpg,stim/4.jpg,stim/latef.jpg,AB,1,2,0,57,57,3,,,,,,,,,,2,1,1.24956032225,,,,,,PLC_L_D1S2,P11,60.021992893,01,B,2015_Jan_29_1631,Y,
stim/posf.jpg,stim/negf.jpg,stim/1.jpg,stim/4.jpg,stim/latef.jpg,AB,1,2,0,58,58,1,,,,,,,,,,2,1,0.699766426695,,,,,,PLC_L_D1S2,P11,60.021992893,01,B,2015_Jan_29_1631,Y,
stim/negf.jpg,stim/posf.jpg,stim/2.jpg,stim/3.jpg,stim/latef.jpg,EF,1,2,0,59,59,46,,,,,,,,,,4,0,0.916407568335,,,,,,PLC_L_D1S2,P11,60.021992893,01,B,2015_Jan_29_1631,Y,
,,,,,,,,,,,,,,,,,,,,,,,,0.9984375,0.853515625,1,0,0,PLC_L_D1S2,P11,60.021992893,01,B,2015_Jan_29_1631,Y,
stim/posf.jpg,stim/negf.jpg,stim/4.jpg,stim/1.jpg,stim/latef.jpg,AB,2,4,,,,,0,0,0,15,,,,,,4,1,0.899682024639,,,,,,PLC_L_D1S2,P11,60.021992893,01,B,2015_Jan_29_1631,Y,
stim/negf.jpg,stim/posf.jpg,stim/6.jpg,stim/5.jpg,stim/latef.jpg,CD,2,4,,,,,0,1,1,37,,,,,,4,1,0.816385315955,,,,,,PLC_L_D1S2,P11,60.021992893,01,B,2015_Jan_29_1631,Y,
stim/negf.jpg,stim/posf.jpg,stim/2.jpg,stim/3.jpg,stim/latef.jpg,EF,1,2,,,,,0,2,2,48,,,,,,2,1,0.91634660361,,,,,,PLC_L_D1S2,P11,60.021992893,01,B,2015_Jan_29_1631,Y,
stim/posf.jpg,stim/negf.jpg,stim/4.jpg,stim/1.jpg,stim/latef.jpg,AB,2,4,,,,,0,3,3,14,,,,,,4,1,0.733038767232,,,,,,PLC_L_D1S2,P11,60.021992893,01,B,2015_Jan_29_1631,Y,
stim/posf.jpg,stim/negf.jpg,stim/6.jpg,stim/5.jpg,stim/latef.jpg,CD,2,4,,,,,0,4,4,35,,,,,,4,1,0.833044141607,,,,,,PLC_L_D1S2,P11,60.021992893,01,B,2015_Jan_29_1631,Y,
stim/negf.jpg,stim/posf.jpg,stim/1.jpg,stim/4.jpg,stim/latef.jpg,AB,1,2,,,,,0,5,5,8,,,,,,2,1,0.899707949158,,,,,,PLC_L_D1S2,P11,60.021992893,01,B,2015_Jan_29_1631,Y,
stim/negf.jpg,stim/posf.jpg,stim/2.jpg,stim/3.jpg,stim/latef.jpg,EF,1,2,,,,,0,6,6,46,,,,,,4,0,0.833044060406,,,,,,PLC_L_D1S2,P11,60.021992893,01,B,2015_Jan_29_1631,Y,
stim/negf.jpg,stim/posf.jpg,stim/3.jpg,stim/2.jpg,stim/latef.jpg,EF,2,4,,,,,0,7,7,56,,,,,,4,1,1.06632613617,,,,,,PLC_L_D1S2,P11,60.021992893,01,B,2015_Jan_29_1631,Y,
stim/negf.jpg,stim/posf.jpg,stim/5.jpg,stim/6.jpg,stim/latef.jpg,CD,1,2,,,,,0,8,8,26,,,,,,2,1,1.03297809423,,,,,,PLC_L_D1S2,P11,60.021992893,01,B,2015_Jan_29_1631,Y,
stim/posf.jpg,stim/negf.jpg,stim/3.jpg,stim/2.jpg,stim/latef.jpg,EF,2,4,,,,,0,9,9,50,,,,,,2,0,1.03293185716,,,,,,PLC_L_D1S2,P11,60.021992893,01,B,2015_Jan_29_1631,Y,
stim/negf.jpg,stim/posf.jpg,stim/4.jpg,stim/1.jpg,stim/latef.jpg,AB,2,4,,,,,0,10,10,18,,,,,,4,1,1.01631633929,,,,,,PLC_L_D1S2,P11,60.021992893,01,B,2015_Jan_29_1631,Y,
stim/posf.jpg,stim/negf.jpg,stim/2.jpg,stim/3.jpg,stim/latef.jpg,EF,1,2,,,,,0,11,11,40,,,,,,4,0,1.09963031094,,,,,,PLC_L_D1S2,P11,60.021992893,01,B,2015_Jan_29_1631,Y,
stim/posf.jpg,stim/negf.jpg,stim/3.jpg,stim/2.jpg,stim/latef.jpg,EF,2,4,,,,,0,12,12,51,,,,,,2,0,1.28286008804,,,,,,PLC_L_D1S2,P11,60.021992893,01,B,2015_Jan_29_1631,Y,
stim/posf.jpg,stim/negf.jpg,stim/4.jpg,stim/1.jpg,stim/latef.jpg,AB,2,4,,,,,0,13,13,12,,,,,,2,0,1.44948802232,,,,,,PLC_L_D1S2,P11,60.021992893,01,B,2015_Jan_29_1631,Y,
stim/posf.jpg,stim/negf.jpg,stim/6.jpg,stim/5.jpg,stim/latef.jpg,CD,2,4,,,,,0,14,14,30,,,,,,4,1,0.81638387537,,,,,,PLC_L_D1S2,P11,60.021992893,01,B,2015_Jan_29_1631,Y,
stim/posf.jpg,stim/negf.jpg,stim/6.jpg,stim/5.jpg,stim/latef.jpg,CD,2,4,,,,,0,15,15,34,,,,,,4,1,0.69974954869,,,,,,PLC_L_D1S2,P11,60.021992893,01,B,2015_Jan_29_1631,Y,
stim/posf.jpg,stim/negf.jpg,stim/5.jpg,stim/6.jpg,stim/latef.jpg,CD,1,2,,,,,0,16,16,24,,,,,,2,1,1.16625262121,,,,,,PLC_L_D1S2,P11,60.021992893,01,B,2015_Jan_29_1631,Y,
stim/negf.jpg,stim/posf.jpg,stim/1.jpg,stim/4.jpg,stim/latef.jpg,AB,1,2,,,,,0,17,17,6,,,,,,2,1,1.06624171306,,,,,,PLC_L_D1S2,P11,60.021992893,01,B,2015_Jan_29_1631,Y,
stim/posf.jpg,stim/negf.jpg,stim/5.jpg,stim/6.jpg,stim/latef.jpg,CD,1,2,,,,,0,18,18,22,,,,,,2,1,1.13295568847,,,,,,PLC_L_D1S2,P11,60.021992893,01,B,2015_Jan_29_1631,Y,
stim/posf.jpg,stim/negf.jpg,stim/4.jpg,stim/1.jpg,stim/latef.jpg,AB,2,4,,,,,0,19,19,13,,,,,,4,1,0.866378355131,,,,,,PLC_L_D1S2,P11,60.021992893,01,B,2015_Jan_29_1631,Y,
stim/negf.jpg,stim/posf.jpg,stim/6.jpg,stim/5.jpg,stim/latef.jpg,CD,2,4,,,,,0,20,20,38,,,,,,4,1,0.699768598099,,,,,,PLC_L_D1S2,P11,60.021992893,01,B,2015_Jan_29_1631,Y,
stim/posf.jpg,stim/negf.jpg,stim/5.jpg,stim/6.jpg,stim/latef.jpg,CD,1,2,,,,,0,21,21,25,,,,,,2,1,0.916418611821,,,,,,PLC_L_D1S2,P11,60.021992893,01,B,2015_Jan_29_1631,Y,
stim/posf.jpg,stim/negf.jpg,stim/4.jpg,stim/1.jpg,stim/latef.jpg,AB,2,4,,,,,0,22,22,11,,,,,,4,1,0.949676979582,,,,,,PLC_L_D1S2,P11,60.021992893,01,B,2015_Jan_29_1631,Y,
stim/posf.jpg,stim/negf.jpg,stim/6.jpg,stim/5.jpg,stim/latef.jpg,CD,2,4,,,,,0,23,23,31,,,,,,4,1,0.766454624949,,,,,,PLC_L_D1S2,P11,60.021992893,01,B,2015_Jan_29_1631,Y,
stim/negf.jpg,stim/posf.jpg,stim/3.jpg,stim/2.jpg,stim/latef.jpg,EF,2,4,,,,,0,24,24,59,,,,,,4,1,0.999626671881,,,,,,PLC_L_D1S2,P11,60.021992893,01,B,2015_Jan_29_1631,Y,
stim/posf.jpg,stim/negf.jpg,stim/5.jpg,stim/6.jpg,stim/latef.jpg,CD,1,2,,,,,0,25,25,20,,,,,,2,1,0.916386645264,,,,,,PLC_L_D1S2,P11,60.021992893,01,B,2015_Jan_29_1631,Y,
stim/negf.jpg,stim/posf.jpg,stim/6.jpg,stim/5.jpg,stim/latef.jpg,CD,2,4,,,,,0,26,26,36,,,,,,4,1,0.766407617959,,,,,,PLC_L_D1S2,P11,60.021992893,01,B,2015_Jan_29_1631,Y,
stim/negf.jpg,stim/posf.jpg,stim/5.jpg,stim/6.jpg,stim/latef.jpg,CD,1,2,,,,,0,27,27,28,,,,,,None,0,,,,,,,PLC_L_D1S2,P11,60.021992893,01,B,2015_Jan_29_1631,Y,
stim/posf.jpg,stim/negf.jpg,stim/6.jpg,stim/5.jpg,stim/latef.jpg,CD,2,4,,,,,0,28,28,33,,,,,,4,1,0.799783803941,,,,,,PLC_L_D1S2,P11,60.021992893,01,B,2015_Jan_29_1631,Y,
stim/posf.jpg,stim/negf.jpg,stim/1.jpg,stim/4.jpg,stim/latef.jpg,AB,1,2,,,,,0,29,29,4,,,,,,2,1,0.699767638711,,,,,,PLC_L_D1S2,P11,60.021992893,01,B,2015_Jan_29_1631,Y,
stim/negf.jpg,stim/posf.jpg,stim/2.jpg,stim/3.jpg,stim/latef.jpg,EF,1,2,,,,,0,30,30,45,,,,,,2,1,0.799729900791,,,,,,PLC_L_D1S2,P11,60.021992893,01,B,2015_Jan_29_1631,Y,
stim/negf.jpg,stim/posf.jpg,stim/4.jpg,stim/1.jpg,stim/latef.jpg,AB,2,4,,,,,0,31,31,19,,,,,,4,1,0.916355241106,,,,,,PLC_L_D1S2,P11,60.021992893,01,B,2015_Jan_29_1631,Y,
stim/posf.jpg,stim/negf.jpg,stim/2.jpg,stim/3.jpg,stim/latef.jpg,EF,1,2,,,,,0,32,32,43,,,,,,2,1,1.08295285692,,,,,,PLC_L_D1S2,P11,60.021992893,01,B,2015_Jan_29_1631,Y,
stim/posf.jpg,stim/negf.jpg,stim/1.jpg,stim/4.jpg,stim/latef.jpg,AB,1,2,,,,,0,33,33,3,,,,,,2,1,0.883041292016,,,,,,PLC_L_D1S2,P11,60.021992893,01,B,2015_Jan_29_1631,Y,
stim/posf.jpg,stim/negf.jpg,stim/1.jpg,stim/4.jpg,stim/latef.jpg,AB,1,2,,,,,0,34,34,2,,,,,,2,1,0.849701066529,,,,,,PLC_L_D1S2,P11,60.021992893,01,B,2015_Jan_29_1631,Y,
stim/negf.jpg,stim/posf.jpg,stim/1.jpg,stim/4.jpg,stim/latef.jpg,AB,1,2,,,,,0,35,35,9,,,,,,2,1,0.883017307324,,,,,,PLC_L_D1S2,P11,60.021992893,01,B,2015_Jan_29_1631,Y,
stim/negf.jpg,stim/posf.jpg,stim/6.jpg,stim/5.jpg,stim/latef.jpg,CD,2,4,,,,,0,36,36,39,,,,,,4,1,0.816389983571,,,,,,PLC_L_D1S2,P11,60.021992893,01,B,2015_Jan_29_1631,Y,
stim/posf.jpg,stim/negf.jpg,stim/3.jpg,stim/2.jpg,stim/latef.jpg,EF,2,4,,,,,0,37,37,52,,,,,,2,0,0.783060554955,,,,,,PLC_L_D1S2,P11,60.021992893,01,B,2015_Jan_29_1631,Y,
stim/negf.jpg,stim/posf.jpg,stim/4.jpg,stim/1.jpg,stim/latef.jpg,AB,2,4,,,,,0,38,38,16,,,,,,4,1,0.916363063574,,,,,,PLC_L_D1S2,P11,60.021992893,01,B,2015_Jan_29_1631,Y,
stim/negf.jpg,stim/posf.jpg,stim/1.jpg,stim/4.jpg,stim/latef.jpg,AB,1,2,,,,,0,39,39,7,,,,,,2,1,0.866385518961,,,,,,PLC_L_D1S2,P11,60.021992893,01,B,2015_Jan_29_1631,Y,
stim/posf.jpg,stim/negf.jpg,stim/6.jpg,stim/5.jpg,stim/latef.jpg,CD,2,4,,,,,0,40,40,32,,,,,,4,1,1.16631182054,,,,,,PLC_L_D1S2,P11,60.021992893,01,B,2015_Jan_29_1631,Y,
stim/posf.jpg,stim/negf.jpg,stim/4.jpg,stim/1.jpg,stim/latef.jpg,AB,2,4,,,,,0,41,41,10,,,,,,4,1,0.699775416067,,,,,,PLC_L_D1S2,P11,60.021992893,01,B,2015_Jan_29_1631,Y,
stim/posf.jpg,stim/negf.jpg,stim/5.jpg,stim/6.jpg,stim/latef.jpg,CD,1,2,,,,,0,42,42,21,,,,,,2,1,0.916388290358,,,,,,PLC_L_D1S2,P11,60.021992893,01,B,2015_Jan_29_1631,Y,
stim/negf.jpg,stim/posf.jpg,stim/4.jpg,stim/1.jpg,stim/latef.jpg,AB,2,4,,,,,0,43,43,17,,,,,,4,1,0.866382670873,,,,,,PLC_L_D1S2,P11,60.021992893,01,B,2015_Jan_29_1631,Y,
stim/negf.jpg,stim/posf.jpg,stim/3.jpg,stim/2.jpg,stim/latef.jpg,EF,2,4,,,,,0,44,44,58,,,,,,2,0,0.899688138856,,,,,,PLC_L_D1S2,P11,60.021992893,01,B,2015_Jan_29_1631,Y,
stim/negf.jpg,stim/posf.jpg,stim/5.jpg,stim/6.jpg,stim/latef.jpg,CD,1,2,,,,,0,45,45,29,,,,,,2,1,0.816361352316,,,,,,PLC_L_D1S2,P11,60.021992893,01,B,2015_Jan_29_1631,Y,
stim/posf.jpg,stim/negf.jpg,stim/3.jpg,stim/2.jpg,stim/latef.jpg,EF,2,4,,,,,0,46,46,53,,,,,,2,0,0.766406730751,,,,,,PLC_L_D1S2,P11,60.021992893,01,B,2015_Jan_29_1631,Y,
stim/posf.jpg,stim/negf.jpg,stim/1.jpg,stim/4.jpg,stim/latef.jpg,AB,1,2,,,,,0,47,47,0,,,,,,2,1,0.799717618222,,,,,,PLC_L_D1S2,P11,60.021992893,01,B,2015_Jan_29_1631,Y,
stim/negf.jpg,stim/posf.jpg,stim/3.jpg,stim/2.jpg,stim/latef.jpg,EF,2,4,,,,,0,48,48,57,,,,,,2,0,0.933060721871,,,,,,PLC_L_D1S2,P11,60.021992893,01,B,2015_Jan_29_1631,Y,
stim/posf.jpg,stim/negf.jpg,stim/1.jpg,stim/4.jpg,stim/latef.jpg,AB,1,2,,,,,0,49,49,5,,,,,,2,1,0.916422181706,,,,,,PLC_L_D1S2,P11,60.021992893,01,B,2015_Jan_29_1631,Y,
stim/posf.jpg,stim/negf.jpg,stim/2.jpg,stim/3.jpg,stim/latef.jpg,EF,1,2,,,,,0,50,50,41,,,,,,2,1,0.816406804435,,,,,,PLC_L_D1S2,P11,60.021992893,01,B,2015_Jan_29_1631,Y,
stim/negf.jpg,stim/posf.jpg,stim/2.jpg,stim/3.jpg,stim/latef.jpg,EF,1,2,,,,,0,51,51,47,,,,,,4,0,0.999685868204,,,,,,PLC_L_D1S2,P11,60.021992893,01,B,2015_Jan_29_1631,Y,
stim/negf.jpg,stim/posf.jpg,stim/2.jpg,stim/3.jpg,stim/latef.jpg,EF,1,2,,,,,0,52,52,49,,,,,,4,0,0.999657829423,,,,,,PLC_L_D1S2,P11,60.021992893,01,B,2015_Jan_29_1631,Y,
stim/negf.jpg,stim/posf.jpg,stim/5.jpg,stim/6.jpg,stim/latef.jpg,CD,1,2,,,,,0,53,53,27,,,,,,2,1,0.766422017798,,,,,,PLC_L_D1S2,P11,60.021992893,01,B,2015_Jan_29_1631,Y,
stim/posf.jpg,stim/negf.jpg,stim/3.jpg,stim/2.jpg,stim/latef.jpg,EF,2,4,,,,,0,54,54,54,,,,,,2,0,0.699768736444,,,,,,PLC_L_D1S2,P11,60.021992893,01,B,2015_Jan_29_1631,Y,
stim/posf.jpg,stim/negf.jpg,stim/5.jpg,stim/6.jpg,stim/latef.jpg,CD,1,2,,,,,0,55,55,23,,,,,,2,1,0.833066920299,,,,,,PLC_L_D1S2,P11,60.021992893,01,B,2015_Jan_29_1631,Y,
stim/posf.jpg,stim/negf.jpg,stim/2.jpg,stim/3.jpg,stim/latef.jpg,EF,1,2,,,,,0,56,56,44,,,,,,4,0,0.883024771902,,,,,,PLC_L_D1S2,P11,60.021992893,01,B,2015_Jan_29_1631,Y,
stim/posf.jpg,stim/negf.jpg,stim/3.jpg,stim/2.jpg,stim/latef.jpg,EF,2,4,,,,,0,57,57,55,,,,,,4,1,0.766419193767,,,,,,PLC_L_D1S2,P11,60.021992893,01,B,2015_Jan_29_1631,Y,
stim/posf.jpg,stim/negf.jpg,stim/2.jpg,stim/3.jpg,stim/latef.jpg,EF,1,2,,,,,0,58,58,42,,,,,,2,1,0.999738315733,,,,,,PLC_L_D1S2,P11,60.021992893,01,B,2015_Jan_29_1631,Y,
stim/posf.jpg,stim/negf.jpg,stim/1.jpg,stim/4.jpg,stim/latef.jpg,AB,1,2,,,,,0,59,59,1,,,,,,2,1,0.983018753923,,,,,,PLC_L_D1S2,P11,60.021992893,01,B,2015_Jan_29_1631,Y,
