fb_corr,fb_incorr,symbol2,symbol1,fb_late,pair,position,correct,block_01.thisRepN,block_01.thisTrialN,block_01.thisN,block_01.thisIndex,block_02.thisRepN,block_02.thisTrialN,block_02.thisN,block_02.thisIndex,mouse.x,mouse.y,mouse.leftButton,mouse.midButton,mouse.rightButton,buttonBox_2.keys,buttonBox_2.corr,buttonBox_2.rt,mouse_2.x,mouse_2.y,mouse_2.leftButton,mouse_2.midButton,mouse_2.rightButton,expName,Participant,frameRate,SessionNumber,Version,date,Group,
,,,,,,,,,,,,,,,,0.9984375,1.0,0,0,1,,,,,,,,,PLC_L_D1S2,P14,60.0187003528,01,C,2015_Feb_04_1726,Y,
stim/posf.jpg,stim/negf.jpg,stim/3.jpg,stim/2.jpg,stim/latef.jpg,CD,1,2,0,0,0,24,,,,,,,,,,None,0,,,,,,,PLC_L_D1S2,P14,60.0187003528,01,C,2015_Feb_04_1726,Y,
stim/negf.jpg,stim/posf.jpg,stim/6.jpg,stim/1.jpg,stim/latef.jpg,EF,2,4,0,1,1,57,,,,,,,,,,2,0,1.04961049612,,,,,,PLC_L_D1S2,P14,60.0187003528,01,C,2015_Feb_04_1726,Y,
stim/negf.jpg,stim/posf.jpg,stim/3.jpg,stim/2.jpg,stim/latef.jpg,CD,1,2,0,2,2,26,,,,,,,,,,2,1,0.766396264702,,,,,,PLC_L_D1S2,P14,60.0187003528,01,C,2015_Feb_04_1726,Y,
stim/negf.jpg,stim/posf.jpg,stim/4.jpg,stim/5.jpg,stim/latef.jpg,AB,1,2,0,3,3,8,,,,,,,,,,2,1,1.08296964771,,,,,,PLC_L_D1S2,P14,60.0187003528,01,C,2015_Feb_04_1726,Y,
stim/posf.jpg,stim/negf.jpg,stim/5.jpg,stim/4.jpg,stim/latef.jpg,AB,2,4,0,4,4,13,,,,,,,,,,4,1,1.09961772762,,,,,,PLC_L_D1S2,P14,60.0187003528,01,C,2015_Feb_04_1726,Y,
stim/posf.jpg,stim/negf.jpg,stim/4.jpg,stim/5.jpg,stim/latef.jpg,AB,1,2,0,5,5,3,,,,,,,,,,2,1,0.699771184536,,,,,,PLC_L_D1S2,P14,60.0187003528,01,C,2015_Feb_04_1726,Y,
stim/posf.jpg,stim/negf.jpg,stim/5.jpg,stim/4.jpg,stim/latef.jpg,AB,2,4,0,6,6,12,,,,,,,,,,4,1,0.816394497804,,,,,,PLC_L_D1S2,P14,60.0187003528,01,C,2015_Feb_04_1726,Y,
stim/posf.jpg,stim/negf.jpg,stim/6.jpg,stim/1.jpg,stim/latef.jpg,EF,2,4,0,7,7,50,,,,,,,,,,4,1,0.916359641058,,,,,,PLC_L_D1S2,P14,60.0187003528,01,C,2015_Feb_04_1726,Y,
stim/posf.jpg,stim/negf.jpg,stim/3.jpg,stim/2.jpg,stim/latef.jpg,CD,1,2,0,8,8,20,,,,,,,,,,2,1,1.2495761356,,,,,,PLC_L_D1S2,P14,60.0187003528,01,C,2015_Feb_04_1726,Y,
stim/posf.jpg,stim/negf.jpg,stim/6.jpg,stim/1.jpg,stim/latef.jpg,EF,2,4,0,9,9,54,,,,,,,,,,4,1,1.04964301907,,,,,,PLC_L_D1S2,P14,60.0187003528,01,C,2015_Feb_04_1726,Y,
stim/negf.jpg,stim/posf.jpg,stim/2.jpg,stim/3.jpg,stim/latef.jpg,CD,2,4,0,10,10,37,,,,,,,,,,4,1,1.08297387924,,,,,,PLC_L_D1S2,P14,60.0187003528,01,C,2015_Feb_04_1726,Y,
stim/posf.jpg,stim/negf.jpg,stim/1.jpg,stim/6.jpg,stim/latef.jpg,EF,1,2,0,11,11,45,,,,,,,,,,2,1,0.833061206078,,,,,,PLC_L_D1S2,P14,60.0187003528,01,C,2015_Feb_04_1726,Y,
stim/posf.jpg,stim/negf.jpg,stim/3.jpg,stim/2.jpg,stim/latef.jpg,CD,1,2,0,12,12,21,,,,,,,,,,2,1,0.766411888588,,,,,,PLC_L_D1S2,P14,60.0187003528,01,C,2015_Feb_04_1726,Y,
stim/posf.jpg,stim/negf.jpg,stim/4.jpg,stim/5.jpg,stim/latef.jpg,AB,1,2,0,13,13,2,,,,,,,,,,2,1,0.966362944779,,,,,,PLC_L_D1S2,P14,60.0187003528,01,C,2015_Feb_04_1726,Y,
stim/negf.jpg,stim/posf.jpg,stim/6.jpg,stim/1.jpg,stim/latef.jpg,EF,2,4,0,14,14,56,,,,,,,,,,4,1,0.849715409222,,,,,,PLC_L_D1S2,P14,60.0187003528,01,C,2015_Feb_04_1726,Y,
stim/posf.jpg,stim/negf.jpg,stim/4.jpg,stim/5.jpg,stim/latef.jpg,AB,1,2,0,15,15,5,,,,,,,,,,2,1,0.966330903033,,,,,,PLC_L_D1S2,P14,60.0187003528,01,C,2015_Feb_04_1726,Y,
stim/negf.jpg,stim/posf.jpg,stim/6.jpg,stim/1.jpg,stim/latef.jpg,EF,2,4,0,16,16,59,,,,,,,,,,2,0,1.08298012579,,,,,,PLC_L_D1S2,P14,60.0187003528,01,C,2015_Feb_04_1726,Y,
stim/negf.jpg,stim/posf.jpg,stim/5.jpg,stim/4.jpg,stim/latef.jpg,AB,2,4,0,17,17,16,,,,,,,,,,4,1,0.89971265888,,,,,,PLC_L_D1S2,P14,60.0187003528,01,C,2015_Feb_04_1726,Y,
stim/posf.jpg,stim/negf.jpg,stim/2.jpg,stim/3.jpg,stim/latef.jpg,CD,2,4,0,18,18,33,,,,,,,,,,4,1,1.41617445217,,,,,,PLC_L_D1S2,P14,60.0187003528,01,C,2015_Feb_04_1726,Y,
stim/negf.jpg,stim/posf.jpg,stim/2.jpg,stim/3.jpg,stim/latef.jpg,CD,2,4,0,19,19,36,,,,,,,,,,4,1,0.983013439698,,,,,,PLC_L_D1S2,P14,60.0187003528,01,C,2015_Feb_04_1726,Y,
stim/posf.jpg,stim/negf.jpg,stim/6.jpg,stim/1.jpg,stim/latef.jpg,EF,2,4,0,20,20,51,,,,,,,,,,2,0,0.983005388662,,,,,,PLC_L_D1S2,P14,60.0187003528,01,C,2015_Feb_04_1726,Y,
stim/posf.jpg,stim/negf.jpg,stim/1.jpg,stim/6.jpg,stim/latef.jpg,EF,1,2,0,21,21,42,,,,,,,,,,4,0,1.34953588343,,,,,,PLC_L_D1S2,P14,60.0187003528,01,C,2015_Feb_04_1726,Y,
stim/posf.jpg,stim/negf.jpg,stim/5.jpg,stim/4.jpg,stim/latef.jpg,AB,2,4,0,22,22,11,,,,,,,,,,4,1,0.866380779164,,,,,,PLC_L_D1S2,P14,60.0187003528,01,C,2015_Feb_04_1726,Y,
stim/negf.jpg,stim/posf.jpg,stim/4.jpg,stim/5.jpg,stim/latef.jpg,AB,1,2,0,23,23,7,,,,,,,,,,2,1,0.849751829865,,,,,,PLC_L_D1S2,P14,60.0187003528,01,C,2015_Feb_04_1726,Y,
stim/posf.jpg,stim/negf.jpg,stim/3.jpg,stim/2.jpg,stim/latef.jpg,CD,1,2,0,24,24,23,,,,,,,,,,2,1,0.983024669647,,,,,,PLC_L_D1S2,P14,60.0187003528,01,C,2015_Feb_04_1726,Y,
stim/negf.jpg,stim/posf.jpg,stim/5.jpg,stim/4.jpg,stim/latef.jpg,AB,2,4,0,25,25,17,,,,,,,,,,4,1,0.766392036181,,,,,,PLC_L_D1S2,P14,60.0187003528,01,C,2015_Feb_04_1726,Y,
stim/negf.jpg,stim/posf.jpg,stim/4.jpg,stim/5.jpg,stim/latef.jpg,AB,1,2,0,26,26,6,,,,,,,,,,2,1,0.799743238986,,,,,,PLC_L_D1S2,P14,60.0187003528,01,C,2015_Feb_04_1726,Y,
stim/negf.jpg,stim/posf.jpg,stim/1.jpg,stim/6.jpg,stim/latef.jpg,EF,1,2,0,27,27,46,,,,,,,,,,2,1,1.14960794578,,,,,,PLC_L_D1S2,P14,60.0187003528,01,C,2015_Feb_04_1726,Y,
stim/negf.jpg,stim/posf.jpg,stim/6.jpg,stim/1.jpg,stim/latef.jpg,EF,2,4,0,28,28,55,,,,,,,,,,4,1,1.2495824002,,,,,,PLC_L_D1S2,P14,60.0187003528,01,C,2015_Feb_04_1726,Y,
stim/negf.jpg,stim/posf.jpg,stim/6.jpg,stim/1.jpg,stim/latef.jpg,EF,2,4,0,29,29,58,,,,,,,,,,2,0,0.966295336519,,,,,,PLC_L_D1S2,P14,60.0187003528,01,C,2015_Feb_04_1726,Y,
stim/posf.jpg,stim/negf.jpg,stim/6.jpg,stim/1.jpg,stim/latef.jpg,EF,2,4,0,30,30,53,,,,,,,,,,2,0,0.799719022714,,,,,,PLC_L_D1S2,P14,60.0187003528,01,C,2015_Feb_04_1726,Y,
stim/posf.jpg,stim/negf.jpg,stim/6.jpg,stim/1.jpg,stim/latef.jpg,EF,2,4,0,31,31,52,,,,,,,,,,2,0,0.716425504976,,,,,,PLC_L_D1S2,P14,60.0187003528,01,C,2015_Feb_04_1726,Y,
stim/posf.jpg,stim/negf.jpg,stim/2.jpg,stim/3.jpg,stim/latef.jpg,CD,2,4,0,32,32,31,,,,,,,,,,4,1,0.982998537609,,,,,,PLC_L_D1S2,P14,60.0187003528,01,C,2015_Feb_04_1726,Y,
stim/negf.jpg,stim/posf.jpg,stim/3.jpg,stim/2.jpg,stim/latef.jpg,CD,1,2,0,33,33,27,,,,,,,,,,None,0,,,,,,,PLC_L_D1S2,P14,60.0187003528,01,C,2015_Feb_04_1726,Y,
stim/posf.jpg,stim/negf.jpg,stim/2.jpg,stim/3.jpg,stim/latef.jpg,CD,2,4,0,34,34,34,,,,,,,,,,4,1,0.916374946144,,,,,,PLC_L_D1S2,P14,60.0187003528,01,C,2015_Feb_04_1726,Y,
stim/posf.jpg,stim/negf.jpg,stim/4.jpg,stim/5.jpg,stim/latef.jpg,AB,1,2,0,35,35,1,,,,,,,,,,2,1,0.799726234669,,,,,,PLC_L_D1S2,P14,60.0187003528,01,C,2015_Feb_04_1726,Y,
stim/posf.jpg,stim/negf.jpg,stim/2.jpg,stim/3.jpg,stim/latef.jpg,CD,2,4,0,36,36,35,,,,,,,,,,4,1,0.833038442426,,,,,,PLC_L_D1S2,P14,60.0187003528,01,C,2015_Feb_04_1726,Y,
stim/negf.jpg,stim/posf.jpg,stim/4.jpg,stim/5.jpg,stim/latef.jpg,AB,1,2,0,37,37,9,,,,,,,,,,2,1,0.699765560541,,,,,,PLC_L_D1S2,P14,60.0187003528,01,C,2015_Feb_04_1726,Y,
stim/negf.jpg,stim/posf.jpg,stim/1.jpg,stim/6.jpg,stim/latef.jpg,EF,1,2,0,38,38,48,,,,,,,,,,4,0,1.1496233832,,,,,,PLC_L_D1S2,P14,60.0187003528,01,C,2015_Feb_04_1726,Y,
stim/posf.jpg,stim/negf.jpg,stim/2.jpg,stim/3.jpg,stim/latef.jpg,CD,2,4,0,39,39,32,,,,,,,,,,4,1,1.21627556682,,,,,,PLC_L_D1S2,P14,60.0187003528,01,C,2015_Feb_04_1726,Y,
stim/negf.jpg,stim/posf.jpg,stim/1.jpg,stim/6.jpg,stim/latef.jpg,EF,1,2,0,40,40,47,,,,,,,,,,2,1,1.31623029815,,,,,,PLC_L_D1S2,P14,60.0187003528,01,C,2015_Feb_04_1726,Y,
stim/negf.jpg,stim/posf.jpg,stim/3.jpg,stim/2.jpg,stim/latef.jpg,CD,1,2,0,41,41,29,,,,,,,,,,2,1,1.08298894674,,,,,,PLC_L_D1S2,P14,60.0187003528,01,C,2015_Feb_04_1726,Y,
stim/posf.jpg,stim/negf.jpg,stim/5.jpg,stim/4.jpg,stim/latef.jpg,AB,2,4,0,42,42,15,,,,,,,,,,4,1,0.833051332505,,,,,,PLC_L_D1S2,P14,60.0187003528,01,C,2015_Feb_04_1726,Y,
stim/posf.jpg,stim/negf.jpg,stim/1.jpg,stim/6.jpg,stim/latef.jpg,EF,1,2,0,43,43,41,,,,,,,,,,4,0,0.949671788665,,,,,,PLC_L_D1S2,P14,60.0187003528,01,C,2015_Feb_04_1726,Y,
stim/posf.jpg,stim/negf.jpg,stim/3.jpg,stim/2.jpg,stim/latef.jpg,CD,1,2,0,44,44,25,,,,,,,,,,2,1,0.816379899472,,,,,,PLC_L_D1S2,P14,60.0187003528,01,C,2015_Feb_04_1726,Y,
stim/negf.jpg,stim/posf.jpg,stim/2.jpg,stim/3.jpg,stim/latef.jpg,CD,2,4,0,45,45,39,,,,,,,,,,4,1,1.08297819498,,,,,,PLC_L_D1S2,P14,60.0187003528,01,C,2015_Feb_04_1726,Y,
stim/negf.jpg,stim/posf.jpg,stim/3.jpg,stim/2.jpg,stim/latef.jpg,CD,1,2,0,46,46,28,,,,,,,,,,2,1,1.08296939809,,,,,,PLC_L_D1S2,P14,60.0187003528,01,C,2015_Feb_04_1726,Y,
stim/posf.jpg,stim/negf.jpg,stim/3.jpg,stim/2.jpg,stim/latef.jpg,CD,1,2,0,47,47,22,,,,,,,,,,4,0,0.799730809049,,,,,,PLC_L_D1S2,P14,60.0187003528,01,C,2015_Feb_04_1726,Y,
stim/negf.jpg,stim/posf.jpg,stim/5.jpg,stim/4.jpg,stim/latef.jpg,AB,2,4,0,48,48,19,,,,,,,,,,4,1,0.799785124229,,,,,,PLC_L_D1S2,P14,60.0187003528,01,C,2015_Feb_04_1726,Y,
stim/posf.jpg,stim/negf.jpg,stim/1.jpg,stim/6.jpg,stim/latef.jpg,EF,1,2,0,49,49,44,,,,,,,,,,4,0,1.01633444134,,,,,,PLC_L_D1S2,P14,60.0187003528,01,C,2015_Feb_04_1726,Y,
stim/posf.jpg,stim/negf.jpg,stim/1.jpg,stim/6.jpg,stim/latef.jpg,EF,1,2,0,50,50,40,,,,,,,,,,4,0,1.14961483291,,,,,,PLC_L_D1S2,P14,60.0187003528,01,C,2015_Feb_04_1726,Y,
stim/posf.jpg,stim/negf.jpg,stim/4.jpg,stim/5.jpg,stim/latef.jpg,AB,1,2,0,51,51,0,,,,,,,,,,2,1,0.69972625572,,,,,,PLC_L_D1S2,P14,60.0187003528,01,C,2015_Feb_04_1726,Y,
stim/posf.jpg,stim/negf.jpg,stim/4.jpg,stim/5.jpg,stim/latef.jpg,AB,1,2,0,52,52,4,,,,,,,,,,2,1,0.783069273653,,,,,,PLC_L_D1S2,P14,60.0187003528,01,C,2015_Feb_04_1726,Y,
stim/negf.jpg,stim/posf.jpg,stim/1.jpg,stim/6.jpg,stim/latef.jpg,EF,1,2,0,53,53,49,,,,,,,,,,2,1,0.94968515994,,,,,,PLC_L_D1S2,P14,60.0187003528,01,C,2015_Feb_04_1726,Y,
stim/posf.jpg,stim/negf.jpg,stim/5.jpg,stim/4.jpg,stim/latef.jpg,AB,2,4,0,54,54,10,,,,,,,,,,4,1,0.766410057029,,,,,,PLC_L_D1S2,P14,60.0187003528,01,C,2015_Feb_04_1726,Y,
stim/negf.jpg,stim/posf.jpg,stim/5.jpg,stim/4.jpg,stim/latef.jpg,AB,2,4,0,55,55,18,,,,,,,,,,4,1,0.649786265567,,,,,,PLC_L_D1S2,P14,60.0187003528,01,C,2015_Feb_04_1726,Y,
stim/posf.jpg,stim/negf.jpg,stim/2.jpg,stim/3.jpg,stim/latef.jpg,CD,2,4,0,56,56,30,,,,,,,,,,2,0,1.11635301256,,,,,,PLC_L_D1S2,P14,60.0187003528,01,C,2015_Feb_04_1726,Y,
stim/negf.jpg,stim/posf.jpg,stim/2.jpg,stim/3.jpg,stim/latef.jpg,CD,2,4,0,57,57,38,,,,,,,,,,4,1,0.716385917451,,,,,,PLC_L_D1S2,P14,60.0187003528,01,C,2015_Feb_04_1726,Y,
stim/posf.jpg,stim/negf.jpg,stim/5.jpg,stim/4.jpg,stim/latef.jpg,AB,2,4,0,58,58,14,,,,,,,,,,4,1,0.733073341278,,,,,,PLC_L_D1S2,P14,60.0187003528,01,C,2015_Feb_04_1726,Y,
stim/posf.jpg,stim/negf.jpg,stim/1.jpg,stim/6.jpg,stim/latef.jpg,EF,1,2,0,59,59,43,,,,,,,,,,2,1,1.16629213956,,,,,,PLC_L_D1S2,P14,60.0187003528,01,C,2015_Feb_04_1726,Y,
,,,,,,,,,,,,,,,,,,,,,,,,0.9984375,1.0,1,0,0,PLC_L_D1S2,P14,60.0187003528,01,C,2015_Feb_04_1726,Y,
stim/negf.jpg,stim/posf.jpg,stim/6.jpg,stim/1.jpg,stim/latef.jpg,EF,2,4,,,,,0,0,0,58,,,,,,4,1,1.11627332323,,,,,,PLC_L_D1S2,P14,60.0187003528,01,C,2015_Feb_04_1726,Y,
stim/posf.jpg,stim/negf.jpg,stim/6.jpg,stim/1.jpg,stim/latef.jpg,EF,2,4,,,,,0,1,1,50,,,,,,2,0,0.983008501411,,,,,,PLC_L_D1S2,P14,60.0187003528,01,C,2015_Feb_04_1726,Y,
stim/negf.jpg,stim/posf.jpg,stim/6.jpg,stim/1.jpg,stim/latef.jpg,EF,2,4,,,,,0,2,2,57,,,,,,4,1,0.916346356997,,,,,,PLC_L_D1S2,P14,60.0187003528,01,C,2015_Feb_04_1726,Y,
stim/negf.jpg,stim/posf.jpg,stim/6.jpg,stim/1.jpg,stim/latef.jpg,EF,2,4,,,,,0,3,3,56,,,,,,4,1,1.39947276986,,,,,,PLC_L_D1S2,P14,60.0187003528,01,C,2015_Feb_04_1726,Y,
stim/negf.jpg,stim/posf.jpg,stim/3.jpg,stim/2.jpg,stim/latef.jpg,CD,1,2,,,,,0,4,4,29,,,,,,2,1,0.999650927246,,,,,,PLC_L_D1S2,P14,60.0187003528,01,C,2015_Feb_04_1726,Y,
stim/posf.jpg,stim/negf.jpg,stim/5.jpg,stim/4.jpg,stim/latef.jpg,AB,2,4,,,,,0,5,5,11,,,,,,4,1,0.816390428681,,,,,,PLC_L_D1S2,P14,60.0187003528,01,C,2015_Feb_04_1726,Y,
stim/posf.jpg,stim/negf.jpg,stim/2.jpg,stim/3.jpg,stim/latef.jpg,CD,2,4,,,,,0,6,6,32,,,,,,2,0,0.983016152448,,,,,,PLC_L_D1S2,P14,60.0187003528,01,C,2015_Feb_04_1726,Y,
stim/posf.jpg,stim/negf.jpg,stim/2.jpg,stim/3.jpg,stim/latef.jpg,CD,2,4,,,,,0,7,7,34,,,,,,4,1,1.08297444766,,,,,,PLC_L_D1S2,P14,60.0187003528,01,C,2015_Feb_04_1726,Y,
stim/negf.jpg,stim/posf.jpg,stim/2.jpg,stim/3.jpg,stim/latef.jpg,CD,2,4,,,,,0,8,8,37,,,,,,4,1,0.766422489975,,,,,,PLC_L_D1S2,P14,60.0187003528,01,C,2015_Feb_04_1726,Y,
stim/posf.jpg,stim/negf.jpg,stim/5.jpg,stim/4.jpg,stim/latef.jpg,AB,2,4,,,,,0,9,9,10,,,,,,4,1,0.91636956275,,,,,,PLC_L_D1S2,P14,60.0187003528,01,C,2015_Feb_04_1726,Y,
stim/negf.jpg,stim/posf.jpg,stim/3.jpg,stim/2.jpg,stim/latef.jpg,CD,1,2,,,,,0,10,10,26,,,,,,2,1,0.93300156765,,,,,,PLC_L_D1S2,P14,60.0187003528,01,C,2015_Feb_04_1726,Y,
stim/negf.jpg,stim/posf.jpg,stim/4.jpg,stim/5.jpg,stim/latef.jpg,AB,1,2,,,,,0,11,11,8,,,,,,2,1,1.06635165167,,,,,,PLC_L_D1S2,P14,60.0187003528,01,C,2015_Feb_04_1726,Y,
stim/negf.jpg,stim/posf.jpg,stim/6.jpg,stim/1.jpg,stim/latef.jpg,EF,2,4,,,,,0,12,12,59,,,,,,2,0,1.1662946448,,,,,,PLC_L_D1S2,P14,60.0187003528,01,C,2015_Feb_04_1726,Y,
stim/negf.jpg,stim/posf.jpg,stim/5.jpg,stim/4.jpg,stim/latef.jpg,AB,2,4,,,,,0,13,13,18,,,,,,4,1,0.816397706792,,,,,,PLC_L_D1S2,P14,60.0187003528,01,C,2015_Feb_04_1726,Y,
stim/posf.jpg,stim/negf.jpg,stim/4.jpg,stim/5.jpg,stim/latef.jpg,AB,1,2,,,,,0,14,14,2,,,,,,2,1,0.933041606295,,,,,,PLC_L_D1S2,P14,60.0187003528,01,C,2015_Feb_04_1726,Y,
stim/posf.jpg,stim/negf.jpg,stim/4.jpg,stim/5.jpg,stim/latef.jpg,AB,1,2,,,,,0,15,15,5,,,,,,2,1,0.849727210596,,,,,,PLC_L_D1S2,P14,60.0187003528,01,C,2015_Feb_04_1726,Y,
stim/posf.jpg,stim/negf.jpg,stim/4.jpg,stim/5.jpg,stim/latef.jpg,AB,1,2,,,,,0,16,16,3,,,,,,2,1,0.799737608973,,,,,,PLC_L_D1S2,P14,60.0187003528,01,C,2015_Feb_04_1726,Y,
stim/posf.jpg,stim/negf.jpg,stim/1.jpg,stim/6.jpg,stim/latef.jpg,EF,1,2,,,,,0,17,17,43,,,,,,4,0,0.999665742118,,,,,,PLC_L_D1S2,P14,60.0187003528,01,C,2015_Feb_04_1726,Y,
stim/posf.jpg,stim/negf.jpg,stim/6.jpg,stim/1.jpg,stim/latef.jpg,EF,2,4,,,,,0,18,18,54,,,,,,2,0,0.749796352673,,,,,,PLC_L_D1S2,P14,60.0187003528,01,C,2015_Feb_04_1726,Y,
stim/posf.jpg,stim/negf.jpg,stim/2.jpg,stim/3.jpg,stim/latef.jpg,CD,2,4,,,,,0,19,19,35,,,,,,4,1,0.98302198396,,,,,,PLC_L_D1S2,P14,60.0187003528,01,C,2015_Feb_04_1726,Y,
stim/negf.jpg,stim/posf.jpg,stim/4.jpg,stim/5.jpg,stim/latef.jpg,AB,1,2,,,,,0,20,20,6,,,,,,2,1,0.866384746038,,,,,,PLC_L_D1S2,P14,60.0187003528,01,C,2015_Feb_04_1726,Y,
stim/posf.jpg,stim/negf.jpg,stim/2.jpg,stim/3.jpg,stim/latef.jpg,CD,2,4,,,,,0,21,21,33,,,,,,4,1,0.899695970347,,,,,,PLC_L_D1S2,P14,60.0187003528,01,C,2015_Feb_04_1726,Y,
stim/negf.jpg,stim/posf.jpg,stim/5.jpg,stim/4.jpg,stim/latef.jpg,AB,2,4,,,,,0,22,22,17,,,,,,4,1,1.13295170656,,,,,,PLC_L_D1S2,P14,60.0187003528,01,C,2015_Feb_04_1726,Y,
stim/negf.jpg,stim/posf.jpg,stim/1.jpg,stim/6.jpg,stim/latef.jpg,EF,1,2,,,,,0,23,23,49,,,,,,4,0,1.04962379823,,,,,,PLC_L_D1S2,P14,60.0187003528,01,C,2015_Feb_04_1726,Y,
stim/negf.jpg,stim/posf.jpg,stim/1.jpg,stim/6.jpg,stim/latef.jpg,EF,1,2,,,,,0,24,24,47,,,,,,4,0,0.949611975804,,,,,,PLC_L_D1S2,P14,60.0187003528,01,C,2015_Feb_04_1726,Y,
stim/posf.jpg,stim/negf.jpg,stim/3.jpg,stim/2.jpg,stim/latef.jpg,CD,1,2,,,,,0,25,25,20,,,,,,2,1,0.899653664059,,,,,,PLC_L_D1S2,P14,60.0187003528,01,C,2015_Feb_04_1726,Y,
stim/posf.jpg,stim/negf.jpg,stim/6.jpg,stim/1.jpg,stim/latef.jpg,EF,2,4,,,,,0,26,26,53,,,,,,2,0,1.08295581629,,,,,,PLC_L_D1S2,P14,60.0187003528,01,C,2015_Feb_04_1726,Y,
stim/negf.jpg,stim/posf.jpg,stim/1.jpg,stim/6.jpg,stim/latef.jpg,EF,1,2,,,,,0,27,27,46,,,,,,4,0,0.816410413419,,,,,,PLC_L_D1S2,P14,60.0187003528,01,C,2015_Feb_04_1726,Y,
stim/negf.jpg,stim/posf.jpg,stim/4.jpg,stim/5.jpg,stim/latef.jpg,AB,1,2,,,,,0,28,28,7,,,,,,2,1,0.7997309895,,,,,,PLC_L_D1S2,P14,60.0187003528,01,C,2015_Feb_04_1726,Y,
stim/posf.jpg,stim/negf.jpg,stim/6.jpg,stim/1.jpg,stim/latef.jpg,EF,2,4,,,,,0,29,29,55,,,,,,2,0,0.683139032266,,,,,,PLC_L_D1S2,P14,60.0187003528,01,C,2015_Feb_04_1726,Y,
stim/negf.jpg,stim/posf.jpg,stim/3.jpg,stim/2.jpg,stim/latef.jpg,CD,1,2,,,,,0,30,30,27,,,,,,2,1,1.1496153472,,,,,,PLC_L_D1S2,P14,60.0187003528,01,C,2015_Feb_04_1726,Y,
stim/negf.jpg,stim/posf.jpg,stim/5.jpg,stim/4.jpg,stim/latef.jpg,AB,2,4,,,,,0,31,31,16,,,,,,4,1,0.916292712489,,,,,,PLC_L_D1S2,P14,60.0187003528,01,C,2015_Feb_04_1726,Y,
stim/posf.jpg,stim/negf.jpg,stim/1.jpg,stim/6.jpg,stim/latef.jpg,EF,1,2,,,,,0,32,32,41,,,,,,4,0,1.18294212922,,,,,,PLC_L_D1S2,P14,60.0187003528,01,C,2015_Feb_04_1726,Y,
stim/posf.jpg,stim/negf.jpg,stim/4.jpg,stim/5.jpg,stim/latef.jpg,AB,1,2,,,,,0,33,33,0,,,,,,4,0,1.03297409127,,,,,,PLC_L_D1S2,P14,60.0187003528,01,C,2015_Feb_04_1726,Y,
stim/negf.jpg,stim/posf.jpg,stim/1.jpg,stim/6.jpg,stim/latef.jpg,EF,1,2,,,,,0,34,34,48,,,,,,4,0,1.09959648275,,,,,,PLC_L_D1S2,P14,60.0187003528,01,C,2015_Feb_04_1726,Y,
stim/posf.jpg,stim/negf.jpg,stim/5.jpg,stim/4.jpg,stim/latef.jpg,AB,2,4,,,,,0,35,35,12,,,,,,4,1,0.916347223148,,,,,,PLC_L_D1S2,P14,60.0187003528,01,C,2015_Feb_04_1726,Y,
stim/negf.jpg,stim/posf.jpg,stim/5.jpg,stim/4.jpg,stim/latef.jpg,AB,2,4,,,,,0,36,36,19,,,,,,4,1,0.78306669624,,,,,,PLC_L_D1S2,P14,60.0187003528,01,C,2015_Feb_04_1726,Y,
stim/posf.jpg,stim/negf.jpg,stim/4.jpg,stim/5.jpg,stim/latef.jpg,AB,1,2,,,,,0,37,37,4,,,,,,2,1,0.966359374896,,,,,,PLC_L_D1S2,P14,60.0187003528,01,C,2015_Feb_04_1726,Y,
stim/negf.jpg,stim/posf.jpg,stim/3.jpg,stim/2.jpg,stim/latef.jpg,CD,1,2,,,,,0,38,38,28,,,,,,2,1,0.966310819051,,,,,,PLC_L_D1S2,P14,60.0187003528,01,C,2015_Feb_04_1726,Y,
stim/posf.jpg,stim/negf.jpg,stim/4.jpg,stim/5.jpg,stim/latef.jpg,AB,1,2,,,,,0,39,39,1,,,,,,2,1,0.749783922736,,,,,,PLC_L_D1S2,P14,60.0187003528,01,C,2015_Feb_04_1726,Y,
stim/posf.jpg,stim/negf.jpg,stim/1.jpg,stim/6.jpg,stim/latef.jpg,EF,1,2,,,,,0,40,40,40,,,,,,4,0,0.99966932704,,,,,,PLC_L_D1S2,P14,60.0187003528,01,C,2015_Feb_04_1726,Y,
stim/negf.jpg,stim/posf.jpg,stim/2.jpg,stim/3.jpg,stim/latef.jpg,CD,2,4,,,,,0,41,41,38,,,,,,4,1,0.949685481744,,,,,,PLC_L_D1S2,P14,60.0187003528,01,C,2015_Feb_04_1726,Y,
stim/posf.jpg,stim/negf.jpg,stim/6.jpg,stim/1.jpg,stim/latef.jpg,EF,2,4,,,,,0,42,42,51,,,,,,2,0,1.18291424082,,,,,,PLC_L_D1S2,P14,60.0187003528,01,C,2015_Feb_04_1726,Y,
stim/posf.jpg,stim/negf.jpg,stim/1.jpg,stim/6.jpg,stim/latef.jpg,EF,1,2,,,,,0,43,43,42,,,,,,4,0,1.0663412548,,,,,,PLC_L_D1S2,P14,60.0187003528,01,C,2015_Feb_04_1726,Y,
stim/negf.jpg,stim/posf.jpg,stim/1.jpg,stim/6.jpg,stim/latef.jpg,EF,1,2,,,,,0,44,44,45,,,,,,2,1,0.833063395527,,,,,,PLC_L_D1S2,P14,60.0187003528,01,C,2015_Feb_04_1726,Y,
stim/posf.jpg,stim/negf.jpg,stim/2.jpg,stim/3.jpg,stim/latef.jpg,CD,2,4,,,,,0,45,45,31,,,,,,4,1,0.899649814477,,,,,,PLC_L_D1S2,P14,60.0187003528,01,C,2015_Feb_04_1726,Y,
stim/posf.jpg,stim/negf.jpg,stim/3.jpg,stim/2.jpg,stim/latef.jpg,CD,1,2,,,,,0,46,46,25,,,,,,2,1,1.04962717263,,,,,,PLC_L_D1S2,P14,60.0187003528,01,C,2015_Feb_04_1726,Y,
stim/negf.jpg,stim/posf.jpg,stim/4.jpg,stim/5.jpg,stim/latef.jpg,AB,1,2,,,,,0,47,47,9,,,,,,2,1,0.76642529896,,,,,,PLC_L_D1S2,P14,60.0187003528,01,C,2015_Feb_04_1726,Y,
stim/posf.jpg,stim/negf.jpg,stim/3.jpg,stim/2.jpg,stim/latef.jpg,CD,1,2,,,,,0,48,48,24,,,,,,2,1,0.849721339986,,,,,,PLC_L_D1S2,P14,60.0187003528,01,C,2015_Feb_04_1726,Y,
stim/posf.jpg,stim/negf.jpg,stim/2.jpg,stim/3.jpg,stim/latef.jpg,CD,2,4,,,,,0,49,49,30,,,,,,4,1,0.899690830553,,,,,,PLC_L_D1S2,P14,60.0187003528,01,C,2015_Feb_04_1726,Y,
stim/posf.jpg,stim/negf.jpg,stim/3.jpg,stim/2.jpg,stim/latef.jpg,CD,1,2,,,,,0,50,50,21,,,,,,2,1,0.783075487117,,,,,,PLC_L_D1S2,P14,60.0187003528,01,C,2015_Feb_04_1726,Y,
stim/posf.jpg,stim/negf.jpg,stim/3.jpg,stim/2.jpg,stim/latef.jpg,CD,1,2,,,,,0,51,51,23,,,,,,2,1,0.833053013688,,,,,,PLC_L_D1S2,P14,60.0187003528,01,C,2015_Feb_04_1726,Y,
stim/posf.jpg,stim/negf.jpg,stim/5.jpg,stim/4.jpg,stim/latef.jpg,AB,2,4,,,,,0,52,52,15,,,,,,4,1,0.816372867976,,,,,,PLC_L_D1S2,P14,60.0187003528,01,C,2015_Feb_04_1726,Y,
stim/posf.jpg,stim/negf.jpg,stim/1.jpg,stim/6.jpg,stim/latef.jpg,EF,1,2,,,,,0,53,53,44,,,,,,4,0,1.18298275433,,,,,,PLC_L_D1S2,P14,60.0187003528,01,C,2015_Feb_04_1726,Y,
stim/posf.jpg,stim/negf.jpg,stim/3.jpg,stim/2.jpg,stim/latef.jpg,CD,1,2,,,,,0,54,54,22,,,,,,2,1,0.749748488553,,,,,,PLC_L_D1S2,P14,60.0187003528,01,C,2015_Feb_04_1726,Y,
stim/posf.jpg,stim/negf.jpg,stim/5.jpg,stim/4.jpg,stim/latef.jpg,AB,2,4,,,,,0,55,55,14,,,,,,4,1,0.749740987885,,,,,,PLC_L_D1S2,P14,60.0187003528,01,C,2015_Feb_04_1726,Y,
stim/negf.jpg,stim/posf.jpg,stim/2.jpg,stim/3.jpg,stim/latef.jpg,CD,2,4,,,,,0,56,56,39,,,,,,4,1,0.949679963007,,,,,,PLC_L_D1S2,P14,60.0187003528,01,C,2015_Feb_04_1726,Y,
stim/posf.jpg,stim/negf.jpg,stim/6.jpg,stim/1.jpg,stim/latef.jpg,EF,2,4,,,,,0,57,57,52,,,,,,4,1,0.899761876368,,,,,,PLC_L_D1S2,P14,60.0187003528,01,C,2015_Feb_04_1726,Y,
stim/posf.jpg,stim/negf.jpg,stim/5.jpg,stim/4.jpg,stim/latef.jpg,AB,2,4,,,,,0,58,58,13,,,,,,4,1,0.799703528155,,,,,,PLC_L_D1S2,P14,60.0187003528,01,C,2015_Feb_04_1726,Y,
stim/negf.jpg,stim/posf.jpg,stim/2.jpg,stim/3.jpg,stim/latef.jpg,CD,2,4,,,,,0,59,59,36,,,,,,4,1,0.66642564482,,,,,,PLC_L_D1S2,P14,60.0187003528,01,C,2015_Feb_04_1726,Y,
