fb_corr,fb_incorr,symbol2,symbol1,fb_late,pair,position,correct,block_01.thisRepN,block_01.thisTrialN,block_01.thisN,block_01.thisIndex,block_02.thisRepN,block_02.thisTrialN,block_02.thisN,block_02.thisIndex,mouse.x,mouse.y,mouse.leftButton,mouse.midButton,mouse.rightButton,buttonBox_2.keys,buttonBox_2.corr,buttonBox_2.rt,mouse_2.x,mouse_2.y,mouse_2.leftButton,mouse_2.midButton,mouse_2.rightButton,expName,Participant,frameRate,SessionNumber,Version,date,Group,
,,,,,,,,,,,,,,,,0.653125,0.61328125,1,0,0,,,,,,,,,PLC_L_D1S2,P15,60.0208853059,01,A,2015_Feb_06_1547,Y,
stim/negf.jpg,stim/posf.jpg,stim/2.jpg,stim/3.jpg,stim/latef.jpg,EF,1,2,0,0,0,48,,,,,,,,,,4,0,1.33295837174,,,,,,PLC_L_D1S2,P15,60.0208853059,01,A,2015_Feb_06_1547,Y,
stim/posf.jpg,stim/negf.jpg,stim/5.jpg,stim/4.jpg,stim/latef.jpg,AB,1,2,0,1,1,2,,,,,,,,,,4,0,1.41618758054,,,,,,PLC_L_D1S2,P15,60.0208853059,01,A,2015_Feb_06_1547,Y,
stim/negf.jpg,stim/posf.jpg,stim/4.jpg,stim/5.jpg,stim/latef.jpg,AB,2,4,0,2,2,18,,,,,,,,,,4,1,1.33288580988,,,,,,PLC_L_D1S2,P15,60.0208853059,01,A,2015_Feb_06_1547,Y,
stim/posf.jpg,stim/negf.jpg,stim/4.jpg,stim/5.jpg,stim/latef.jpg,AB,2,4,0,3,3,11,,,,,,,,,,4,1,1.3995516966,,,,,,PLC_L_D1S2,P15,60.0208853059,01,A,2015_Feb_06_1547,Y,
stim/posf.jpg,stim/negf.jpg,stim/6.jpg,stim/1.jpg,stim/latef.jpg,CD,1,2,0,4,4,20,,,,,,,,,,2,1,1.39954208164,,,,,,PLC_L_D1S2,P15,60.0208853059,01,A,2015_Feb_06_1547,Y,
stim/negf.jpg,stim/posf.jpg,stim/6.jpg,stim/1.jpg,stim/latef.jpg,CD,1,2,0,5,5,26,,,,,,,,,,2,1,0.916332710281,,,,,,PLC_L_D1S2,P15,60.0208853059,01,A,2015_Feb_06_1547,Y,
stim/posf.jpg,stim/negf.jpg,stim/2.jpg,stim/3.jpg,stim/latef.jpg,EF,1,2,0,6,6,44,,,,,,,,,,4,0,0.949690814355,,,,,,PLC_L_D1S2,P15,60.0208853059,01,A,2015_Feb_06_1547,Y,
stim/negf.jpg,stim/posf.jpg,stim/3.jpg,stim/2.jpg,stim/latef.jpg,EF,2,4,0,7,7,58,,,,,,,,,,2,0,0.966324620116,,,,,,PLC_L_D1S2,P15,60.0208853059,01,A,2015_Feb_06_1547,Y,
stim/posf.jpg,stim/negf.jpg,stim/5.jpg,stim/4.jpg,stim/latef.jpg,AB,1,2,0,8,8,0,,,,,,,,,,2,1,1.46618649183,,,,,,PLC_L_D1S2,P15,60.0208853059,01,A,2015_Feb_06_1547,Y,
stim/posf.jpg,stim/negf.jpg,stim/5.jpg,stim/4.jpg,stim/latef.jpg,AB,1,2,0,9,9,5,,,,,,,,,,2,1,0.983012311186,,,,,,PLC_L_D1S2,P15,60.0208853059,01,A,2015_Feb_06_1547,Y,
stim/posf.jpg,stim/negf.jpg,stim/2.jpg,stim/3.jpg,stim/latef.jpg,EF,1,2,0,10,10,45,,,,,,,,,,None,0,,,,,,,PLC_L_D1S2,P15,60.0208853059,01,A,2015_Feb_06_1547,Y,
stim/posf.jpg,stim/negf.jpg,stim/3.jpg,stim/2.jpg,stim/latef.jpg,EF,2,4,0,11,11,52,,,,,,,,,,4,1,1.13296337321,,,,,,PLC_L_D1S2,P15,60.0208853059,01,A,2015_Feb_06_1547,Y,
stim/negf.jpg,stim/posf.jpg,stim/1.jpg,stim/6.jpg,stim/latef.jpg,CD,2,4,0,12,12,39,,,,,,,,,,4,1,0.966345173344,,,,,,PLC_L_D1S2,P15,60.0208853059,01,A,2015_Feb_06_1547,Y,
stim/negf.jpg,stim/posf.jpg,stim/3.jpg,stim/2.jpg,stim/latef.jpg,EF,2,4,0,13,13,56,,,,,,,,,,4,1,1.03297019722,,,,,,PLC_L_D1S2,P15,60.0208853059,01,A,2015_Feb_06_1547,Y,
stim/posf.jpg,stim/negf.jpg,stim/3.jpg,stim/2.jpg,stim/latef.jpg,EF,2,4,0,14,14,51,,,,,,,,,,4,1,1.01633395538,,,,,,PLC_L_D1S2,P15,60.0208853059,01,A,2015_Feb_06_1547,Y,
stim/posf.jpg,stim/negf.jpg,stim/5.jpg,stim/4.jpg,stim/latef.jpg,AB,1,2,0,15,15,1,,,,,,,,,,4,0,1.13298391741,,,,,,PLC_L_D1S2,P15,60.0208853059,01,A,2015_Feb_06_1547,Y,
stim/posf.jpg,stim/negf.jpg,stim/1.jpg,stim/6.jpg,stim/latef.jpg,CD,2,4,0,16,16,30,,,,,,,,,,2,0,0.899715196127,,,,,,PLC_L_D1S2,P15,60.0208853059,01,A,2015_Feb_06_1547,Y,
stim/negf.jpg,stim/posf.jpg,stim/6.jpg,stim/1.jpg,stim/latef.jpg,CD,1,2,0,17,17,29,,,,,,,,,,2,1,1.06630817813,,,,,,PLC_L_D1S2,P15,60.0208853059,01,A,2015_Feb_06_1547,Y,
stim/posf.jpg,stim/negf.jpg,stim/1.jpg,stim/6.jpg,stim/latef.jpg,CD,2,4,0,18,18,32,,,,,,,,,,2,0,1.01634249968,,,,,,PLC_L_D1S2,P15,60.0208853059,01,A,2015_Feb_06_1547,Y,
stim/negf.jpg,stim/posf.jpg,stim/5.jpg,stim/4.jpg,stim/latef.jpg,AB,1,2,0,19,19,8,,,,,,,,,,2,1,1.1996177743,,,,,,PLC_L_D1S2,P15,60.0208853059,01,A,2015_Feb_06_1547,Y,
stim/posf.jpg,stim/negf.jpg,stim/1.jpg,stim/6.jpg,stim/latef.jpg,CD,2,4,0,20,20,34,,,,,,,,,,4,1,0.966367125059,,,,,,PLC_L_D1S2,P15,60.0208853059,01,A,2015_Feb_06_1547,Y,
stim/posf.jpg,stim/negf.jpg,stim/3.jpg,stim/2.jpg,stim/latef.jpg,EF,2,4,0,21,21,50,,,,,,,,,,2,0,1.16627639792,,,,,,PLC_L_D1S2,P15,60.0208853059,01,A,2015_Feb_06_1547,Y,
stim/posf.jpg,stim/negf.jpg,stim/4.jpg,stim/5.jpg,stim/latef.jpg,AB,2,4,0,22,22,10,,,,,,,,,,4,1,0.983011619462,,,,,,PLC_L_D1S2,P15,60.0208853059,01,A,2015_Feb_06_1547,Y,
stim/posf.jpg,stim/negf.jpg,stim/6.jpg,stim/1.jpg,stim/latef.jpg,CD,1,2,0,23,23,24,,,,,,,,,,2,1,1.06632407877,,,,,,PLC_L_D1S2,P15,60.0208853059,01,A,2015_Feb_06_1547,Y,
stim/negf.jpg,stim/posf.jpg,stim/4.jpg,stim/5.jpg,stim/latef.jpg,AB,2,4,0,24,24,17,,,,,,,,,,4,1,0.983004608987,,,,,,PLC_L_D1S2,P15,60.0208853059,01,A,2015_Feb_06_1547,Y,
stim/posf.jpg,stim/negf.jpg,stim/1.jpg,stim/6.jpg,stim/latef.jpg,CD,2,4,0,25,25,31,,,,,,,,,,4,1,1.11630385636,,,,,,PLC_L_D1S2,P15,60.0208853059,01,A,2015_Feb_06_1547,Y,
stim/posf.jpg,stim/negf.jpg,stim/2.jpg,stim/3.jpg,stim/latef.jpg,EF,1,2,0,26,26,41,,,,,,,,,,2,1,0.949685641461,,,,,,PLC_L_D1S2,P15,60.0208853059,01,A,2015_Feb_06_1547,Y,
stim/negf.jpg,stim/posf.jpg,stim/3.jpg,stim/2.jpg,stim/latef.jpg,EF,2,4,0,27,27,59,,,,,,,,,,2,0,1.08292432087,,,,,,PLC_L_D1S2,P15,60.0208853059,01,A,2015_Feb_06_1547,Y,
stim/posf.jpg,stim/negf.jpg,stim/2.jpg,stim/3.jpg,stim/latef.jpg,EF,1,2,0,28,28,42,,,,,,,,,,2,1,1.09965041165,,,,,,PLC_L_D1S2,P15,60.0208853059,01,A,2015_Feb_06_1547,Y,
stim/negf.jpg,stim/posf.jpg,stim/1.jpg,stim/6.jpg,stim/latef.jpg,CD,2,4,0,29,29,38,,,,,,,,,,4,1,0.833061086759,,,,,,PLC_L_D1S2,P15,60.0208853059,01,A,2015_Feb_06_1547,Y,
stim/negf.jpg,stim/posf.jpg,stim/3.jpg,stim/2.jpg,stim/latef.jpg,EF,2,4,0,30,30,55,,,,,,,,,,2,0,0.883038530537,,,,,,PLC_L_D1S2,P15,60.0208853059,01,A,2015_Feb_06_1547,Y,
stim/posf.jpg,stim/negf.jpg,stim/1.jpg,stim/6.jpg,stim/latef.jpg,CD,2,4,0,31,31,35,,,,,,,,,,2,0,1.29958089939,,,,,,PLC_L_D1S2,P15,60.0208853059,01,A,2015_Feb_06_1547,Y,
stim/posf.jpg,stim/negf.jpg,stim/4.jpg,stim/5.jpg,stim/latef.jpg,AB,2,4,0,32,32,15,,,,,,,,,,2,0,0.64978664822,,,,,,PLC_L_D1S2,P15,60.0208853059,01,A,2015_Feb_06_1547,Y,
stim/negf.jpg,stim/posf.jpg,stim/5.jpg,stim/4.jpg,stim/latef.jpg,AB,1,2,0,33,33,6,,,,,,,,,,4,0,0.949676327245,,,,,,PLC_L_D1S2,P15,60.0208853059,01,A,2015_Feb_06_1547,Y,
stim/negf.jpg,stim/posf.jpg,stim/2.jpg,stim/3.jpg,stim/latef.jpg,EF,1,2,0,34,34,47,,,,,,,,,,2,1,0.799748194374,,,,,,PLC_L_D1S2,P15,60.0208853059,01,A,2015_Feb_06_1547,Y,
stim/posf.jpg,stim/negf.jpg,stim/3.jpg,stim/2.jpg,stim/latef.jpg,EF,2,4,0,35,35,53,,,,,,,,,,4,1,0.666448240238,,,,,,PLC_L_D1S2,P15,60.0208853059,01,A,2015_Feb_06_1547,Y,
stim/negf.jpg,stim/posf.jpg,stim/6.jpg,stim/1.jpg,stim/latef.jpg,CD,1,2,0,36,36,28,,,,,,,,,,4,0,0.666446243261,,,,,,PLC_L_D1S2,P15,60.0208853059,01,A,2015_Feb_06_1547,Y,
stim/negf.jpg,stim/posf.jpg,stim/2.jpg,stim/3.jpg,stim/latef.jpg,EF,1,2,0,37,37,46,,,,,,,,,,2,1,0.749728251667,,,,,,PLC_L_D1S2,P15,60.0208853059,01,A,2015_Feb_06_1547,Y,
stim/negf.jpg,stim/posf.jpg,stim/5.jpg,stim/4.jpg,stim/latef.jpg,AB,1,2,0,38,38,7,,,,,,,,,,4,0,0.716429590755,,,,,,PLC_L_D1S2,P15,60.0208853059,01,A,2015_Feb_06_1547,Y,
stim/posf.jpg,stim/negf.jpg,stim/6.jpg,stim/1.jpg,stim/latef.jpg,CD,1,2,0,39,39,22,,,,,,,,,,4,0,0.633132875693,,,,,,PLC_L_D1S2,P15,60.0208853059,01,A,2015_Feb_06_1547,Y,
stim/negf.jpg,stim/posf.jpg,stim/1.jpg,stim/6.jpg,stim/latef.jpg,CD,2,4,0,40,40,36,,,,,,,,,,2,0,0.766426255442,,,,,,PLC_L_D1S2,P15,60.0208853059,01,A,2015_Feb_06_1547,Y,
stim/negf.jpg,stim/posf.jpg,stim/3.jpg,stim/2.jpg,stim/latef.jpg,EF,2,4,0,41,41,57,,,,,,,,,,4,1,1.14961750964,,,,,,PLC_L_D1S2,P15,60.0208853059,01,A,2015_Feb_06_1547,Y,
stim/posf.jpg,stim/negf.jpg,stim/6.jpg,stim/1.jpg,stim/latef.jpg,CD,1,2,0,42,42,25,,,,,,,,,,4,0,0.899709779626,,,,,,PLC_L_D1S2,P15,60.0208853059,01,A,2015_Feb_06_1547,Y,
stim/posf.jpg,stim/negf.jpg,stim/4.jpg,stim/5.jpg,stim/latef.jpg,AB,2,4,0,43,43,13,,,,,,,,,,2,0,0.583195332366,,,,,,PLC_L_D1S2,P15,60.0208853059,01,A,2015_Feb_06_1547,Y,
stim/negf.jpg,stim/posf.jpg,stim/4.jpg,stim/5.jpg,stim/latef.jpg,AB,2,4,0,44,44,16,,,,,,,,,,2,0,0.833034942594,,,,,,PLC_L_D1S2,P15,60.0208853059,01,A,2015_Feb_06_1547,Y,
stim/negf.jpg,stim/posf.jpg,stim/1.jpg,stim/6.jpg,stim/latef.jpg,CD,2,4,0,45,45,37,,,,,,,,,,4,1,0.733093727115,,,,,,PLC_L_D1S2,P15,60.0208853059,01,A,2015_Feb_06_1547,Y,
stim/posf.jpg,stim/negf.jpg,stim/5.jpg,stim/4.jpg,stim/latef.jpg,AB,1,2,0,46,46,3,,,,,,,,,,4,0,0.816407575883,,,,,,PLC_L_D1S2,P15,60.0208853059,01,A,2015_Feb_06_1547,Y,
stim/posf.jpg,stim/negf.jpg,stim/4.jpg,stim/5.jpg,stim/latef.jpg,AB,2,4,0,47,47,14,,,,,,,,,,4,1,0.983013105165,,,,,,PLC_L_D1S2,P15,60.0208853059,01,A,2015_Feb_06_1547,Y,
stim/negf.jpg,stim/posf.jpg,stim/6.jpg,stim/1.jpg,stim/latef.jpg,CD,1,2,0,48,48,27,,,,,,,,,,2,1,0.999597930842,,,,,,PLC_L_D1S2,P15,60.0208853059,01,A,2015_Feb_06_1547,Y,
stim/posf.jpg,stim/negf.jpg,stim/6.jpg,stim/1.jpg,stim/latef.jpg,CD,1,2,0,49,49,21,,,,,,,,,,4,0,1.16626791979,,,,,,PLC_L_D1S2,P15,60.0208853059,01,A,2015_Feb_06_1547,Y,
stim/posf.jpg,stim/negf.jpg,stim/4.jpg,stim/5.jpg,stim/latef.jpg,AB,2,4,0,50,50,12,,,,,,,,,,4,1,1.03299644063,,,,,,PLC_L_D1S2,P15,60.0208853059,01,A,2015_Feb_06_1547,Y,
stim/posf.jpg,stim/negf.jpg,stim/1.jpg,stim/6.jpg,stim/latef.jpg,CD,2,4,0,51,51,33,,,,,,,,,,4,1,1.08298936098,,,,,,PLC_L_D1S2,P15,60.0208853059,01,A,2015_Feb_06_1547,Y,
stim/posf.jpg,stim/negf.jpg,stim/2.jpg,stim/3.jpg,stim/latef.jpg,EF,1,2,0,52,52,43,,,,,,,,,,2,1,1.08295078984,,,,,,PLC_L_D1S2,P15,60.0208853059,01,A,2015_Feb_06_1547,Y,
stim/posf.jpg,stim/negf.jpg,stim/5.jpg,stim/4.jpg,stim/latef.jpg,AB,1,2,0,53,53,4,,,,,,,,,,2,1,0.83305628078,,,,,,PLC_L_D1S2,P15,60.0208853059,01,A,2015_Feb_06_1547,Y,
stim/posf.jpg,stim/negf.jpg,stim/3.jpg,stim/2.jpg,stim/latef.jpg,EF,2,4,0,54,54,54,,,,,,,,,,2,0,1.23293363208,,,,,,PLC_L_D1S2,P15,60.0208853059,01,A,2015_Feb_06_1547,Y,
stim/negf.jpg,stim/posf.jpg,stim/5.jpg,stim/4.jpg,stim/latef.jpg,AB,1,2,0,55,55,9,,,,,,,,,,4,0,0.699762612311,,,,,,PLC_L_D1S2,P15,60.0208853059,01,A,2015_Feb_06_1547,Y,
stim/negf.jpg,stim/posf.jpg,stim/4.jpg,stim/5.jpg,stim/latef.jpg,AB,2,4,0,56,56,19,,,,,,,,,,2,0,0.616446628221,,,,,,PLC_L_D1S2,P15,60.0208853059,01,A,2015_Feb_06_1547,Y,
stim/negf.jpg,stim/posf.jpg,stim/2.jpg,stim/3.jpg,stim/latef.jpg,EF,1,2,0,57,57,49,,,,,,,,,,4,0,1.06631782017,,,,,,PLC_L_D1S2,P15,60.0208853059,01,A,2015_Feb_06_1547,Y,
stim/posf.jpg,stim/negf.jpg,stim/6.jpg,stim/1.jpg,stim/latef.jpg,CD,1,2,0,58,58,23,,,,,,,,,,4,0,0.983000296239,,,,,,PLC_L_D1S2,P15,60.0208853059,01,A,2015_Feb_06_1547,Y,
stim/posf.jpg,stim/negf.jpg,stim/2.jpg,stim/3.jpg,stim/latef.jpg,EF,1,2,0,59,59,40,,,,,,,,,,4,0,1.5828311727,,,,,,PLC_L_D1S2,P15,60.0208853059,01,A,2015_Feb_06_1547,Y,
,,,,,,,,,,,,,,,,,,,,,,,,0.971875,0.966796875,1,0,0,PLC_L_D1S2,P15,60.0208853059,01,A,2015_Feb_06_1547,Y,
stim/negf.jpg,stim/posf.jpg,stim/3.jpg,stim/2.jpg,stim/latef.jpg,EF,2,4,,,,,0,0,0,57,,,,,,4,1,1.28297175811,,,,,,PLC_L_D1S2,P15,60.0208853059,01,A,2015_Feb_06_1547,Y,
stim/posf.jpg,stim/negf.jpg,stim/3.jpg,stim/2.jpg,stim/latef.jpg,EF,2,4,,,,,0,1,1,50,,,,,,2,0,0.583139729777,,,,,,PLC_L_D1S2,P15,60.0208853059,01,A,2015_Feb_06_1547,Y,
stim/negf.jpg,stim/posf.jpg,stim/1.jpg,stim/6.jpg,stim/latef.jpg,CD,2,4,,,,,0,2,2,36,,,,,,2,0,0.816368322043,,,,,,PLC_L_D1S2,P15,60.0208853059,01,A,2015_Feb_06_1547,Y,
stim/negf.jpg,stim/posf.jpg,stim/6.jpg,stim/1.jpg,stim/latef.jpg,CD,1,2,,,,,0,3,3,29,,,,,,4,0,0.899702321035,,,,,,PLC_L_D1S2,P15,60.0208853059,01,A,2015_Feb_06_1547,Y,
stim/negf.jpg,stim/posf.jpg,stim/2.jpg,stim/3.jpg,stim/latef.jpg,EF,1,2,,,,,0,4,4,46,,,,,,4,0,0.983012783363,,,,,,PLC_L_D1S2,P15,60.0208853059,01,A,2015_Feb_06_1547,Y,
stim/posf.jpg,stim/negf.jpg,stim/4.jpg,stim/5.jpg,stim/latef.jpg,AB,2,4,,,,,0,5,5,15,,,,,,2,0,0.78301488861,,,,,,PLC_L_D1S2,P15,60.0208853059,01,A,2015_Feb_06_1547,Y,
stim/posf.jpg,stim/negf.jpg,stim/1.jpg,stim/6.jpg,stim/latef.jpg,CD,2,4,,,,,0,6,6,33,,,,,,2,0,1.01632831031,,,,,,PLC_L_D1S2,P15,60.0208853059,01,A,2015_Feb_06_1547,Y,
stim/posf.jpg,stim/negf.jpg,stim/2.jpg,stim/3.jpg,stim/latef.jpg,EF,1,2,,,,,0,7,7,41,,,,,,4,0,0.899705214247,,,,,,PLC_L_D1S2,P15,60.0208853059,01,A,2015_Feb_06_1547,Y,
stim/posf.jpg,stim/negf.jpg,stim/4.jpg,stim/5.jpg,stim/latef.jpg,AB,2,4,,,,,0,8,8,14,,,,,,2,0,0.933032729077,,,,,,PLC_L_D1S2,P15,60.0208853059,01,A,2015_Feb_06_1547,Y,
stim/negf.jpg,stim/posf.jpg,stim/5.jpg,stim/4.jpg,stim/latef.jpg,AB,1,2,,,,,0,9,9,7,,,,,,4,0,0.633131014052,,,,,,PLC_L_D1S2,P15,60.0208853059,01,A,2015_Feb_06_1547,Y,
stim/negf.jpg,stim/posf.jpg,stim/6.jpg,stim/1.jpg,stim/latef.jpg,CD,1,2,,,,,0,10,10,27,,,,,,4,0,0.866373134037,,,,,,PLC_L_D1S2,P15,60.0208853059,01,A,2015_Feb_06_1547,Y,
stim/negf.jpg,stim/posf.jpg,stim/1.jpg,stim/6.jpg,stim/latef.jpg,CD,2,4,,,,,0,11,11,39,,,,,,2,0,1.5828139638,,,,,,PLC_L_D1S2,P15,60.0208853059,01,A,2015_Feb_06_1547,Y,
stim/posf.jpg,stim/negf.jpg,stim/1.jpg,stim/6.jpg,stim/latef.jpg,CD,2,4,,,,,0,12,12,34,,,,,,4,1,1.04964815904,,,,,,PLC_L_D1S2,P15,60.0208853059,01,A,2015_Feb_06_1547,Y,
stim/negf.jpg,stim/posf.jpg,stim/3.jpg,stim/2.jpg,stim/latef.jpg,EF,2,4,,,,,0,13,13,58,,,,,,2,0,1.09961790663,,,,,,PLC_L_D1S2,P15,60.0208853059,01,A,2015_Feb_06_1547,Y,
stim/posf.jpg,stim/negf.jpg,stim/4.jpg,stim/5.jpg,stim/latef.jpg,AB,2,4,,,,,0,14,14,12,,,,,,2,0,0.76642128405,,,,,,PLC_L_D1S2,P15,60.0208853059,01,A,2015_Feb_06_1547,Y,
stim/posf.jpg,stim/negf.jpg,stim/2.jpg,stim/3.jpg,stim/latef.jpg,EF,1,2,,,,,0,15,15,40,,,,,,2,1,0.766425632891,,,,,,PLC_L_D1S2,P15,60.0208853059,01,A,2015_Feb_06_1547,Y,
stim/negf.jpg,stim/posf.jpg,stim/6.jpg,stim/1.jpg,stim/latef.jpg,CD,1,2,,,,,0,16,16,26,,,,,,4,0,0.583141964346,,,,,,PLC_L_D1S2,P15,60.0208853059,01,A,2015_Feb_06_1547,Y,
stim/posf.jpg,stim/negf.jpg,stim/5.jpg,stim/4.jpg,stim/latef.jpg,AB,1,2,,,,,0,17,17,1,,,,,,4,0,0.69981625702,,,,,,PLC_L_D1S2,P15,60.0208853059,01,A,2015_Feb_06_1547,Y,
stim/negf.jpg,stim/posf.jpg,stim/3.jpg,stim/2.jpg,stim/latef.jpg,EF,2,4,,,,,0,18,18,59,,,,,,4,1,0.782994200044,,,,,,PLC_L_D1S2,P15,60.0208853059,01,A,2015_Feb_06_1547,Y,
stim/posf.jpg,stim/negf.jpg,stim/3.jpg,stim/2.jpg,stim/latef.jpg,EF,2,4,,,,,0,19,19,52,,,,,,2,0,0.833046001158,,,,,,PLC_L_D1S2,P15,60.0208853059,01,A,2015_Feb_06_1547,Y,
stim/posf.jpg,stim/negf.jpg,stim/3.jpg,stim/2.jpg,stim/latef.jpg,EF,2,4,,,,,0,20,20,51,,,,,,4,1,0.633085850483,,,,,,PLC_L_D1S2,P15,60.0208853059,01,A,2015_Feb_06_1547,Y,
stim/posf.jpg,stim/negf.jpg,stim/5.jpg,stim/4.jpg,stim/latef.jpg,AB,1,2,,,,,0,21,21,2,,,,,,4,0,0.783085688077,,,,,,PLC_L_D1S2,P15,60.0208853059,01,A,2015_Feb_06_1547,Y,
stim/negf.jpg,stim/posf.jpg,stim/4.jpg,stim/5.jpg,stim/latef.jpg,AB,2,4,,,,,0,22,22,19,,,,,,2,0,0.683082172315,,,,,,PLC_L_D1S2,P15,60.0208853059,01,A,2015_Feb_06_1547,Y,
stim/posf.jpg,stim/negf.jpg,stim/4.jpg,stim/5.jpg,stim/latef.jpg,AB,2,4,,,,,0,23,23,10,,,,,,2,0,1.13295938828,,,,,,PLC_L_D1S2,P15,60.0208853059,01,A,2015_Feb_06_1547,Y,
stim/posf.jpg,stim/negf.jpg,stim/1.jpg,stim/6.jpg,stim/latef.jpg,CD,2,4,,,,,0,24,24,35,,,,,,2,0,1.06633030428,,,,,,PLC_L_D1S2,P15,60.0208853059,01,A,2015_Feb_06_1547,Y,
stim/posf.jpg,stim/negf.jpg,stim/1.jpg,stim/6.jpg,stim/latef.jpg,CD,2,4,,,,,0,25,25,30,,,,,,4,1,0.716441058338,,,,,,PLC_L_D1S2,P15,60.0208853059,01,A,2015_Feb_06_1547,Y,
stim/negf.jpg,stim/posf.jpg,stim/1.jpg,stim/6.jpg,stim/latef.jpg,CD,2,4,,,,,0,26,26,37,,,,,,4,1,0.733102472914,,,,,,PLC_L_D1S2,P15,60.0208853059,01,A,2015_Feb_06_1547,Y,
stim/negf.jpg,stim/posf.jpg,stim/4.jpg,stim/5.jpg,stim/latef.jpg,AB,2,4,,,,,0,27,27,16,,,,,,4,1,0.983071182924,,,,,,PLC_L_D1S2,P15,60.0208853059,01,A,2015_Feb_06_1547,Y,
stim/negf.jpg,stim/posf.jpg,stim/5.jpg,stim/4.jpg,stim/latef.jpg,AB,1,2,,,,,0,28,28,6,,,,,,4,0,1.19961558184,,,,,,PLC_L_D1S2,P15,60.0208853059,01,A,2015_Feb_06_1547,Y,
stim/posf.jpg,stim/negf.jpg,stim/5.jpg,stim/4.jpg,stim/latef.jpg,AB,1,2,,,,,0,29,29,0,,,,,,2,1,0.749753334185,,,,,,PLC_L_D1S2,P15,60.0208853059,01,A,2015_Feb_06_1547,Y,
stim/negf.jpg,stim/posf.jpg,stim/4.jpg,stim/5.jpg,stim/latef.jpg,AB,2,4,,,,,0,30,30,18,,,,,,4,1,0.966367564154,,,,,,PLC_L_D1S2,P15,60.0208853059,01,A,2015_Feb_06_1547,Y,
stim/posf.jpg,stim/negf.jpg,stim/3.jpg,stim/2.jpg,stim/latef.jpg,EF,2,4,,,,,0,31,31,54,,,,,,2,0,1.21628504447,,,,,,PLC_L_D1S2,P15,60.0208853059,01,A,2015_Feb_06_1547,Y,
stim/posf.jpg,stim/negf.jpg,stim/4.jpg,stim/5.jpg,stim/latef.jpg,AB,2,4,,,,,0,32,32,13,,,,,,2,0,1.29958970835,,,,,,PLC_L_D1S2,P15,60.0208853059,01,A,2015_Feb_06_1547,Y,
stim/posf.jpg,stim/negf.jpg,stim/6.jpg,stim/1.jpg,stim/latef.jpg,CD,1,2,,,,,0,33,33,25,,,,,,4,0,1.01634010872,,,,,,PLC_L_D1S2,P15,60.0208853059,01,A,2015_Feb_06_1547,Y,
stim/negf.jpg,stim/posf.jpg,stim/2.jpg,stim/3.jpg,stim/latef.jpg,EF,1,2,,,,,0,34,34,45,,,,,,2,1,0.866329594514,,,,,,PLC_L_D1S2,P15,60.0208853059,01,A,2015_Feb_06_1547,Y,
stim/negf.jpg,stim/posf.jpg,stim/5.jpg,stim/4.jpg,stim/latef.jpg,AB,1,2,,,,,0,35,35,8,,,,,,4,0,0.683098984218,,,,,,PLC_L_D1S2,P15,60.0208853059,01,A,2015_Feb_06_1547,Y,
stim/negf.jpg,stim/posf.jpg,stim/2.jpg,stim/3.jpg,stim/latef.jpg,EF,1,2,,,,,0,36,36,49,,,,,,2,1,0.633165128082,,,,,,PLC_L_D1S2,P15,60.0208853059,01,A,2015_Feb_06_1547,Y,
stim/posf.jpg,stim/negf.jpg,stim/1.jpg,stim/6.jpg,stim/latef.jpg,CD,2,4,,,,,0,37,37,32,,,,,,2,0,0.633115441237,,,,,,PLC_L_D1S2,P15,60.0208853059,01,A,2015_Feb_06_1547,Y,
stim/negf.jpg,stim/posf.jpg,stim/2.jpg,stim/3.jpg,stim/latef.jpg,EF,1,2,,,,,0,38,38,48,,,,,,2,1,1.09962747949,,,,,,PLC_L_D1S2,P15,60.0208853059,01,A,2015_Feb_06_1547,Y,
stim/posf.jpg,stim/negf.jpg,stim/2.jpg,stim/3.jpg,stim/latef.jpg,EF,1,2,,,,,0,39,39,44,,,,,,4,0,0.533165200261,,,,,,PLC_L_D1S2,P15,60.0208853059,01,A,2015_Feb_06_1547,Y,
stim/negf.jpg,stim/posf.jpg,stim/6.jpg,stim/1.jpg,stim/latef.jpg,CD,1,2,,,,,0,40,40,28,,,,,,2,1,0.799737000474,,,,,,PLC_L_D1S2,P15,60.0208853059,01,A,2015_Feb_06_1547,Y,
stim/posf.jpg,stim/negf.jpg,stim/6.jpg,stim/1.jpg,stim/latef.jpg,CD,1,2,,,,,0,41,41,21,,,,,,4,0,0.59982290058,,,,,,PLC_L_D1S2,P15,60.0208853059,01,A,2015_Feb_06_1547,Y,
stim/posf.jpg,stim/negf.jpg,stim/6.jpg,stim/1.jpg,stim/latef.jpg,CD,1,2,,,,,0,42,42,24,,,,,,4,0,0.716424303577,,,,,,PLC_L_D1S2,P15,60.0208853059,01,A,2015_Feb_06_1547,Y,
stim/posf.jpg,stim/negf.jpg,stim/5.jpg,stim/4.jpg,stim/latef.jpg,AB,1,2,,,,,0,43,43,4,,,,,,2,1,1.09963332607,,,,,,PLC_L_D1S2,P15,60.0208853059,01,A,2015_Feb_06_1547,Y,
stim/posf.jpg,stim/negf.jpg,stim/5.jpg,stim/4.jpg,stim/latef.jpg,AB,1,2,,,,,0,44,44,5,,,,,,2,1,0.733081513673,,,,,,PLC_L_D1S2,P15,60.0208853059,01,A,2015_Feb_06_1547,Y,
stim/posf.jpg,stim/negf.jpg,stim/2.jpg,stim/3.jpg,stim/latef.jpg,EF,1,2,,,,,0,45,45,43,,,,,,4,0,1.06633287569,,,,,,PLC_L_D1S2,P15,60.0208853059,01,A,2015_Feb_06_1547,Y,
stim/posf.jpg,stim/negf.jpg,stim/3.jpg,stim/2.jpg,stim/latef.jpg,EF,2,4,,,,,0,46,46,55,,,,,,4,1,0.633110779618,,,,,,PLC_L_D1S2,P15,60.0208853059,01,A,2015_Feb_06_1547,Y,
stim/posf.jpg,stim/negf.jpg,stim/6.jpg,stim/1.jpg,stim/latef.jpg,CD,1,2,,,,,0,47,47,23,,,,,,2,1,0.983016675063,,,,,,PLC_L_D1S2,P15,60.0208853059,01,A,2015_Feb_06_1547,Y,
stim/posf.jpg,stim/negf.jpg,stim/3.jpg,stim/2.jpg,stim/latef.jpg,EF,2,4,,,,,0,48,48,53,,,,,,2,0,0.899707283404,,,,,,PLC_L_D1S2,P15,60.0208853059,01,A,2015_Feb_06_1547,Y,
stim/negf.jpg,stim/posf.jpg,stim/2.jpg,stim/3.jpg,stim/latef.jpg,EF,1,2,,,,,0,49,49,47,,,,,,4,0,0.933042124495,,,,,,PLC_L_D1S2,P15,60.0208853059,01,A,2015_Feb_06_1547,Y,
stim/negf.jpg,stim/posf.jpg,stim/3.jpg,stim/2.jpg,stim/latef.jpg,EF,2,4,,,,,0,50,50,56,,,,,,2,0,0.733155573266,,,,,,PLC_L_D1S2,P15,60.0208853059,01,A,2015_Feb_06_1547,Y,
stim/posf.jpg,stim/negf.jpg,stim/6.jpg,stim/1.jpg,stim/latef.jpg,CD,1,2,,,,,0,51,51,20,,,,,,4,0,0.866395612063,,,,,,PLC_L_D1S2,P15,60.0208853059,01,A,2015_Feb_06_1547,Y,
stim/posf.jpg,stim/negf.jpg,stim/1.jpg,stim/6.jpg,stim/latef.jpg,CD,2,4,,,,,0,52,52,31,,,,,,4,1,0.866377401674,,,,,,PLC_L_D1S2,P15,60.0208853059,01,A,2015_Feb_06_1547,Y,
stim/posf.jpg,stim/negf.jpg,stim/6.jpg,stim/1.jpg,stim/latef.jpg,CD,1,2,,,,,0,53,53,22,,,,,,2,1,1.16628903843,,,,,,PLC_L_D1S2,P15,60.0208853059,01,A,2015_Feb_06_1547,Y,
stim/negf.jpg,stim/posf.jpg,stim/5.jpg,stim/4.jpg,stim/latef.jpg,AB,1,2,,,,,0,54,54,9,,,,,,2,1,1.0996391185,,,,,,PLC_L_D1S2,P15,60.0208853059,01,A,2015_Feb_06_1547,Y,
stim/negf.jpg,stim/posf.jpg,stim/4.jpg,stim/5.jpg,stim/latef.jpg,AB,2,4,,,,,0,55,55,17,,,,,,2,0,1.24951532395,,,,,,PLC_L_D1S2,P15,60.0208853059,01,A,2015_Feb_06_1547,Y,
stim/posf.jpg,stim/negf.jpg,stim/5.jpg,stim/4.jpg,stim/latef.jpg,AB,1,2,,,,,0,56,56,3,,,,,,2,1,1.04966548823,,,,,,PLC_L_D1S2,P15,60.0208853059,01,A,2015_Feb_06_1547,Y,
stim/posf.jpg,stim/negf.jpg,stim/4.jpg,stim/5.jpg,stim/latef.jpg,AB,2,4,,,,,0,57,57,11,,,,,,4,1,1.24960534432,,,,,,PLC_L_D1S2,P15,60.0208853059,01,A,2015_Feb_06_1547,Y,
stim/posf.jpg,stim/negf.jpg,stim/2.jpg,stim/3.jpg,stim/latef.jpg,EF,1,2,,,,,0,58,58,42,,,,,,2,1,1.16628650612,,,,,,PLC_L_D1S2,P15,60.0208853059,01,A,2015_Feb_06_1547,Y,
stim/negf.jpg,stim/posf.jpg,stim/1.jpg,stim/6.jpg,stim/latef.jpg,CD,2,4,,,,,0,59,59,38,,,,,,4,1,1.19956767242,,,,,,PLC_L_D1S2,P15,60.0208853059,01,A,2015_Feb_06_1547,Y,
