fb_corr,fb_incorr,symbol2,symbol1,fb_late,pair,position,correct,block_01.thisRepN,block_01.thisTrialN,block_01.thisN,block_01.thisIndex,block_02.thisRepN,block_02.thisTrialN,block_02.thisN,block_02.thisIndex,mouse.x,mouse.y,mouse.leftButton,mouse.midButton,mouse.rightButton,buttonBox_2.keys,buttonBox_2.corr,buttonBox_2.rt,mouse_2.x,mouse_2.y,mouse_2.leftButton,mouse_2.midButton,mouse_2.rightButton,expName,Participant,frameRate,SessionNumber,Version,date,Group,
,,,,,,,,,,,,,,,,0.9984375,1.0,1,0,0,,,,,,,,,PLC_L_D1S2,P1,60.0186288503,01,C,2014_Nov_28_1553,Y,
stim/negf.jpg,stim/posf.jpg,stim/6.jpg,stim/4.jpg,stim/latef.jpg,AB,2,4,0,0,0,16,,,,,,,,,,4,1,1.09968167577,,,,,,PLC_L_D1S2,P1,60.0186288503,01,C,2014_Nov_28_1553,Y,
stim/posf.jpg,stim/negf.jpg,stim/2.jpg,stim/5.jpg,stim/latef.jpg,EF,2,4,0,1,1,54,,,,,,,,,,2,0,0.966326145194,,,,,,PLC_L_D1S2,P1,60.0186288503,01,C,2014_Nov_28_1553,Y,
stim/posf.jpg,stim/negf.jpg,stim/3.jpg,stim/1.jpg,stim/latef.jpg,CD,1,2,0,2,2,20,,,,,,,,,,4,0,1.06629372451,,,,,,PLC_L_D1S2,P1,60.0186288503,01,C,2014_Nov_28_1553,Y,
stim/negf.jpg,stim/posf.jpg,stim/1.jpg,stim/3.jpg,stim/latef.jpg,CD,2,4,0,3,3,37,,,,,,,,,,4,1,1.01631546712,,,,,,PLC_L_D1S2,P1,60.0186288503,01,C,2014_Nov_28_1553,Y,
stim/negf.jpg,stim/posf.jpg,stim/1.jpg,stim/3.jpg,stim/latef.jpg,CD,2,4,0,4,4,39,,,,,,,,,,4,1,1.04970181239,,,,,,PLC_L_D1S2,P1,60.0186288503,01,C,2014_Nov_28_1553,Y,
stim/posf.jpg,stim/negf.jpg,stim/6.jpg,stim/4.jpg,stim/latef.jpg,AB,2,4,0,5,5,12,,,,,,,,,,2,0,1.19956690413,,,,,,PLC_L_D1S2,P1,60.0186288503,01,C,2014_Nov_28_1553,Y,
stim/negf.jpg,stim/posf.jpg,stim/6.jpg,stim/4.jpg,stim/latef.jpg,AB,2,4,0,6,6,17,,,,,,,,,,2,0,1.16628534265,,,,,,PLC_L_D1S2,P1,60.0186288503,01,C,2014_Nov_28_1553,Y,
stim/posf.jpg,stim/negf.jpg,stim/6.jpg,stim/4.jpg,stim/latef.jpg,AB,2,4,0,7,7,11,,,,,,,,,,4,1,1.38293697139,,,,,,PLC_L_D1S2,P1,60.0186288503,01,C,2014_Nov_28_1553,Y,
stim/posf.jpg,stim/negf.jpg,stim/1.jpg,stim/3.jpg,stim/latef.jpg,CD,2,4,0,8,8,31,,,,,,,,,,2,0,1.199561626,,,,,,PLC_L_D1S2,P1,60.0186288503,01,C,2014_Nov_28_1553,Y,
stim/posf.jpg,stim/negf.jpg,stim/2.jpg,stim/5.jpg,stim/latef.jpg,EF,2,4,0,9,9,53,,,,,,,,,,2,0,1.09964045819,,,,,,PLC_L_D1S2,P1,60.0186288503,01,C,2014_Nov_28_1553,Y,
stim/posf.jpg,stim/negf.jpg,stim/1.jpg,stim/3.jpg,stim/latef.jpg,CD,2,4,0,10,10,35,,,,,,,,,,4,1,1.06635055394,,,,,,PLC_L_D1S2,P1,60.0186288503,01,C,2014_Nov_28_1553,Y,
stim/negf.jpg,stim/posf.jpg,stim/3.jpg,stim/1.jpg,stim/latef.jpg,CD,1,2,0,11,11,29,,,,,,,,,,2,1,1.16623265452,,,,,,PLC_L_D1S2,P1,60.0186288503,01,C,2014_Nov_28_1553,Y,
stim/negf.jpg,stim/posf.jpg,stim/5.jpg,stim/2.jpg,stim/latef.jpg,EF,1,2,0,12,12,49,,,,,,,,,,4,0,1.13295253663,,,,,,PLC_L_D1S2,P1,60.0186288503,01,C,2014_Nov_28_1553,Y,
stim/posf.jpg,stim/negf.jpg,stim/5.jpg,stim/2.jpg,stim/latef.jpg,EF,1,2,0,13,13,41,,,,,,,,,,4,0,1.08296992139,,,,,,PLC_L_D1S2,P1,60.0186288503,01,C,2014_Nov_28_1553,Y,
stim/posf.jpg,stim/negf.jpg,stim/4.jpg,stim/6.jpg,stim/latef.jpg,AB,1,2,0,14,14,4,,,,,,,,,,2,1,1.04963876047,,,,,,PLC_L_D1S2,P1,60.0186288503,01,C,2014_Nov_28_1553,Y,
stim/negf.jpg,stim/posf.jpg,stim/4.jpg,stim/6.jpg,stim/latef.jpg,AB,1,2,0,15,15,7,,,,,,,,,,4,0,0.733003561614,,,,,,PLC_L_D1S2,P1,60.0186288503,01,C,2014_Nov_28_1553,Y,
stim/negf.jpg,stim/posf.jpg,stim/2.jpg,stim/5.jpg,stim/latef.jpg,EF,2,4,0,16,16,58,,,,,,,,,,2,0,0.949648369379,,,,,,PLC_L_D1S2,P1,60.0186288503,01,C,2014_Nov_28_1553,Y,
stim/posf.jpg,stim/negf.jpg,stim/5.jpg,stim/2.jpg,stim/latef.jpg,EF,1,2,0,17,17,42,,,,,,,,,,4,0,0.799710069436,,,,,,PLC_L_D1S2,P1,60.0186288503,01,C,2014_Nov_28_1553,Y,
stim/negf.jpg,stim/posf.jpg,stim/4.jpg,stim/6.jpg,stim/latef.jpg,AB,1,2,0,18,18,9,,,,,,,,,,4,0,1.41622930268,,,,,,PLC_L_D1S2,P1,60.0186288503,01,C,2014_Nov_28_1553,Y,
stim/posf.jpg,stim/negf.jpg,stim/3.jpg,stim/1.jpg,stim/latef.jpg,CD,1,2,0,19,19,23,,,,,,,,,,4,0,1.06628212764,,,,,,PLC_L_D1S2,P1,60.0186288503,01,C,2014_Nov_28_1553,Y,
stim/posf.jpg,stim/negf.jpg,stim/6.jpg,stim/4.jpg,stim/latef.jpg,AB,2,4,0,20,20,13,,,,,,,,,,2,0,1.06631962497,,,,,,PLC_L_D1S2,P1,60.0186288503,01,C,2014_Nov_28_1553,Y,
stim/posf.jpg,stim/negf.jpg,stim/4.jpg,stim/6.jpg,stim/latef.jpg,AB,1,2,0,21,21,3,,,,,,,,,,4,0,0.799731771446,,,,,,PLC_L_D1S2,P1,60.0186288503,01,C,2014_Nov_28_1553,Y,
stim/posf.jpg,stim/negf.jpg,stim/1.jpg,stim/3.jpg,stim/latef.jpg,CD,2,4,0,22,22,34,,,,,,,,,,2,0,1.01642504483,,,,,,PLC_L_D1S2,P1,60.0186288503,01,C,2014_Nov_28_1553,Y,
stim/negf.jpg,stim/posf.jpg,stim/3.jpg,stim/1.jpg,stim/latef.jpg,CD,1,2,0,23,23,26,,,,,,,,,,None,0,,,,,,,PLC_L_D1S2,P1,60.0186288503,01,C,2014_Nov_28_1553,Y,
stim/posf.jpg,stim/negf.jpg,stim/6.jpg,stim/4.jpg,stim/latef.jpg,AB,2,4,0,24,24,15,,,,,,,,,,2,0,1.08298436935,,,,,,PLC_L_D1S2,P1,60.0186288503,01,C,2014_Nov_28_1553,Y,
stim/posf.jpg,stim/negf.jpg,stim/4.jpg,stim/6.jpg,stim/latef.jpg,AB,1,2,0,25,25,2,,,,,,,,,,2,1,0.449805919482,,,,,,PLC_L_D1S2,P1,60.0186288503,01,C,2014_Nov_28_1553,Y,
stim/negf.jpg,stim/posf.jpg,stim/6.jpg,stim/4.jpg,stim/latef.jpg,AB,2,4,0,26,26,19,,,,,,,,,,4,1,0.516492905719,,,,,,PLC_L_D1S2,P1,60.0186288503,01,C,2014_Nov_28_1553,Y,
stim/negf.jpg,stim/posf.jpg,stim/3.jpg,stim/1.jpg,stim/latef.jpg,CD,1,2,0,27,27,27,,,,,,,,,,2,1,0.716453546765,,,,,,PLC_L_D1S2,P1,60.0186288503,01,C,2014_Nov_28_1553,Y,
stim/posf.jpg,stim/negf.jpg,stim/3.jpg,stim/1.jpg,stim/latef.jpg,CD,1,2,0,28,28,25,,,,,,,,,,2,1,0.533169039447,,,,,,PLC_L_D1S2,P1,60.0186288503,01,C,2014_Nov_28_1553,Y,
stim/posf.jpg,stim/negf.jpg,stim/5.jpg,stim/2.jpg,stim/latef.jpg,EF,1,2,0,29,29,44,,,,,,,,,,4,0,0.566487989985,,,,,,PLC_L_D1S2,P1,60.0186288503,01,C,2014_Nov_28_1553,Y,
stim/posf.jpg,stim/negf.jpg,stim/1.jpg,stim/3.jpg,stim/latef.jpg,CD,2,4,0,30,30,30,,,,,,,,,,4,1,0.816393902324,,,,,,PLC_L_D1S2,P1,60.0186288503,01,C,2014_Nov_28_1553,Y,
stim/posf.jpg,stim/negf.jpg,stim/3.jpg,stim/1.jpg,stim/latef.jpg,CD,1,2,0,31,31,24,,,,,,,,,,2,1,0.933001299985,,,,,,PLC_L_D1S2,P1,60.0186288503,01,C,2014_Nov_28_1553,Y,
stim/posf.jpg,stim/negf.jpg,stim/1.jpg,stim/3.jpg,stim/latef.jpg,CD,2,4,0,32,32,33,,,,,,,,,,4,1,1.08298931967,,,,,,PLC_L_D1S2,P1,60.0186288503,01,C,2014_Nov_28_1553,Y,
stim/posf.jpg,stim/negf.jpg,stim/2.jpg,stim/5.jpg,stim/latef.jpg,EF,2,4,0,33,33,51,,,,,,,,,,4,1,0.83297226272,,,,,,PLC_L_D1S2,P1,60.0186288503,01,C,2014_Nov_28_1553,Y,
stim/posf.jpg,stim/negf.jpg,stim/6.jpg,stim/4.jpg,stim/latef.jpg,AB,2,4,0,34,34,10,,,,,,,,,,2,0,0.98297934685,,,,,,PLC_L_D1S2,P1,60.0186288503,01,C,2014_Nov_28_1553,Y,
stim/posf.jpg,stim/negf.jpg,stim/4.jpg,stim/6.jpg,stim/latef.jpg,AB,1,2,0,35,35,1,,,,,,,,,,2,1,1.08296626128,,,,,,PLC_L_D1S2,P1,60.0186288503,01,C,2014_Nov_28_1553,Y,
stim/negf.jpg,stim/posf.jpg,stim/5.jpg,stim/2.jpg,stim/latef.jpg,EF,1,2,0,36,36,46,,,,,,,,,,2,1,0.849721604643,,,,,,PLC_L_D1S2,P1,60.0186288503,01,C,2014_Nov_28_1553,Y,
stim/posf.jpg,stim/negf.jpg,stim/4.jpg,stim/6.jpg,stim/latef.jpg,AB,1,2,0,37,37,0,,,,,,,,,,2,1,1.19960569768,,,,,,PLC_L_D1S2,P1,60.0186288503,01,C,2014_Nov_28_1553,Y,
stim/posf.jpg,stim/negf.jpg,stim/6.jpg,stim/4.jpg,stim/latef.jpg,AB,2,4,0,38,38,14,,,,,,,,,,4,1,1.03296999508,,,,,,PLC_L_D1S2,P1,60.0186288503,01,C,2014_Nov_28_1553,Y,
stim/posf.jpg,stim/negf.jpg,stim/1.jpg,stim/3.jpg,stim/latef.jpg,CD,2,4,0,39,39,32,,,,,,,,,,4,1,0.866469193204,,,,,,PLC_L_D1S2,P1,60.0186288503,01,C,2014_Nov_28_1553,Y,
stim/negf.jpg,stim/posf.jpg,stim/1.jpg,stim/3.jpg,stim/latef.jpg,CD,2,4,0,40,40,36,,,,,,,,,,4,1,0.799715371631,,,,,,PLC_L_D1S2,P1,60.0186288503,01,C,2014_Nov_28_1553,Y,
stim/negf.jpg,stim/posf.jpg,stim/2.jpg,stim/5.jpg,stim/latef.jpg,EF,2,4,0,41,41,56,,,,,,,,,,4,1,0.999659318128,,,,,,PLC_L_D1S2,P1,60.0186288503,01,C,2014_Nov_28_1553,Y,
stim/negf.jpg,stim/posf.jpg,stim/4.jpg,stim/6.jpg,stim/latef.jpg,AB,1,2,0,42,42,6,,,,,,,,,,4,0,1.23296364026,,,,,,PLC_L_D1S2,P1,60.0186288503,01,C,2014_Nov_28_1553,Y,
stim/negf.jpg,stim/posf.jpg,stim/6.jpg,stim/4.jpg,stim/latef.jpg,AB,2,4,0,43,43,18,,,,,,,,,,2,0,0.799718631745,,,,,,PLC_L_D1S2,P1,60.0186288503,01,C,2014_Nov_28_1553,Y,
stim/posf.jpg,stim/negf.jpg,stim/2.jpg,stim/5.jpg,stim/latef.jpg,EF,2,4,0,44,44,52,,,,,,,,,,4,1,0.549873368345,,,,,,PLC_L_D1S2,P1,60.0186288503,01,C,2014_Nov_28_1553,Y,
stim/negf.jpg,stim/posf.jpg,stim/2.jpg,stim/5.jpg,stim/latef.jpg,EF,2,4,0,45,45,57,,,,,,,,,,2,0,0.633133436841,,,,,,PLC_L_D1S2,P1,60.0186288503,01,C,2014_Nov_28_1553,Y,
stim/posf.jpg,stim/negf.jpg,stim/3.jpg,stim/1.jpg,stim/latef.jpg,CD,1,2,0,46,46,22,,,,,,,,,,4,0,0.86634972989,,,,,,PLC_L_D1S2,P1,60.0186288503,01,C,2014_Nov_28_1553,Y,
stim/posf.jpg,stim/negf.jpg,stim/4.jpg,stim/6.jpg,stim/latef.jpg,AB,1,2,0,47,47,5,,,,,,,,,,2,1,0.966329706056,,,,,,PLC_L_D1S2,P1,60.0186288503,01,C,2014_Nov_28_1553,Y,
stim/negf.jpg,stim/posf.jpg,stim/5.jpg,stim/2.jpg,stim/latef.jpg,EF,1,2,0,48,48,47,,,,,,,,,,2,1,0.949665605274,,,,,,PLC_L_D1S2,P1,60.0186288503,01,C,2014_Nov_28_1553,Y,
stim/negf.jpg,stim/posf.jpg,stim/1.jpg,stim/3.jpg,stim/latef.jpg,CD,2,4,0,49,49,38,,,,,,,,,,4,1,1.06631264159,,,,,,PLC_L_D1S2,P1,60.0186288503,01,C,2014_Nov_28_1553,Y,
stim/posf.jpg,stim/negf.jpg,stim/2.jpg,stim/5.jpg,stim/latef.jpg,EF,2,4,0,50,50,50,,,,,,,,,,2,0,0.783081240436,,,,,,PLC_L_D1S2,P1,60.0186288503,01,C,2014_Nov_28_1553,Y,
stim/posf.jpg,stim/negf.jpg,stim/5.jpg,stim/2.jpg,stim/latef.jpg,EF,1,2,0,51,51,43,,,,,,,,,,2,1,0.783131736109,,,,,,PLC_L_D1S2,P1,60.0186288503,01,C,2014_Nov_28_1553,Y,
stim/negf.jpg,stim/posf.jpg,stim/2.jpg,stim/5.jpg,stim/latef.jpg,EF,2,4,0,52,52,59,,,,,,,,,,4,1,1.06630964914,,,,,,PLC_L_D1S2,P1,60.0186288503,01,C,2014_Nov_28_1553,Y,
stim/negf.jpg,stim/posf.jpg,stim/3.jpg,stim/1.jpg,stim/latef.jpg,CD,1,2,0,53,53,28,,,,,,,,,,4,0,1.14961349458,,,,,,PLC_L_D1S2,P1,60.0186288503,01,C,2014_Nov_28_1553,Y,
stim/posf.jpg,stim/negf.jpg,stim/3.jpg,stim/1.jpg,stim/latef.jpg,CD,1,2,0,54,54,21,,,,,,,,,,2,1,0.949677590103,,,,,,PLC_L_D1S2,P1,60.0186288503,01,C,2014_Nov_28_1553,Y,
stim/negf.jpg,stim/posf.jpg,stim/2.jpg,stim/5.jpg,stim/latef.jpg,EF,2,4,0,55,55,55,,,,,,,,,,4,1,0.999657194844,,,,,,PLC_L_D1S2,P1,60.0186288503,01,C,2014_Nov_28_1553,Y,
stim/negf.jpg,stim/posf.jpg,stim/5.jpg,stim/2.jpg,stim/latef.jpg,EF,1,2,0,56,56,48,,,,,,,,,,4,0,1.09963413946,,,,,,PLC_L_D1S2,P1,60.0186288503,01,C,2014_Nov_28_1553,Y,
stim/negf.jpg,stim/posf.jpg,stim/4.jpg,stim/6.jpg,stim/latef.jpg,AB,1,2,0,57,57,8,,,,,,,,,,2,1,0.899721861784,,,,,,PLC_L_D1S2,P1,60.0186288503,01,C,2014_Nov_28_1553,Y,
stim/posf.jpg,stim/negf.jpg,stim/5.jpg,stim/2.jpg,stim/latef.jpg,EF,1,2,0,58,58,40,,,,,,,,,,4,0,1.23297077101,,,,,,PLC_L_D1S2,P1,60.0186288503,01,C,2014_Nov_28_1553,Y,
stim/posf.jpg,stim/negf.jpg,stim/5.jpg,stim/2.jpg,stim/latef.jpg,EF,1,2,0,59,59,45,,,,,,,,,,2,1,0.733072833013,,,,,,PLC_L_D1S2,P1,60.0186288503,01,C,2014_Nov_28_1553,Y,
,,,,,,,,,,,,,,,,,,,,,,,,0.9984375,0.974609375,1,0,0,PLC_L_D1S2,P1,60.0186288503,01,C,2014_Nov_28_1553,Y,
stim/posf.jpg,stim/negf.jpg,stim/6.jpg,stim/4.jpg,stim/latef.jpg,AB,2,4,,,,,0,0,0,13,,,,,,4,1,1.03300177517,,,,,,PLC_L_D1S2,P1,60.0186288503,01,C,2014_Nov_28_1553,Y,
stim/posf.jpg,stim/negf.jpg,stim/5.jpg,stim/2.jpg,stim/latef.jpg,EF,1,2,,,,,0,1,1,40,,,,,,4,0,0.933067461646,,,,,,PLC_L_D1S2,P1,60.0186288503,01,C,2014_Nov_28_1553,Y,
stim/negf.jpg,stim/posf.jpg,stim/6.jpg,stim/4.jpg,stim/latef.jpg,AB,2,4,,,,,0,2,2,18,,,,,,4,1,0.883006254817,,,,,,PLC_L_D1S2,P1,60.0186288503,01,C,2014_Nov_28_1553,Y,
stim/negf.jpg,stim/posf.jpg,stim/5.jpg,stim/2.jpg,stim/latef.jpg,EF,1,2,,,,,0,3,3,48,,,,,,2,1,0.716394311342,,,,,,PLC_L_D1S2,P1,60.0186288503,01,C,2014_Nov_28_1553,Y,
stim/posf.jpg,stim/negf.jpg,stim/2.jpg,stim/5.jpg,stim/latef.jpg,EF,2,4,,,,,0,4,4,54,,,,,,4,1,0.78313075266,,,,,,PLC_L_D1S2,P1,60.0186288503,01,C,2014_Nov_28_1553,Y,
stim/negf.jpg,stim/posf.jpg,stim/6.jpg,stim/4.jpg,stim/latef.jpg,AB,2,4,,,,,0,5,5,16,,,,,,4,1,1.03295629297,,,,,,PLC_L_D1S2,P1,60.0186288503,01,C,2014_Nov_28_1553,Y,
stim/negf.jpg,stim/posf.jpg,stim/5.jpg,stim/2.jpg,stim/latef.jpg,EF,1,2,,,,,0,6,6,47,,,,,,2,1,0.949688588475,,,,,,PLC_L_D1S2,P1,60.0186288503,01,C,2014_Nov_28_1553,Y,
stim/posf.jpg,stim/negf.jpg,stim/3.jpg,stim/1.jpg,stim/latef.jpg,CD,1,2,,,,,0,7,7,24,,,,,,4,0,1.099619487,,,,,,PLC_L_D1S2,P1,60.0186288503,01,C,2014_Nov_28_1553,Y,
stim/posf.jpg,stim/negf.jpg,stim/4.jpg,stim/6.jpg,stim/latef.jpg,AB,1,2,,,,,0,8,8,1,,,,,,4,0,1.29957705439,,,,,,PLC_L_D1S2,P1,60.0186288503,01,C,2014_Nov_28_1553,Y,
stim/posf.jpg,stim/negf.jpg,stim/3.jpg,stim/1.jpg,stim/latef.jpg,CD,1,2,,,,,0,9,9,20,,,,,,4,0,1.13299776318,,,,,,PLC_L_D1S2,P1,60.0186288503,01,C,2014_Nov_28_1553,Y,
stim/posf.jpg,stim/negf.jpg,stim/6.jpg,stim/4.jpg,stim/latef.jpg,AB,2,4,,,,,0,10,10,12,,,,,,4,1,1.06627494878,,,,,,PLC_L_D1S2,P1,60.0186288503,01,C,2014_Nov_28_1553,Y,
stim/negf.jpg,stim/posf.jpg,stim/4.jpg,stim/6.jpg,stim/latef.jpg,AB,1,2,,,,,0,11,11,9,,,,,,2,1,0.783115832528,,,,,,PLC_L_D1S2,P1,60.0186288503,01,C,2014_Nov_28_1553,Y,
stim/posf.jpg,stim/negf.jpg,stim/5.jpg,stim/2.jpg,stim/latef.jpg,EF,1,2,,,,,0,12,12,43,,,,,,4,0,0.749712031818,,,,,,PLC_L_D1S2,P1,60.0186288503,01,C,2014_Nov_28_1553,Y,
stim/posf.jpg,stim/negf.jpg,stim/2.jpg,stim/5.jpg,stim/latef.jpg,EF,2,4,,,,,0,13,13,51,,,,,,4,1,0.916329075988,,,,,,PLC_L_D1S2,P1,60.0186288503,01,C,2014_Nov_28_1553,Y,
stim/negf.jpg,stim/posf.jpg,stim/2.jpg,stim/5.jpg,stim/latef.jpg,EF,2,4,,,,,0,14,14,56,,,,,,4,1,1.29956594775,,,,,,PLC_L_D1S2,P1,60.0186288503,01,C,2014_Nov_28_1553,Y,
stim/negf.jpg,stim/posf.jpg,stim/4.jpg,stim/6.jpg,stim/latef.jpg,AB,1,2,,,,,0,15,15,7,,,,,,2,1,0.716426350078,,,,,,PLC_L_D1S2,P1,60.0186288503,01,C,2014_Nov_28_1553,Y,
stim/posf.jpg,stim/negf.jpg,stim/3.jpg,stim/1.jpg,stim/latef.jpg,CD,1,2,,,,,0,16,16,21,,,,,,2,1,0.666466107525,,,,,,PLC_L_D1S2,P1,60.0186288503,01,C,2014_Nov_28_1553,Y,
stim/negf.jpg,stim/posf.jpg,stim/1.jpg,stim/3.jpg,stim/latef.jpg,CD,2,4,,,,,0,17,17,39,,,,,,4,1,1.11633575561,,,,,,PLC_L_D1S2,P1,60.0186288503,01,C,2014_Nov_28_1553,Y,
stim/posf.jpg,stim/negf.jpg,stim/5.jpg,stim/2.jpg,stim/latef.jpg,EF,1,2,,,,,0,18,18,44,,,,,,2,1,0.816399697748,,,,,,PLC_L_D1S2,P1,60.0186288503,01,C,2014_Nov_28_1553,Y,
stim/posf.jpg,stim/negf.jpg,stim/6.jpg,stim/4.jpg,stim/latef.jpg,AB,2,4,,,,,0,19,19,15,,,,,,4,1,0.766407852543,,,,,,PLC_L_D1S2,P1,60.0186288503,01,C,2014_Nov_28_1553,Y,
stim/posf.jpg,stim/negf.jpg,stim/2.jpg,stim/5.jpg,stim/latef.jpg,EF,2,4,,,,,0,20,20,53,,,,,,4,1,1.13291224535,,,,,,PLC_L_D1S2,P1,60.0186288503,01,C,2014_Nov_28_1553,Y,
stim/negf.jpg,stim/posf.jpg,stim/2.jpg,stim/5.jpg,stim/latef.jpg,EF,2,4,,,,,0,21,21,57,,,,,,2,0,1.03298217539,,,,,,PLC_L_D1S2,P1,60.0186288503,01,C,2014_Nov_28_1553,Y,
stim/posf.jpg,stim/negf.jpg,stim/3.jpg,stim/1.jpg,stim/latef.jpg,CD,1,2,,,,,0,22,22,22,,,,,,4,0,0.749755438848,,,,,,PLC_L_D1S2,P1,60.0186288503,01,C,2014_Nov_28_1553,Y,
stim/posf.jpg,stim/negf.jpg,stim/4.jpg,stim/6.jpg,stim/latef.jpg,AB,1,2,,,,,0,23,23,0,,,,,,2,1,0.866382929516,,,,,,PLC_L_D1S2,P1,60.0186288503,01,C,2014_Nov_28_1553,Y,
stim/posf.jpg,stim/negf.jpg,stim/5.jpg,stim/2.jpg,stim/latef.jpg,EF,1,2,,,,,0,24,24,41,,,,,,4,0,0.983057974534,,,,,,PLC_L_D1S2,P1,60.0186288503,01,C,2014_Nov_28_1553,Y,
stim/negf.jpg,stim/posf.jpg,stim/4.jpg,stim/6.jpg,stim/latef.jpg,AB,1,2,,,,,0,25,25,6,,,,,,2,1,1.08296993342,,,,,,PLC_L_D1S2,P1,60.0186288503,01,C,2014_Nov_28_1553,Y,
stim/posf.jpg,stim/negf.jpg,stim/4.jpg,stim/6.jpg,stim/latef.jpg,AB,1,2,,,,,0,26,26,5,,,,,,4,0,1.08296987327,,,,,,PLC_L_D1S2,P1,60.0186288503,01,C,2014_Nov_28_1553,Y,
stim/posf.jpg,stim/negf.jpg,stim/2.jpg,stim/5.jpg,stim/latef.jpg,EF,2,4,,,,,0,27,27,55,,,,,,4,1,1.28288603362,,,,,,PLC_L_D1S2,P1,60.0186288503,01,C,2014_Nov_28_1553,Y,
stim/negf.jpg,stim/posf.jpg,stim/3.jpg,stim/1.jpg,stim/latef.jpg,CD,1,2,,,,,0,28,28,29,,,,,,2,1,1.03308417424,,,,,,PLC_L_D1S2,P1,60.0186288503,01,C,2014_Nov_28_1553,Y,
stim/negf.jpg,stim/posf.jpg,stim/3.jpg,stim/1.jpg,stim/latef.jpg,CD,1,2,,,,,0,29,29,26,,,,,,4,0,0.982983731762,,,,,,PLC_L_D1S2,P1,60.0186288503,01,C,2014_Nov_28_1553,Y,
stim/posf.jpg,stim/negf.jpg,stim/6.jpg,stim/4.jpg,stim/latef.jpg,AB,2,4,,,,,0,30,30,14,,,,,,4,1,1.16626530377,,,,,,PLC_L_D1S2,P1,60.0186288503,01,C,2014_Nov_28_1553,Y,
stim/posf.jpg,stim/negf.jpg,stim/2.jpg,stim/5.jpg,stim/latef.jpg,EF,2,4,,,,,0,31,31,50,,,,,,2,0,1.08297452585,,,,,,PLC_L_D1S2,P1,60.0186288503,01,C,2014_Nov_28_1553,Y,
stim/negf.jpg,stim/posf.jpg,stim/1.jpg,stim/3.jpg,stim/latef.jpg,CD,2,4,,,,,0,32,32,38,,,,,,4,1,1.19960065112,,,,,,PLC_L_D1S2,P1,60.0186288503,01,C,2014_Nov_28_1553,Y,
stim/negf.jpg,stim/posf.jpg,stim/5.jpg,stim/2.jpg,stim/latef.jpg,EF,1,2,,,,,0,33,33,46,,,,,,4,0,1.36617954835,,,,,,PLC_L_D1S2,P1,60.0186288503,01,C,2014_Nov_28_1553,Y,
stim/posf.jpg,stim/negf.jpg,stim/4.jpg,stim/6.jpg,stim/latef.jpg,AB,1,2,,,,,0,34,34,3,,,,,,4,0,1.24957069807,,,,,,PLC_L_D1S2,P1,60.0186288503,01,C,2014_Nov_28_1553,Y,
stim/posf.jpg,stim/negf.jpg,stim/1.jpg,stim/3.jpg,stim/latef.jpg,CD,2,4,,,,,0,35,35,33,,,,,,2,0,0.649786476092,,,,,,PLC_L_D1S2,P1,60.0186288503,01,C,2014_Nov_28_1553,Y,
stim/posf.jpg,stim/negf.jpg,stim/6.jpg,stim/4.jpg,stim/latef.jpg,AB,2,4,,,,,0,36,36,11,,,,,,2,0,0.749747108115,,,,,,PLC_L_D1S2,P1,60.0186288503,01,C,2014_Nov_28_1553,Y,
stim/negf.jpg,stim/posf.jpg,stim/3.jpg,stim/1.jpg,stim/latef.jpg,CD,1,2,,,,,0,37,37,27,,,,,,4,0,0.599819292263,,,,,,PLC_L_D1S2,P1,60.0186288503,01,C,2014_Nov_28_1553,Y,
stim/posf.jpg,stim/negf.jpg,stim/1.jpg,stim/3.jpg,stim/latef.jpg,CD,2,4,,,,,0,38,38,34,,,,,,2,0,1.11626228576,,,,,,PLC_L_D1S2,P1,60.0186288503,01,C,2014_Nov_28_1553,Y,
stim/posf.jpg,stim/negf.jpg,stim/3.jpg,stim/1.jpg,stim/latef.jpg,CD,1,2,,,,,0,39,39,25,,,,,,2,1,1.08296375605,,,,,,PLC_L_D1S2,P1,60.0186288503,01,C,2014_Nov_28_1553,Y,
stim/posf.jpg,stim/negf.jpg,stim/2.jpg,stim/5.jpg,stim/latef.jpg,EF,2,4,,,,,0,40,40,52,,,,,,4,1,1.09961069913,,,,,,PLC_L_D1S2,P1,60.0186288503,01,C,2014_Nov_28_1553,Y,
stim/posf.jpg,stim/negf.jpg,stim/5.jpg,stim/2.jpg,stim/latef.jpg,EF,1,2,,,,,0,41,41,42,,,,,,2,1,1.01633310903,,,,,,PLC_L_D1S2,P1,60.0186288503,01,C,2014_Nov_28_1553,Y,
stim/posf.jpg,stim/negf.jpg,stim/3.jpg,stim/1.jpg,stim/latef.jpg,CD,1,2,,,,,0,42,42,23,,,,,,4,0,1.09962484934,,,,,,PLC_L_D1S2,P1,60.0186288503,01,C,2014_Nov_28_1553,Y,
stim/posf.jpg,stim/negf.jpg,stim/1.jpg,stim/3.jpg,stim/latef.jpg,CD,2,4,,,,,0,43,43,32,,,,,,4,1,1.14968936441,,,,,,PLC_L_D1S2,P1,60.0186288503,01,C,2014_Nov_28_1553,Y,
stim/negf.jpg,stim/posf.jpg,stim/5.jpg,stim/2.jpg,stim/latef.jpg,EF,1,2,,,,,0,44,44,49,,,,,,2,1,1.28289802145,,,,,,PLC_L_D1S2,P1,60.0186288503,01,C,2014_Nov_28_1553,Y,
stim/posf.jpg,stim/negf.jpg,stim/1.jpg,stim/3.jpg,stim/latef.jpg,CD,2,4,,,,,0,45,45,31,,,,,,2,0,1.21625331744,,,,,,PLC_L_D1S2,P1,60.0186288503,01,C,2014_Nov_28_1553,Y,
stim/negf.jpg,stim/posf.jpg,stim/6.jpg,stim/4.jpg,stim/latef.jpg,AB,2,4,,,,,0,46,46,17,,,,,,4,1,0.866374830359,,,,,,PLC_L_D1S2,P1,60.0186288503,01,C,2014_Nov_28_1553,Y,
stim/negf.jpg,stim/posf.jpg,stim/6.jpg,stim/4.jpg,stim/latef.jpg,AB,2,4,,,,,0,47,47,19,,,,,,2,0,0.849655070056,,,,,,PLC_L_D1S2,P1,60.0186288503,01,C,2014_Nov_28_1553,Y,
stim/negf.jpg,stim/posf.jpg,stim/4.jpg,stim/6.jpg,stim/latef.jpg,AB,1,2,,,,,0,48,48,8,,,,,,4,0,0.583151275737,,,,,,PLC_L_D1S2,P1,60.0186288503,01,C,2014_Nov_28_1553,Y,
stim/negf.jpg,stim/posf.jpg,stim/2.jpg,stim/5.jpg,stim/latef.jpg,EF,2,4,,,,,0,49,49,58,,,,,,2,0,0.483182749066,,,,,,PLC_L_D1S2,P1,60.0186288503,01,C,2014_Nov_28_1553,Y,
stim/negf.jpg,stim/posf.jpg,stim/2.jpg,stim/5.jpg,stim/latef.jpg,EF,2,4,,,,,0,50,50,59,,,,,,2,0,1.23293057597,,,,,,PLC_L_D1S2,P1,60.0186288503,01,C,2014_Nov_28_1553,Y,
stim/posf.jpg,stim/negf.jpg,stim/4.jpg,stim/6.jpg,stim/latef.jpg,AB,1,2,,,,,0,51,51,4,,,,,,4,0,0.916379652861,,,,,,PLC_L_D1S2,P1,60.0186288503,01,C,2014_Nov_28_1553,Y,
stim/negf.jpg,stim/posf.jpg,stim/1.jpg,stim/3.jpg,stim/latef.jpg,CD,2,4,,,,,0,52,52,37,,,,,,2,0,0.866377828822,,,,,,PLC_L_D1S2,P1,60.0186288503,01,C,2014_Nov_28_1553,Y,
stim/negf.jpg,stim/posf.jpg,stim/5.jpg,stim/2.jpg,stim/latef.jpg,EF,1,2,,,,,0,53,53,45,,,,,,4,0,1.01636618835,,,,,,PLC_L_D1S2,P1,60.0186288503,01,C,2014_Nov_28_1553,Y,
stim/posf.jpg,stim/negf.jpg,stim/1.jpg,stim/3.jpg,stim/latef.jpg,CD,2,4,,,,,0,54,54,35,,,,,,4,1,1.24958679413,,,,,,PLC_L_D1S2,P1,60.0186288503,01,C,2014_Nov_28_1553,Y,
stim/posf.jpg,stim/negf.jpg,stim/6.jpg,stim/4.jpg,stim/latef.jpg,AB,2,4,,,,,0,55,55,10,,,,,,4,1,1.06629896054,,,,,,PLC_L_D1S2,P1,60.0186288503,01,C,2014_Nov_28_1553,Y,
stim/posf.jpg,stim/negf.jpg,stim/1.jpg,stim/3.jpg,stim/latef.jpg,CD,2,4,,,,,0,56,56,30,,,,,,2,0,1.54947083454,,,,,,PLC_L_D1S2,P1,60.0186288503,01,C,2014_Nov_28_1553,Y,
stim/posf.jpg,stim/negf.jpg,stim/4.jpg,stim/6.jpg,stim/latef.jpg,AB,1,2,,,,,0,57,57,2,,,,,,2,1,0.983004176644,,,,,,PLC_L_D1S2,P1,60.0186288503,01,C,2014_Nov_28_1553,Y,
stim/negf.jpg,stim/posf.jpg,stim/1.jpg,stim/3.jpg,stim/latef.jpg,CD,2,4,,,,,0,58,58,36,,,,,,4,1,0.949701989827,,,,,,PLC_L_D1S2,P1,60.0186288503,01,C,2014_Nov_28_1553,Y,
stim/negf.jpg,stim/posf.jpg,stim/3.jpg,stim/1.jpg,stim/latef.jpg,CD,1,2,,,,,0,59,59,28,,,,,,2,1,1.09963672289,,,,,,PLC_L_D1S2,P1,60.0186288503,01,C,2014_Nov_28_1553,Y,
