fb_corr,fb_incorr,symbol2,symbol1,fb_late,pair,position,correct,block_01.thisRepN,block_01.thisTrialN,block_01.thisN,block_01.thisIndex,block_02.thisRepN,block_02.thisTrialN,block_02.thisN,block_02.thisIndex,mouse.x,mouse.y,mouse.leftButton,mouse.midButton,mouse.rightButton,buttonBox_2.keys,buttonBox_2.corr,buttonBox_2.rt,mouse_2.x,mouse_2.y,mouse_2.leftButton,mouse_2.midButton,mouse_2.rightButton,expName,Participant,frameRate,SessionNumber,Version,date,Group,
,,,,,,,,,,,,,,,,0.9984375,1.0,1,0,0,,,,,,,,,PLC_L_D1S2,P23,60.0174870032,01,B,2015_Mrz_04_1542,Y,
stim/negf.jpg,stim/posf.jpg,stim/6.jpg,stim/3.jpg,stim/latef.jpg,CD,1,2,0,0,0,27,,,,,,,,,,None,0,,,,,,,PLC_L_D1S2,P23,60.0174870032,01,B,2015_Mrz_04_1542,Y,
stim/posf.jpg,stim/negf.jpg,stim/1.jpg,stim/2.jpg,stim/latef.jpg,AB,2,4,0,1,1,15,,,,,,,,,,4,1,1.14965103401,,,,,,PLC_L_D1S2,P23,60.0174870032,01,B,2015_Mrz_04_1542,Y,
stim/posf.jpg,stim/negf.jpg,stim/2.jpg,stim/1.jpg,stim/latef.jpg,AB,1,2,0,2,2,0,,,,,,,,,,2,1,0.81638984222,,,,,,PLC_L_D1S2,P23,60.0174870032,01,B,2015_Mrz_04_1542,Y,
stim/negf.jpg,stim/posf.jpg,stim/6.jpg,stim/3.jpg,stim/latef.jpg,CD,1,2,0,3,3,29,,,,,,,,,,4,0,1.03298881892,,,,,,PLC_L_D1S2,P23,60.0174870032,01,B,2015_Mrz_04_1542,Y,
stim/negf.jpg,stim/posf.jpg,stim/3.jpg,stim/6.jpg,stim/latef.jpg,CD,2,4,0,4,4,39,,,,,,,,,,2,0,0.699735783431,,,,,,PLC_L_D1S2,P23,60.0174870032,01,B,2015_Mrz_04_1542,Y,
stim/posf.jpg,stim/negf.jpg,stim/4.jpg,stim/5.jpg,stim/latef.jpg,EF,1,2,0,5,5,44,,,,,,,,,,4,0,1.03295257272,,,,,,PLC_L_D1S2,P23,60.0174870032,01,B,2015_Mrz_04_1542,Y,
stim/posf.jpg,stim/negf.jpg,stim/2.jpg,stim/1.jpg,stim/latef.jpg,AB,1,2,0,6,6,2,,,,,,,,,,2,1,0.949683593042,,,,,,PLC_L_D1S2,P23,60.0174870032,01,B,2015_Mrz_04_1542,Y,
stim/posf.jpg,stim/negf.jpg,stim/3.jpg,stim/6.jpg,stim/latef.jpg,CD,2,4,0,7,7,35,,,,,,,,,,2,0,0.966351997534,,,,,,PLC_L_D1S2,P23,60.0174870032,01,B,2015_Mrz_04_1542,Y,
stim/posf.jpg,stim/negf.jpg,stim/6.jpg,stim/3.jpg,stim/latef.jpg,CD,1,2,0,8,8,24,,,,,,,,,,4,0,1.14962497716,,,,,,PLC_L_D1S2,P23,60.0174870032,01,B,2015_Mrz_04_1542,Y,
stim/negf.jpg,stim/posf.jpg,stim/3.jpg,stim/6.jpg,stim/latef.jpg,CD,2,4,0,9,9,36,,,,,,,,,,2,0,1.01633987286,,,,,,PLC_L_D1S2,P23,60.0174870032,01,B,2015_Mrz_04_1542,Y,
stim/negf.jpg,stim/posf.jpg,stim/5.jpg,stim/4.jpg,stim/latef.jpg,EF,2,4,0,10,10,57,,,,,,,,,,2,0,1.29959171288,,,,,,PLC_L_D1S2,P23,60.0174870032,01,B,2015_Mrz_04_1542,Y,
stim/posf.jpg,stim/negf.jpg,stim/1.jpg,stim/2.jpg,stim/latef.jpg,AB,2,4,0,11,11,12,,,,,,,,,,4,1,1.19960917433,,,,,,PLC_L_D1S2,P23,60.0174870032,01,B,2015_Mrz_04_1542,Y,
stim/negf.jpg,stim/posf.jpg,stim/1.jpg,stim/2.jpg,stim/latef.jpg,AB,2,4,0,12,12,19,,,,,,,,,,4,1,1.11621569982,,,,,,PLC_L_D1S2,P23,60.0174870032,01,B,2015_Mrz_04_1542,Y,
stim/posf.jpg,stim/negf.jpg,stim/5.jpg,stim/4.jpg,stim/latef.jpg,EF,2,4,0,13,13,51,,,,,,,,,,2,0,1.01632377078,,,,,,PLC_L_D1S2,P23,60.0174870032,01,B,2015_Mrz_04_1542,Y,
stim/negf.jpg,stim/posf.jpg,stim/2.jpg,stim/1.jpg,stim/latef.jpg,AB,1,2,0,14,14,8,,,,,,,,,,2,1,0.69983937324,,,,,,PLC_L_D1S2,P23,60.0174870032,01,B,2015_Mrz_04_1542,Y,
stim/posf.jpg,stim/negf.jpg,stim/2.jpg,stim/1.jpg,stim/latef.jpg,AB,1,2,0,15,15,5,,,,,,,,,,4,0,0.749761387654,,,,,,PLC_L_D1S2,P23,60.0174870032,01,B,2015_Mrz_04_1542,Y,
stim/posf.jpg,stim/negf.jpg,stim/3.jpg,stim/6.jpg,stim/latef.jpg,CD,2,4,0,16,16,34,,,,,,,,,,2,0,0.833053296391,,,,,,PLC_L_D1S2,P23,60.0174870032,01,B,2015_Mrz_04_1542,Y,
stim/negf.jpg,stim/posf.jpg,stim/5.jpg,stim/4.jpg,stim/latef.jpg,EF,2,4,0,17,17,58,,,,,,,,,,4,1,0.766445458134,,,,,,PLC_L_D1S2,P23,60.0174870032,01,B,2015_Mrz_04_1542,Y,
stim/posf.jpg,stim/negf.jpg,stim/4.jpg,stim/5.jpg,stim/latef.jpg,EF,1,2,0,18,18,40,,,,,,,,,,2,1,0.933011272805,,,,,,PLC_L_D1S2,P23,60.0174870032,01,B,2015_Mrz_04_1542,Y,
stim/posf.jpg,stim/negf.jpg,stim/5.jpg,stim/4.jpg,stim/latef.jpg,EF,2,4,0,19,19,54,,,,,,,,,,4,1,0.916354552392,,,,,,PLC_L_D1S2,P23,60.0174870032,01,B,2015_Mrz_04_1542,Y,
stim/posf.jpg,stim/negf.jpg,stim/2.jpg,stim/1.jpg,stim/latef.jpg,AB,1,2,0,20,20,4,,,,,,,,,,4,0,1.19960050375,,,,,,PLC_L_D1S2,P23,60.0174870032,01,B,2015_Mrz_04_1542,Y,
stim/posf.jpg,stim/negf.jpg,stim/6.jpg,stim/3.jpg,stim/latef.jpg,CD,1,2,0,21,21,25,,,,,,,,,,4,0,1.16628453965,,,,,,PLC_L_D1S2,P23,60.0174870032,01,B,2015_Mrz_04_1542,Y,
stim/posf.jpg,stim/negf.jpg,stim/4.jpg,stim/5.jpg,stim/latef.jpg,EF,1,2,0,22,22,41,,,,,,,,,,2,1,0.982989752747,,,,,,PLC_L_D1S2,P23,60.0174870032,01,B,2015_Mrz_04_1542,Y,
stim/posf.jpg,stim/negf.jpg,stim/3.jpg,stim/6.jpg,stim/latef.jpg,CD,2,4,0,23,23,32,,,,,,,,,,2,0,1.16628209757,,,,,,PLC_L_D1S2,P23,60.0174870032,01,B,2015_Mrz_04_1542,Y,
stim/negf.jpg,stim/posf.jpg,stim/1.jpg,stim/2.jpg,stim/latef.jpg,AB,2,4,0,24,24,16,,,,,,,,,,4,1,1.01627843295,,,,,,PLC_L_D1S2,P23,60.0174870032,01,B,2015_Mrz_04_1542,Y,
stim/posf.jpg,stim/negf.jpg,stim/4.jpg,stim/5.jpg,stim/latef.jpg,EF,1,2,0,25,25,43,,,,,,,,,,2,1,1.01630135901,,,,,,PLC_L_D1S2,P23,60.0174870032,01,B,2015_Mrz_04_1542,Y,
stim/negf.jpg,stim/posf.jpg,stim/5.jpg,stim/4.jpg,stim/latef.jpg,EF,2,4,0,26,26,55,,,,,,,,,,4,1,1.11630184622,,,,,,PLC_L_D1S2,P23,60.0174870032,01,B,2015_Mrz_04_1542,Y,
stim/posf.jpg,stim/negf.jpg,stim/2.jpg,stim/1.jpg,stim/latef.jpg,AB,1,2,0,27,27,1,,,,,,,,,,2,1,0.999690674165,,,,,,PLC_L_D1S2,P23,60.0174870032,01,B,2015_Mrz_04_1542,Y,
stim/negf.jpg,stim/posf.jpg,stim/6.jpg,stim/3.jpg,stim/latef.jpg,CD,1,2,0,28,28,26,,,,,,,,,,4,0,0.883002913501,,,,,,PLC_L_D1S2,P23,60.0174870032,01,B,2015_Mrz_04_1542,Y,
stim/posf.jpg,stim/negf.jpg,stim/5.jpg,stim/4.jpg,stim/latef.jpg,EF,2,4,0,29,29,52,,,,,,,,,,4,1,0.816376669436,,,,,,PLC_L_D1S2,P23,60.0174870032,01,B,2015_Mrz_04_1542,Y,
stim/negf.jpg,stim/posf.jpg,stim/2.jpg,stim/1.jpg,stim/latef.jpg,AB,1,2,0,30,30,7,,,,,,,,,,4,0,1.14962679068,,,,,,PLC_L_D1S2,P23,60.0174870032,01,B,2015_Mrz_04_1542,Y,
stim/posf.jpg,stim/negf.jpg,stim/3.jpg,stim/6.jpg,stim/latef.jpg,CD,2,4,0,31,31,31,,,,,,,,,,2,0,0.983058476784,,,,,,PLC_L_D1S2,P23,60.0174870032,01,B,2015_Mrz_04_1542,Y,
stim/negf.jpg,stim/posf.jpg,stim/3.jpg,stim/6.jpg,stim/latef.jpg,CD,2,4,0,32,32,38,,,,,,,,,,2,0,0.949677039733,,,,,,PLC_L_D1S2,P23,60.0174870032,01,B,2015_Mrz_04_1542,Y,
stim/negf.jpg,stim/posf.jpg,stim/4.jpg,stim/5.jpg,stim/latef.jpg,EF,1,2,0,33,33,47,,,,,,,,,,2,1,0.999678905877,,,,,,PLC_L_D1S2,P23,60.0174870032,01,B,2015_Mrz_04_1542,Y,
stim/posf.jpg,stim/negf.jpg,stim/6.jpg,stim/3.jpg,stim/latef.jpg,CD,1,2,0,34,34,23,,,,,,,,,,4,0,0.866378649865,,,,,,PLC_L_D1S2,P23,60.0174870032,01,B,2015_Mrz_04_1542,Y,
stim/posf.jpg,stim/negf.jpg,stim/2.jpg,stim/1.jpg,stim/latef.jpg,AB,1,2,0,35,35,3,,,,,,,,,,2,1,0.949678666782,,,,,,PLC_L_D1S2,P23,60.0174870032,01,B,2015_Mrz_04_1542,Y,
stim/posf.jpg,stim/negf.jpg,stim/4.jpg,stim/5.jpg,stim/latef.jpg,EF,1,2,0,36,36,42,,,,,,,,,,2,1,1.0163039665,,,,,,PLC_L_D1S2,P23,60.0174870032,01,B,2015_Mrz_04_1542,Y,
stim/posf.jpg,stim/negf.jpg,stim/1.jpg,stim/2.jpg,stim/latef.jpg,AB,2,4,0,37,37,14,,,,,,,,,,2,0,1.0496395785,,,,,,PLC_L_D1S2,P23,60.0174870032,01,B,2015_Mrz_04_1542,Y,
stim/posf.jpg,stim/negf.jpg,stim/3.jpg,stim/6.jpg,stim/latef.jpg,CD,2,4,0,38,38,30,,,,,,,,,,2,0,0.999600359394,,,,,,PLC_L_D1S2,P23,60.0174870032,01,B,2015_Mrz_04_1542,Y,
stim/posf.jpg,stim/negf.jpg,stim/6.jpg,stim/3.jpg,stim/latef.jpg,CD,1,2,0,39,39,20,,,,,,,,,,2,1,1.1162909892,,,,,,PLC_L_D1S2,P23,60.0174870032,01,B,2015_Mrz_04_1542,Y,
stim/negf.jpg,stim/posf.jpg,stim/4.jpg,stim/5.jpg,stim/latef.jpg,EF,1,2,0,40,40,48,,,,,,,,,,2,1,0.999686436619,,,,,,PLC_L_D1S2,P23,60.0174870032,01,B,2015_Mrz_04_1542,Y,
stim/posf.jpg,stim/negf.jpg,stim/4.jpg,stim/5.jpg,stim/latef.jpg,EF,1,2,0,41,41,45,,,,,,,,,,2,1,0.866376902516,,,,,,PLC_L_D1S2,P23,60.0174870032,01,B,2015_Mrz_04_1542,Y,
stim/posf.jpg,stim/negf.jpg,stim/3.jpg,stim/6.jpg,stim/latef.jpg,CD,2,4,0,42,42,33,,,,,,,,,,4,1,1.09962718616,,,,,,PLC_L_D1S2,P23,60.0174870032,01,B,2015_Mrz_04_1542,Y,
stim/posf.jpg,stim/negf.jpg,stim/5.jpg,stim/4.jpg,stim/latef.jpg,EF,2,4,0,43,43,53,,,,,,,,,,4,1,1.01638614001,,,,,,PLC_L_D1S2,P23,60.0174870032,01,B,2015_Mrz_04_1542,Y,
stim/posf.jpg,stim/negf.jpg,stim/1.jpg,stim/2.jpg,stim/latef.jpg,AB,2,4,0,44,44,11,,,,,,,,,,4,1,1.13292878652,,,,,,PLC_L_D1S2,P23,60.0174870032,01,B,2015_Mrz_04_1542,Y,
stim/posf.jpg,stim/negf.jpg,stim/5.jpg,stim/4.jpg,stim/latef.jpg,EF,2,4,0,45,45,50,,,,,,,,,,4,1,1.23284399048,,,,,,PLC_L_D1S2,P23,60.0174870032,01,B,2015_Mrz_04_1542,Y,
stim/negf.jpg,stim/posf.jpg,stim/5.jpg,stim/4.jpg,stim/latef.jpg,EF,2,4,0,46,46,59,,,,,,,,,,4,1,1.0163179904,,,,,,PLC_L_D1S2,P23,60.0174870032,01,B,2015_Mrz_04_1542,Y,
stim/negf.jpg,stim/posf.jpg,stim/1.jpg,stim/2.jpg,stim/latef.jpg,AB,2,4,0,47,47,17,,,,,,,,,,4,1,1.01631711221,,,,,,PLC_L_D1S2,P23,60.0174870032,01,B,2015_Mrz_04_1542,Y,
stim/negf.jpg,stim/posf.jpg,stim/2.jpg,stim/1.jpg,stim/latef.jpg,AB,1,2,0,48,48,6,,,,,,,,,,2,1,0.78304737315,,,,,,PLC_L_D1S2,P23,60.0174870032,01,B,2015_Mrz_04_1542,Y,
stim/posf.jpg,stim/negf.jpg,stim/1.jpg,stim/2.jpg,stim/latef.jpg,AB,2,4,0,49,49,13,,,,,,,,,,4,1,0.999659648951,,,,,,PLC_L_D1S2,P23,60.0174870032,01,B,2015_Mrz_04_1542,Y,
stim/negf.jpg,stim/posf.jpg,stim/6.jpg,stim/3.jpg,stim/latef.jpg,CD,1,2,0,50,50,28,,,,,,,,,,4,0,1.09961909603,,,,,,PLC_L_D1S2,P23,60.0174870032,01,B,2015_Mrz_04_1542,Y,
stim/negf.jpg,stim/posf.jpg,stim/4.jpg,stim/5.jpg,stim/latef.jpg,EF,1,2,0,51,51,49,,,,,,,,,,2,1,1.04964075142,,,,,,PLC_L_D1S2,P23,60.0174870032,01,B,2015_Mrz_04_1542,Y,
stim/posf.jpg,stim/negf.jpg,stim/1.jpg,stim/2.jpg,stim/latef.jpg,AB,2,4,0,52,52,10,,,,,,,,,,4,1,0.849469186438,,,,,,PLC_L_D1S2,P23,60.0174870032,01,B,2015_Mrz_04_1542,Y,
stim/posf.jpg,stim/negf.jpg,stim/6.jpg,stim/3.jpg,stim/latef.jpg,CD,1,2,0,53,53,22,,,,,,,,,,4,0,1.08294547355,,,,,,PLC_L_D1S2,P23,60.0174870032,01,B,2015_Mrz_04_1542,Y,
stim/negf.jpg,stim/posf.jpg,stim/2.jpg,stim/1.jpg,stim/latef.jpg,AB,1,2,0,54,54,9,,,,,,,,,,4,0,1.11629725078,,,,,,PLC_L_D1S2,P23,60.0174870032,01,B,2015_Mrz_04_1542,Y,
stim/posf.jpg,stim/negf.jpg,stim/6.jpg,stim/3.jpg,stim/latef.jpg,CD,1,2,0,55,55,21,,,,,,,,,,4,0,0.983018426108,,,,,,PLC_L_D1S2,P23,60.0174870032,01,B,2015_Mrz_04_1542,Y,
stim/negf.jpg,stim/posf.jpg,stim/4.jpg,stim/5.jpg,stim/latef.jpg,EF,1,2,0,56,56,46,,,,,,,,,,4,0,1.19961978173,,,,,,PLC_L_D1S2,P23,60.0174870032,01,B,2015_Mrz_04_1542,Y,
stim/negf.jpg,stim/posf.jpg,stim/1.jpg,stim/2.jpg,stim/latef.jpg,AB,2,4,0,57,57,18,,,,,,,,,,4,1,1.31623635523,,,,,,PLC_L_D1S2,P23,60.0174870032,01,B,2015_Mrz_04_1542,Y,
stim/negf.jpg,stim/posf.jpg,stim/3.jpg,stim/6.jpg,stim/latef.jpg,CD,2,4,0,58,58,37,,,,,,,,,,2,0,1.08297051086,,,,,,PLC_L_D1S2,P23,60.0174870032,01,B,2015_Mrz_04_1542,Y,
stim/negf.jpg,stim/posf.jpg,stim/5.jpg,stim/4.jpg,stim/latef.jpg,EF,2,4,0,59,59,56,,,,,,,,,,4,1,0.999633125942,,,,,,PLC_L_D1S2,P23,60.0174870032,01,B,2015_Mrz_04_1542,Y,
,,,,,,,,,,,,,,,,,,,,,,,,0.9984375,1.0,1,0,0,PLC_L_D1S2,P23,60.0174870032,01,B,2015_Mrz_04_1542,Y,
stim/negf.jpg,stim/posf.jpg,stim/5.jpg,stim/4.jpg,stim/latef.jpg,EF,2,4,,,,,0,0,0,57,,,,,,4,1,0.899691417014,,,,,,PLC_L_D1S2,P23,60.0174870032,01,B,2015_Mrz_04_1542,Y,
stim/posf.jpg,stim/negf.jpg,stim/6.jpg,stim/3.jpg,stim/latef.jpg,CD,1,2,,,,,0,1,1,23,,,,,,4,0,0.949630640256,,,,,,PLC_L_D1S2,P23,60.0174870032,01,B,2015_Mrz_04_1542,Y,
stim/posf.jpg,stim/negf.jpg,stim/2.jpg,stim/1.jpg,stim/latef.jpg,AB,1,2,,,,,0,2,2,0,,,,,,2,1,0.766397130859,,,,,,PLC_L_D1S2,P23,60.0174870032,01,B,2015_Mrz_04_1542,Y,
stim/posf.jpg,stim/negf.jpg,stim/5.jpg,stim/4.jpg,stim/latef.jpg,EF,2,4,,,,,0,3,3,55,,,,,,4,1,0.983013256242,,,,,,PLC_L_D1S2,P23,60.0174870032,01,B,2015_Mrz_04_1542,Y,
stim/posf.jpg,stim/negf.jpg,stim/4.jpg,stim/5.jpg,stim/latef.jpg,EF,1,2,,,,,0,4,4,43,,,,,,4,0,0.933020313305,,,,,,PLC_L_D1S2,P23,60.0174870032,01,B,2015_Mrz_04_1542,Y,
stim/posf.jpg,stim/negf.jpg,stim/6.jpg,stim/3.jpg,stim/latef.jpg,CD,1,2,,,,,0,5,5,24,,,,,,4,0,0.933067293226,,,,,,PLC_L_D1S2,P23,60.0174870032,01,B,2015_Mrz_04_1542,Y,
stim/posf.jpg,stim/negf.jpg,stim/2.jpg,stim/1.jpg,stim/latef.jpg,AB,1,2,,,,,0,6,6,1,,,,,,2,1,0.733105542419,,,,,,PLC_L_D1S2,P23,60.0174870032,01,B,2015_Mrz_04_1542,Y,
stim/negf.jpg,stim/posf.jpg,stim/3.jpg,stim/6.jpg,stim/latef.jpg,CD,2,4,,,,,0,7,7,39,,,,,,4,1,1.18292495949,,,,,,PLC_L_D1S2,P23,60.0174870032,01,B,2015_Mrz_04_1542,Y,
stim/negf.jpg,stim/posf.jpg,stim/6.jpg,stim/3.jpg,stim/latef.jpg,CD,1,2,,,,,0,8,8,26,,,,,,4,0,1.01624178675,,,,,,PLC_L_D1S2,P23,60.0174870032,01,B,2015_Mrz_04_1542,Y,
stim/posf.jpg,stim/negf.jpg,stim/2.jpg,stim/1.jpg,stim/latef.jpg,AB,1,2,,,,,0,9,9,2,,,,,,2,1,0.94966611354,,,,,,PLC_L_D1S2,P23,60.0174870032,01,B,2015_Mrz_04_1542,Y,
stim/negf.jpg,stim/posf.jpg,stim/1.jpg,stim/2.jpg,stim/latef.jpg,AB,2,4,,,,,0,10,10,18,,,,,,4,1,1.04965735274,,,,,,PLC_L_D1S2,P23,60.0174870032,01,B,2015_Mrz_04_1542,Y,
stim/posf.jpg,stim/negf.jpg,stim/1.jpg,stim/2.jpg,stim/latef.jpg,AB,2,4,,,,,0,11,11,14,,,,,,4,1,1.03299918873,,,,,,PLC_L_D1S2,P23,60.0174870032,01,B,2015_Mrz_04_1542,Y,
stim/negf.jpg,stim/posf.jpg,stim/2.jpg,stim/1.jpg,stim/latef.jpg,AB,1,2,,,,,0,12,12,6,,,,,,4,0,1.18293833378,,,,,,PLC_L_D1S2,P23,60.0174870032,01,B,2015_Mrz_04_1542,Y,
stim/posf.jpg,stim/negf.jpg,stim/2.jpg,stim/1.jpg,stim/latef.jpg,AB,1,2,,,,,0,13,13,5,,,,,,2,1,0.916391165513,,,,,,PLC_L_D1S2,P23,60.0174870032,01,B,2015_Mrz_04_1542,Y,
stim/negf.jpg,stim/posf.jpg,stim/1.jpg,stim/2.jpg,stim/latef.jpg,AB,2,4,,,,,0,14,14,16,,,,,,4,1,0.899731651147,,,,,,PLC_L_D1S2,P23,60.0174870032,01,B,2015_Mrz_04_1542,Y,
stim/posf.jpg,stim/negf.jpg,stim/2.jpg,stim/1.jpg,stim/latef.jpg,AB,1,2,,,,,0,15,15,3,,,,,,2,1,1.11627678485,,,,,,PLC_L_D1S2,P23,60.0174870032,01,B,2015_Mrz_04_1542,Y,
stim/negf.jpg,stim/posf.jpg,stim/2.jpg,stim/1.jpg,stim/latef.jpg,AB,1,2,,,,,0,16,16,8,,,,,,2,1,1.03298638888,,,,,,PLC_L_D1S2,P23,60.0174870032,01,B,2015_Mrz_04_1542,Y,
stim/posf.jpg,stim/negf.jpg,stim/4.jpg,stim/5.jpg,stim/latef.jpg,EF,1,2,,,,,0,17,17,42,,,,,,2,1,0.816410999876,,,,,,PLC_L_D1S2,P23,60.0174870032,01,B,2015_Mrz_04_1542,Y,
stim/posf.jpg,stim/negf.jpg,stim/3.jpg,stim/6.jpg,stim/latef.jpg,CD,2,4,,,,,0,18,18,32,,,,,,2,0,0.899747789311,,,,,,PLC_L_D1S2,P23,60.0174870032,01,B,2015_Mrz_04_1542,Y,
stim/posf.jpg,stim/negf.jpg,stim/5.jpg,stim/4.jpg,stim/latef.jpg,EF,2,4,,,,,0,19,19,52,,,,,,4,1,1.08298222802,,,,,,PLC_L_D1S2,P23,60.0174870032,01,B,2015_Mrz_04_1542,Y,
stim/posf.jpg,stim/negf.jpg,stim/4.jpg,stim/5.jpg,stim/latef.jpg,EF,1,2,,,,,0,20,20,41,,,,,,4,0,0.983030140262,,,,,,PLC_L_D1S2,P23,60.0174870032,01,B,2015_Mrz_04_1542,Y,
stim/negf.jpg,stim/posf.jpg,stim/2.jpg,stim/1.jpg,stim/latef.jpg,AB,1,2,,,,,0,21,21,7,,,,,,2,1,0.68312350763,,,,,,PLC_L_D1S2,P23,60.0174870032,01,B,2015_Mrz_04_1542,Y,
stim/posf.jpg,stim/negf.jpg,stim/3.jpg,stim/6.jpg,stim/latef.jpg,CD,2,4,,,,,0,22,22,30,,,,,,4,1,0.982923254249,,,,,,PLC_L_D1S2,P23,60.0174870032,01,B,2015_Mrz_04_1542,Y,
stim/posf.jpg,stim/negf.jpg,stim/1.jpg,stim/2.jpg,stim/latef.jpg,AB,2,4,,,,,0,23,23,12,,,,,,4,1,1.23291896708,,,,,,PLC_L_D1S2,P23,60.0174870032,01,B,2015_Mrz_04_1542,Y,
stim/posf.jpg,stim/negf.jpg,stim/2.jpg,stim/1.jpg,stim/latef.jpg,AB,1,2,,,,,0,24,24,4,,,,,,2,1,0.833052965568,,,,,,PLC_L_D1S2,P23,60.0174870032,01,B,2015_Mrz_04_1542,Y,
stim/negf.jpg,stim/posf.jpg,stim/3.jpg,stim/6.jpg,stim/latef.jpg,CD,2,4,,,,,0,25,25,38,,,,,,2,0,0.849714801713,,,,,,PLC_L_D1S2,P23,60.0174870032,01,B,2015_Mrz_04_1542,Y,
stim/posf.jpg,stim/negf.jpg,stim/5.jpg,stim/4.jpg,stim/latef.jpg,EF,2,4,,,,,0,26,26,50,,,,,,4,1,0.866384373108,,,,,,PLC_L_D1S2,P23,60.0174870032,01,B,2015_Mrz_04_1542,Y,
stim/posf.jpg,stim/negf.jpg,stim/3.jpg,stim/6.jpg,stim/latef.jpg,CD,2,4,,,,,0,27,27,31,,,,,,2,0,0.933023071168,,,,,,PLC_L_D1S2,P23,60.0174870032,01,B,2015_Mrz_04_1542,Y,
stim/posf.jpg,stim/negf.jpg,stim/5.jpg,stim/4.jpg,stim/latef.jpg,EF,2,4,,,,,0,28,28,53,,,,,,4,1,0.916374744646,,,,,,PLC_L_D1S2,P23,60.0174870032,01,B,2015_Mrz_04_1542,Y,
stim/posf.jpg,stim/negf.jpg,stim/1.jpg,stim/2.jpg,stim/latef.jpg,AB,2,4,,,,,0,29,29,11,,,,,,2,0,1.23288624865,,,,,,PLC_L_D1S2,P23,60.0174870032,01,B,2015_Mrz_04_1542,Y,
stim/posf.jpg,stim/negf.jpg,stim/5.jpg,stim/4.jpg,stim/latef.jpg,EF,2,4,,,,,0,30,30,51,,,,,,2,0,1.08300455559,,,,,,PLC_L_D1S2,P23,60.0174870032,01,B,2015_Mrz_04_1542,Y,
stim/posf.jpg,stim/negf.jpg,stim/3.jpg,stim/6.jpg,stim/latef.jpg,CD,2,4,,,,,0,31,31,34,,,,,,2,0,1.29955465765,,,,,,PLC_L_D1S2,P23,60.0174870032,01,B,2015_Mrz_04_1542,Y,
stim/negf.jpg,stim/posf.jpg,stim/5.jpg,stim/4.jpg,stim/latef.jpg,EF,2,4,,,,,0,32,32,56,,,,,,4,1,0.866368767269,,,,,,PLC_L_D1S2,P23,60.0174870032,01,B,2015_Mrz_04_1542,Y,
stim/negf.jpg,stim/posf.jpg,stim/1.jpg,stim/2.jpg,stim/latef.jpg,AB,2,4,,,,,0,33,33,17,,,,,,4,1,0.899688481709,,,,,,PLC_L_D1S2,P23,60.0174870032,01,B,2015_Mrz_04_1542,Y,
stim/negf.jpg,stim/posf.jpg,stim/4.jpg,stim/5.jpg,stim/latef.jpg,EF,1,2,,,,,0,34,34,46,,,,,,2,1,0.949624715511,,,,,,PLC_L_D1S2,P23,60.0174870032,01,B,2015_Mrz_04_1542,Y,
stim/negf.jpg,stim/posf.jpg,stim/4.jpg,stim/5.jpg,stim/latef.jpg,EF,1,2,,,,,0,35,35,48,,,,,,2,1,0.816404924756,,,,,,PLC_L_D1S2,P23,60.0174870032,01,B,2015_Mrz_04_1542,Y,
stim/posf.jpg,stim/negf.jpg,stim/6.jpg,stim/3.jpg,stim/latef.jpg,CD,1,2,,,,,0,36,36,21,,,,,,4,0,1.03298541445,,,,,,PLC_L_D1S2,P23,60.0174870032,01,B,2015_Mrz_04_1542,Y,
stim/negf.jpg,stim/posf.jpg,stim/6.jpg,stim/3.jpg,stim/latef.jpg,CD,1,2,,,,,0,37,37,27,,,,,,4,0,1.21623922738,,,,,,PLC_L_D1S2,P23,60.0174870032,01,B,2015_Mrz_04_1542,Y,
stim/posf.jpg,stim/negf.jpg,stim/1.jpg,stim/2.jpg,stim/latef.jpg,AB,2,4,,,,,0,38,38,13,,,,,,4,1,1.04965562945,,,,,,PLC_L_D1S2,P23,60.0174870032,01,B,2015_Mrz_04_1542,Y,
stim/posf.jpg,stim/negf.jpg,stim/4.jpg,stim/5.jpg,stim/latef.jpg,EF,1,2,,,,,0,39,39,44,,,,,,2,1,1.11630480258,,,,,,PLC_L_D1S2,P23,60.0174870032,01,B,2015_Mrz_04_1542,Y,
stim/negf.jpg,stim/posf.jpg,stim/6.jpg,stim/3.jpg,stim/latef.jpg,CD,1,2,,,,,0,40,40,28,,,,,,4,0,1.01627156085,,,,,,PLC_L_D1S2,P23,60.0174870032,01,B,2015_Mrz_04_1542,Y,
stim/posf.jpg,stim/negf.jpg,stim/1.jpg,stim/2.jpg,stim/latef.jpg,AB,2,4,,,,,0,41,41,15,,,,,,4,1,1.13296902967,,,,,,PLC_L_D1S2,P23,60.0174870032,01,B,2015_Mrz_04_1542,Y,
stim/posf.jpg,stim/negf.jpg,stim/4.jpg,stim/5.jpg,stim/latef.jpg,EF,1,2,,,,,0,42,42,40,,,,,,2,1,1.21625492043,,,,,,PLC_L_D1S2,P23,60.0174870032,01,B,2015_Mrz_04_1542,Y,
stim/negf.jpg,stim/posf.jpg,stim/5.jpg,stim/4.jpg,stim/latef.jpg,EF,2,4,,,,,0,43,43,58,,,,,,4,1,0.883081505095,,,,,,PLC_L_D1S2,P23,60.0174870032,01,B,2015_Mrz_04_1542,Y,
stim/negf.jpg,stim/posf.jpg,stim/4.jpg,stim/5.jpg,stim/latef.jpg,EF,1,2,,,,,0,44,44,45,,,,,,4,0,1.08295500727,,,,,,PLC_L_D1S2,P23,60.0174870032,01,B,2015_Mrz_04_1542,Y,
stim/negf.jpg,stim/posf.jpg,stim/6.jpg,stim/3.jpg,stim/latef.jpg,CD,1,2,,,,,0,45,45,29,,,,,,4,0,0.949667839836,,,,,,PLC_L_D1S2,P23,60.0174870032,01,B,2015_Mrz_04_1542,Y,
stim/negf.jpg,stim/posf.jpg,stim/3.jpg,stim/6.jpg,stim/latef.jpg,CD,2,4,,,,,0,46,46,37,,,,,,2,0,0.86636313425,,,,,,PLC_L_D1S2,P23,60.0174870032,01,B,2015_Mrz_04_1542,Y,
stim/negf.jpg,stim/posf.jpg,stim/5.jpg,stim/4.jpg,stim/latef.jpg,EF,2,4,,,,,0,47,47,59,,,,,,2,0,0.766459235422,,,,,,PLC_L_D1S2,P23,60.0174870032,01,B,2015_Mrz_04_1542,Y,
stim/negf.jpg,stim/posf.jpg,stim/1.jpg,stim/2.jpg,stim/latef.jpg,AB,2,4,,,,,0,48,48,19,,,,,,4,1,0.899704649948,,,,,,PLC_L_D1S2,P23,60.0174870032,01,B,2015_Mrz_04_1542,Y,
stim/posf.jpg,stim/negf.jpg,stim/3.jpg,stim/6.jpg,stim/latef.jpg,CD,2,4,,,,,0,49,49,35,,,,,,2,0,0.883006104443,,,,,,PLC_L_D1S2,P23,60.0174870032,01,B,2015_Mrz_04_1542,Y,
stim/posf.jpg,stim/negf.jpg,stim/5.jpg,stim/4.jpg,stim/latef.jpg,EF,2,4,,,,,0,50,50,54,,,,,,4,1,1.08299373766,,,,,,PLC_L_D1S2,P23,60.0174870032,01,B,2015_Mrz_04_1542,Y,
stim/posf.jpg,stim/negf.jpg,stim/6.jpg,stim/3.jpg,stim/latef.jpg,CD,1,2,,,,,0,51,51,25,,,,,,4,0,1.18286666842,,,,,,PLC_L_D1S2,P23,60.0174870032,01,B,2015_Mrz_04_1542,Y,
stim/negf.jpg,stim/posf.jpg,stim/2.jpg,stim/1.jpg,stim/latef.jpg,AB,1,2,,,,,0,52,52,9,,,,,,2,1,0.899680090826,,,,,,PLC_L_D1S2,P23,60.0174870032,01,B,2015_Mrz_04_1542,Y,
stim/posf.jpg,stim/negf.jpg,stim/6.jpg,stim/3.jpg,stim/latef.jpg,CD,1,2,,,,,0,53,53,20,,,,,,4,0,0.88299615869,,,,,,PLC_L_D1S2,P23,60.0174870032,01,B,2015_Mrz_04_1542,Y,
stim/posf.jpg,stim/negf.jpg,stim/6.jpg,stim/3.jpg,stim/latef.jpg,CD,1,2,,,,,0,54,54,22,,,,,,2,1,0.883035541705,,,,,,PLC_L_D1S2,P23,60.0174870032,01,B,2015_Mrz_04_1542,Y,
stim/negf.jpg,stim/posf.jpg,stim/3.jpg,stim/6.jpg,stim/latef.jpg,CD,2,4,,,,,0,55,55,36,,,,,,4,1,1.03299734214,,,,,,PLC_L_D1S2,P23,60.0174870032,01,B,2015_Mrz_04_1542,Y,
stim/negf.jpg,stim/posf.jpg,stim/4.jpg,stim/5.jpg,stim/latef.jpg,EF,1,2,,,,,0,56,56,49,,,,,,2,1,1.04966327147,,,,,,PLC_L_D1S2,P23,60.0174870032,01,B,2015_Mrz_04_1542,Y,
stim/negf.jpg,stim/posf.jpg,stim/4.jpg,stim/5.jpg,stim/latef.jpg,EF,1,2,,,,,0,57,57,47,,,,,,4,0,0.933024674158,,,,,,PLC_L_D1S2,P23,60.0174870032,01,B,2015_Mrz_04_1542,Y,
stim/posf.jpg,stim/negf.jpg,stim/1.jpg,stim/2.jpg,stim/latef.jpg,AB,2,4,,,,,0,58,58,10,,,,,,4,1,0.932948232915,,,,,,PLC_L_D1S2,P23,60.0174870032,01,B,2015_Mrz_04_1542,Y,
stim/posf.jpg,stim/negf.jpg,stim/3.jpg,stim/6.jpg,stim/latef.jpg,CD,2,4,,,,,0,59,59,33,,,,,,2,0,0.949686943381,,,,,,PLC_L_D1S2,P23,60.0174870032,01,B,2015_Mrz_04_1542,Y,
