fb_corr,fb_incorr,symbol2,symbol1,fb_late,pair,position,correct,block_01.thisRepN,block_01.thisTrialN,block_01.thisN,block_01.thisIndex,block_02.thisRepN,block_02.thisTrialN,block_02.thisN,block_02.thisIndex,mouse.x,mouse.y,mouse.leftButton,mouse.midButton,mouse.rightButton,buttonBox_2.keys,buttonBox_2.corr,buttonBox_2.rt,mouse_2.x,mouse_2.y,mouse_2.leftButton,mouse_2.midButton,mouse_2.rightButton,expName,Participant,frameRate,SessionNumber,Version,date,Group,
,,,,,,,,,,,,,,,,-0.38125,0.841796875,1,0,0,,,,,,,,,PLC_L_D1S2,P2,60.0124485639,02,A,2014_Dez_05_1609,Y,
stim/posf.jpg,stim/negf.jpg,stim/4.jpg,stim/1.jpg,stim/latef.jpg,EF,1,2,0,0,0,42,,,,,,,,,,2,1,1.16629946542,,,,,,PLC_L_D1S2,P2,60.0124485639,02,A,2014_Dez_05_1609,Y,
stim/negf.jpg,stim/posf.jpg,stim/1.jpg,stim/4.jpg,stim/latef.jpg,EF,2,4,0,1,1,55,,,,,,,,,,2,0,0.599789165495,,,,,,PLC_L_D1S2,P2,60.0124485639,02,A,2014_Dez_05_1609,Y,
stim/negf.jpg,stim/posf.jpg,stim/1.jpg,stim/4.jpg,stim/latef.jpg,EF,2,4,0,2,2,56,,,,,,,,,,4,1,0.39981636529,,,,,,PLC_L_D1S2,P2,60.0124485639,02,A,2014_Dez_05_1609,Y,
stim/posf.jpg,stim/negf.jpg,stim/2.jpg,stim/6.jpg,stim/latef.jpg,CD,1,2,0,3,3,23,,,,,,,,,,2,1,0.249896740625,,,,,,PLC_L_D1S2,P2,60.0124485639,02,A,2014_Dez_05_1609,Y,
stim/posf.jpg,stim/negf.jpg,stim/5.jpg,stim/3.jpg,stim/latef.jpg,AB,2,4,0,4,4,10,,,,,,,,,,2,0,0.533151928181,,,,,,PLC_L_D1S2,P2,60.0124485639,02,A,2014_Dez_05_1609,Y,
stim/negf.jpg,stim/posf.jpg,stim/3.jpg,stim/5.jpg,stim/latef.jpg,AB,1,2,0,5,5,7,,,,,,,,,,4,0,0.366545815446,,,,,,PLC_L_D1S2,P2,60.0124485639,02,A,2014_Dez_05_1609,Y,
stim/negf.jpg,stim/posf.jpg,stim/6.jpg,stim/2.jpg,stim/latef.jpg,CD,2,4,0,6,6,36,,,,,,,,,,2,0,0.56650846535,,,,,,PLC_L_D1S2,P2,60.0124485639,02,A,2014_Dez_05_1609,Y,
stim/posf.jpg,stim/negf.jpg,stim/2.jpg,stim/6.jpg,stim/latef.jpg,CD,1,2,0,7,7,24,,,,,,,,,,2,1,0.483163185239,,,,,,PLC_L_D1S2,P2,60.0124485639,02,A,2014_Dez_05_1609,Y,
stim/posf.jpg,stim/negf.jpg,stim/2.jpg,stim/6.jpg,stim/latef.jpg,CD,1,2,0,8,8,20,,,,,,,,,,2,1,0.449841083901,,,,,,PLC_L_D1S2,P2,60.0124485639,02,A,2014_Dez_05_1609,Y,
stim/negf.jpg,stim/posf.jpg,stim/6.jpg,stim/2.jpg,stim/latef.jpg,CD,2,4,0,9,9,39,,,,,,,,,,4,1,0.449851110893,,,,,,PLC_L_D1S2,P2,60.0124485639,02,A,2014_Dez_05_1609,Y,
stim/negf.jpg,stim/posf.jpg,stim/3.jpg,stim/5.jpg,stim/latef.jpg,AB,1,2,0,10,10,9,,,,,,,,,,2,1,0.383207651071,,,,,,PLC_L_D1S2,P2,60.0124485639,02,A,2014_Dez_05_1609,Y,
stim/posf.jpg,stim/negf.jpg,stim/3.jpg,stim/5.jpg,stim/latef.jpg,AB,1,2,0,11,11,4,,,,,,,,,,4,0,0.366580585109,,,,,,PLC_L_D1S2,P2,60.0124485639,02,A,2014_Dez_05_1609,Y,
stim/negf.jpg,stim/posf.jpg,stim/5.jpg,stim/3.jpg,stim/latef.jpg,AB,2,4,0,12,12,16,,,,,,,,,,2,0,0.249927071225,,,,,,PLC_L_D1S2,P2,60.0124485639,02,A,2014_Dez_05_1609,Y,
stim/posf.jpg,stim/negf.jpg,stim/5.jpg,stim/3.jpg,stim/latef.jpg,AB,2,4,0,13,13,14,,,,,,,,,,2,0,0.266671760362,,,,,,PLC_L_D1S2,P2,60.0124485639,02,A,2014_Dez_05_1609,Y,
stim/negf.jpg,stim/posf.jpg,stim/5.jpg,stim/3.jpg,stim/latef.jpg,AB,2,4,0,14,14,18,,,,,,,,,,2,0,0.383197473703,,,,,,PLC_L_D1S2,P2,60.0124485639,02,A,2014_Dez_05_1609,Y,
stim/negf.jpg,stim/posf.jpg,stim/1.jpg,stim/4.jpg,stim/latef.jpg,EF,2,4,0,15,15,58,,,,,,,,,,4,1,0.483091694047,,,,,,PLC_L_D1S2,P2,60.0124485639,02,A,2014_Dez_05_1609,Y,
stim/posf.jpg,stim/negf.jpg,stim/4.jpg,stim/1.jpg,stim/latef.jpg,EF,1,2,0,16,16,45,,,,,,,,,,4,0,0.38320574131,,,,,,PLC_L_D1S2,P2,60.0124485639,02,A,2014_Dez_05_1609,Y,
stim/negf.jpg,stim/posf.jpg,stim/2.jpg,stim/6.jpg,stim/latef.jpg,CD,1,2,0,17,17,28,,,,,,,,,,2,1,0.283190751949,,,,,,PLC_L_D1S2,P2,60.0124485639,02,A,2014_Dez_05_1609,Y,
stim/posf.jpg,stim/negf.jpg,stim/2.jpg,stim/6.jpg,stim/latef.jpg,CD,1,2,0,18,18,25,,,,,,,,,,4,0,0.283229274967,,,,,,PLC_L_D1S2,P2,60.0124485639,02,A,2014_Dez_05_1609,Y,
stim/negf.jpg,stim/posf.jpg,stim/6.jpg,stim/2.jpg,stim/latef.jpg,CD,2,4,0,19,19,37,,,,,,,,,,2,0,0.199932060661,,,,,,PLC_L_D1S2,P2,60.0124485639,02,A,2014_Dez_05_1609,Y,
stim/posf.jpg,stim/negf.jpg,stim/2.jpg,stim/6.jpg,stim/latef.jpg,CD,1,2,0,20,20,22,,,,,,,,,,2,1,0.316557042428,,,,,,PLC_L_D1S2,P2,60.0124485639,02,A,2014_Dez_05_1609,Y,
stim/posf.jpg,stim/negf.jpg,stim/5.jpg,stim/3.jpg,stim/latef.jpg,AB,2,4,0,21,21,15,,,,,,,,,,2,0,0.349893122608,,,,,,PLC_L_D1S2,P2,60.0124485639,02,A,2014_Dez_05_1609,Y,
stim/posf.jpg,stim/negf.jpg,stim/3.jpg,stim/5.jpg,stim/latef.jpg,AB,1,2,0,22,22,0,,,,,,,,,,2,1,0.333145762814,,,,,,PLC_L_D1S2,P2,60.0124485639,02,A,2014_Dez_05_1609,Y,
stim/negf.jpg,stim/posf.jpg,stim/2.jpg,stim/6.jpg,stim/latef.jpg,CD,1,2,0,23,23,27,,,,,,,,,,4,0,0.566462504793,,,,,,PLC_L_D1S2,P2,60.0124485639,02,A,2014_Dez_05_1609,Y,
stim/negf.jpg,stim/posf.jpg,stim/1.jpg,stim/4.jpg,stim/latef.jpg,EF,2,4,0,24,24,59,,,,,,,,,,2,0,0.349875197931,,,,,,PLC_L_D1S2,P2,60.0124485639,02,A,2014_Dez_05_1609,Y,
stim/posf.jpg,stim/negf.jpg,stim/3.jpg,stim/5.jpg,stim/latef.jpg,AB,1,2,0,25,25,5,,,,,,,,,,2,1,0.499891227885,,,,,,PLC_L_D1S2,P2,60.0124485639,02,A,2014_Dez_05_1609,Y,
stim/posf.jpg,stim/negf.jpg,stim/3.jpg,stim/5.jpg,stim/latef.jpg,AB,1,2,0,26,26,1,,,,,,,,,,2,1,0.699785616649,,,,,,PLC_L_D1S2,P2,60.0124485639,02,A,2014_Dez_05_1609,Y,
stim/posf.jpg,stim/negf.jpg,stim/1.jpg,stim/4.jpg,stim/latef.jpg,EF,2,4,0,27,27,54,,,,,,,,,,4,1,0.716416974308,,,,,,PLC_L_D1S2,P2,60.0124485639,02,A,2014_Dez_05_1609,Y,
stim/posf.jpg,stim/negf.jpg,stim/6.jpg,stim/2.jpg,stim/latef.jpg,CD,2,4,0,28,28,34,,,,,,,,,,2,0,0.499827589266,,,,,,PLC_L_D1S2,P2,60.0124485639,02,A,2014_Dez_05_1609,Y,
stim/negf.jpg,stim/posf.jpg,stim/3.jpg,stim/5.jpg,stim/latef.jpg,AB,1,2,0,29,29,6,,,,,,,,,,4,0,0.533196129352,,,,,,PLC_L_D1S2,P2,60.0124485639,02,A,2014_Dez_05_1609,Y,
stim/posf.jpg,stim/negf.jpg,stim/6.jpg,stim/2.jpg,stim/latef.jpg,CD,2,4,0,30,30,33,,,,,,,,,,4,1,0.716410060075,,,,,,PLC_L_D1S2,P2,60.0124485639,02,A,2014_Dez_05_1609,Y,
stim/posf.jpg,stim/negf.jpg,stim/6.jpg,stim/2.jpg,stim/latef.jpg,CD,2,4,0,31,31,31,,,,,,,,,,4,1,0.383198631589,,,,,,PLC_L_D1S2,P2,60.0124485639,02,A,2014_Dez_05_1609,Y,
stim/negf.jpg,stim/posf.jpg,stim/4.jpg,stim/1.jpg,stim/latef.jpg,EF,1,2,0,32,32,47,,,,,,,,,,4,0,0.799736681679,,,,,,PLC_L_D1S2,P2,60.0124485639,02,A,2014_Dez_05_1609,Y,
stim/posf.jpg,stim/negf.jpg,stim/1.jpg,stim/4.jpg,stim/latef.jpg,EF,2,4,0,33,33,52,,,,,,,,,,4,1,0.516520387065,,,,,,PLC_L_D1S2,P2,60.0124485639,02,A,2014_Dez_05_1609,Y,
stim/posf.jpg,stim/negf.jpg,stim/4.jpg,stim/1.jpg,stim/latef.jpg,EF,1,2,0,34,34,44,,,,,,,,,,4,0,0.349923155465,,,,,,PLC_L_D1S2,P2,60.0124485639,02,A,2014_Dez_05_1609,Y,
stim/negf.jpg,stim/posf.jpg,stim/4.jpg,stim/1.jpg,stim/latef.jpg,EF,1,2,0,35,35,46,,,,,,,,,,2,1,0.283228535123,,,,,,PLC_L_D1S2,P2,60.0124485639,02,A,2014_Dez_05_1609,Y,
stim/posf.jpg,stim/negf.jpg,stim/5.jpg,stim/3.jpg,stim/latef.jpg,AB,2,4,0,36,36,11,,,,,,,,,,4,1,0.466414312674,,,,,,PLC_L_D1S2,P2,60.0124485639,02,A,2014_Dez_05_1609,Y,
stim/posf.jpg,stim/negf.jpg,stim/5.jpg,stim/3.jpg,stim/latef.jpg,AB,2,4,0,37,37,12,,,,,,,,,,4,1,1.48283910046,,,,,,PLC_L_D1S2,P2,60.0124485639,02,A,2014_Dez_05_1609,Y,
stim/negf.jpg,stim/posf.jpg,stim/3.jpg,stim/5.jpg,stim/latef.jpg,AB,1,2,0,38,38,8,,,,,,,,,,4,0,0.433163663432,,,,,,PLC_L_D1S2,P2,60.0124485639,02,A,2014_Dez_05_1609,Y,
stim/posf.jpg,stim/negf.jpg,stim/6.jpg,stim/2.jpg,stim/latef.jpg,CD,2,4,0,39,39,35,,,,,,,,,,2,0,0.316538738806,,,,,,PLC_L_D1S2,P2,60.0124485639,02,A,2014_Dez_05_1609,Y,
stim/posf.jpg,stim/negf.jpg,stim/1.jpg,stim/4.jpg,stim/latef.jpg,EF,2,4,0,40,40,53,,,,,,,,,,4,1,0.349882313666,,,,,,PLC_L_D1S2,P2,60.0124485639,02,A,2014_Dez_05_1609,Y,
stim/negf.jpg,stim/posf.jpg,stim/5.jpg,stim/3.jpg,stim/latef.jpg,AB,2,4,0,41,41,17,,,,,,,,,,4,1,0.449848467305,,,,,,PLC_L_D1S2,P2,60.0124485639,02,A,2014_Dez_05_1609,Y,
stim/negf.jpg,stim/posf.jpg,stim/5.jpg,stim/3.jpg,stim/latef.jpg,AB,2,4,0,42,42,19,,,,,,,,,,4,1,0.466495310561,,,,,,PLC_L_D1S2,P2,60.0124485639,02,A,2014_Dez_05_1609,Y,
stim/negf.jpg,stim/posf.jpg,stim/4.jpg,stim/1.jpg,stim/latef.jpg,EF,1,2,0,43,43,48,,,,,,,,,,2,1,0.366538690686,,,,,,PLC_L_D1S2,P2,60.0124485639,02,A,2014_Dez_05_1609,Y,
stim/posf.jpg,stim/negf.jpg,stim/1.jpg,stim/4.jpg,stim/latef.jpg,EF,2,4,0,44,44,51,,,,,,,,,,4,1,0.499824590793,,,,,,PLC_L_D1S2,P2,60.0124485639,02,A,2014_Dez_05_1609,Y,
stim/posf.jpg,stim/negf.jpg,stim/4.jpg,stim/1.jpg,stim/latef.jpg,EF,1,2,0,45,45,43,,,,,,,,,,4,0,0.616433046368,,,,,,PLC_L_D1S2,P2,60.0124485639,02,A,2014_Dez_05_1609,Y,
stim/posf.jpg,stim/negf.jpg,stim/2.jpg,stim/6.jpg,stim/latef.jpg,CD,1,2,0,46,46,21,,,,,,,,,,2,1,0.683082112165,,,,,,PLC_L_D1S2,P2,60.0124485639,02,A,2014_Dez_05_1609,Y,
stim/posf.jpg,stim/negf.jpg,stim/5.jpg,stim/3.jpg,stim/latef.jpg,AB,2,4,0,47,47,13,,,,,,,,,,4,1,0.533159380756,,,,,,PLC_L_D1S2,P2,60.0124485639,02,A,2014_Dez_05_1609,Y,
stim/negf.jpg,stim/posf.jpg,stim/2.jpg,stim/6.jpg,stim/latef.jpg,CD,1,2,0,48,48,26,,,,,,,,,,4,0,0.366560892023,,,,,,PLC_L_D1S2,P2,60.0124485639,02,A,2014_Dez_05_1609,Y,
stim/posf.jpg,stim/negf.jpg,stim/3.jpg,stim/5.jpg,stim/latef.jpg,AB,1,2,0,49,49,2,,,,,,,,,,4,0,0.449877787385,,,,,,PLC_L_D1S2,P2,60.0124485639,02,A,2014_Dez_05_1609,Y,
stim/negf.jpg,stim/posf.jpg,stim/4.jpg,stim/1.jpg,stim/latef.jpg,EF,1,2,0,50,50,49,,,,,,,,,,4,0,0.599799796994,,,,,,PLC_L_D1S2,P2,60.0124485639,02,A,2014_Dez_05_1609,Y,
stim/posf.jpg,stim/negf.jpg,stim/6.jpg,stim/2.jpg,stim/latef.jpg,CD,2,4,0,51,51,30,,,,,,,,,,4,1,0.383201557883,,,,,,PLC_L_D1S2,P2,60.0124485639,02,A,2014_Dez_05_1609,Y,
stim/posf.jpg,stim/negf.jpg,stim/1.jpg,stim/4.jpg,stim/latef.jpg,EF,2,4,0,52,52,50,,,,,,,,,,4,1,0.399888376779,,,,,,PLC_L_D1S2,P2,60.0124485639,02,A,2014_Dez_05_1609,Y,
stim/posf.jpg,stim/negf.jpg,stim/6.jpg,stim/2.jpg,stim/latef.jpg,CD,2,4,0,53,53,32,,,,,,,,,,4,1,0.366509629251,,,,,,PLC_L_D1S2,P2,60.0124485639,02,A,2014_Dez_05_1609,Y,
stim/negf.jpg,stim/posf.jpg,stim/6.jpg,stim/2.jpg,stim/latef.jpg,CD,2,4,0,54,54,38,,,,,,,,,,4,1,0.549808509711,,,,,,PLC_L_D1S2,P2,60.0124485639,02,A,2014_Dez_05_1609,Y,
stim/posf.jpg,stim/negf.jpg,stim/4.jpg,stim/1.jpg,stim/latef.jpg,EF,1,2,0,55,55,40,,,,,,,,,,4,0,0.666436926038,,,,,,PLC_L_D1S2,P2,60.0124485639,02,A,2014_Dez_05_1609,Y,
stim/negf.jpg,stim/posf.jpg,stim/1.jpg,stim/4.jpg,stim/latef.jpg,EF,2,4,0,56,56,57,,,,,,,,,,2,0,0.366549177826,,,,,,PLC_L_D1S2,P2,60.0124485639,02,A,2014_Dez_05_1609,Y,
stim/posf.jpg,stim/negf.jpg,stim/4.jpg,stim/1.jpg,stim/latef.jpg,EF,1,2,0,57,57,41,,,,,,,,,,2,1,0.449792446673,,,,,,PLC_L_D1S2,P2,60.0124485639,02,A,2014_Dez_05_1609,Y,
stim/posf.jpg,stim/negf.jpg,stim/3.jpg,stim/5.jpg,stim/latef.jpg,AB,1,2,0,58,58,3,,,,,,,,,,2,1,0.299889128653,,,,,,PLC_L_D1S2,P2,60.0124485639,02,A,2014_Dez_05_1609,Y,
stim/negf.jpg,stim/posf.jpg,stim/2.jpg,stim/6.jpg,stim/latef.jpg,CD,1,2,0,59,59,29,,,,,,,,,,2,1,0.266566891978,,,,,,PLC_L_D1S2,P2,60.0124485639,02,A,2014_Dez_05_1609,Y,
,,,,,,,,,,,,,,,,,,,,,,,,0.9984375,1.0,1,0,0,PLC_L_D1S2,P2,60.0124485639,02,A,2014_Dez_05_1609,Y,
stim/posf.jpg,stim/negf.jpg,stim/1.jpg,stim/4.jpg,stim/latef.jpg,EF,2,4,,,,,0,0,0,53,,,,,,4,1,0.466482955767,,,,,,PLC_L_D1S2,P2,60.0124485639,02,A,2014_Dez_05_1609,Y,
stim/negf.jpg,stim/posf.jpg,stim/2.jpg,stim/6.jpg,stim/latef.jpg,CD,1,2,,,,,0,1,1,27,,,,,,2,1,0.399897146638,,,,,,PLC_L_D1S2,P2,60.0124485639,02,A,2014_Dez_05_1609,Y,
stim/negf.jpg,stim/posf.jpg,stim/2.jpg,stim/6.jpg,stim/latef.jpg,CD,1,2,,,,,0,2,2,28,,,,,,4,0,0.43318578958,,,,,,PLC_L_D1S2,P2,60.0124485639,02,A,2014_Dez_05_1609,Y,
stim/negf.jpg,stim/posf.jpg,stim/3.jpg,stim/5.jpg,stim/latef.jpg,AB,1,2,,,,,0,3,3,9,,,,,,2,1,0.699718991586,,,,,,PLC_L_D1S2,P2,60.0124485639,02,A,2014_Dez_05_1609,Y,
stim/posf.jpg,stim/negf.jpg,stim/1.jpg,stim/4.jpg,stim/latef.jpg,EF,2,4,,,,,0,4,4,55,,,,,,4,1,0.383202790956,,,,,,PLC_L_D1S2,P2,60.0124485639,02,A,2014_Dez_05_1609,Y,
stim/posf.jpg,stim/negf.jpg,stim/5.jpg,stim/3.jpg,stim/latef.jpg,AB,2,4,,,,,0,5,5,11,,,,,,4,1,0.33324780716,,,,,,PLC_L_D1S2,P2,60.0124485639,02,A,2014_Dez_05_1609,Y,
stim/posf.jpg,stim/negf.jpg,stim/4.jpg,stim/1.jpg,stim/latef.jpg,EF,1,2,,,,,0,6,6,41,,,,,,4,0,0.283291319614,,,,,,PLC_L_D1S2,P2,60.0124485639,02,A,2014_Dez_05_1609,Y,
stim/posf.jpg,stim/negf.jpg,stim/3.jpg,stim/5.jpg,stim/latef.jpg,AB,1,2,,,,,0,7,7,1,,,,,,4,0,0.583117594605,,,,,,PLC_L_D1S2,P2,60.0124485639,02,A,2014_Dez_05_1609,Y,
stim/posf.jpg,stim/negf.jpg,stim/2.jpg,stim/6.jpg,stim/latef.jpg,CD,1,2,,,,,0,8,8,24,,,,,,4,0,0.266545887625,,,,,,PLC_L_D1S2,P2,60.0124485639,02,A,2014_Dez_05_1609,Y,
stim/negf.jpg,stim/posf.jpg,stim/3.jpg,stim/5.jpg,stim/latef.jpg,AB,1,2,,,,,0,9,9,8,,,,,,2,1,0.299896960173,,,,,,PLC_L_D1S2,P2,60.0124485639,02,A,2014_Dez_05_1609,Y,
stim/negf.jpg,stim/posf.jpg,stim/3.jpg,stim/5.jpg,stim/latef.jpg,AB,1,2,,,,,0,10,10,6,,,,,,4,0,0.416483608395,,,,,,PLC_L_D1S2,P2,60.0124485639,02,A,2014_Dez_05_1609,Y,
stim/posf.jpg,stim/negf.jpg,stim/1.jpg,stim/4.jpg,stim/latef.jpg,EF,2,4,,,,,0,11,11,54,,,,,,4,1,0.416506317998,,,,,,PLC_L_D1S2,P2,60.0124485639,02,A,2014_Dez_05_1609,Y,
stim/negf.jpg,stim/posf.jpg,stim/3.jpg,stim/5.jpg,stim/latef.jpg,AB,1,2,,,,,0,12,12,7,,,,,,4,0,0.299901943595,,,,,,PLC_L_D1S2,P2,60.0124485639,02,A,2014_Dez_05_1609,Y,
stim/negf.jpg,stim/posf.jpg,stim/1.jpg,stim/4.jpg,stim/latef.jpg,EF,2,4,,,,,0,13,13,56,,,,,,4,1,0.416551812393,,,,,,PLC_L_D1S2,P2,60.0124485639,02,A,2014_Dez_05_1609,Y,
stim/negf.jpg,stim/posf.jpg,stim/5.jpg,stim/3.jpg,stim/latef.jpg,AB,2,4,,,,,0,14,14,17,,,,,,4,1,0.433159137149,,,,,,PLC_L_D1S2,P2,60.0124485639,02,A,2014_Dez_05_1609,Y,
stim/negf.jpg,stim/posf.jpg,stim/4.jpg,stim/1.jpg,stim/latef.jpg,EF,1,2,,,,,0,15,15,47,,,,,,4,0,0.416523123887,,,,,,PLC_L_D1S2,P2,60.0124485639,02,A,2014_Dez_05_1609,Y,
stim/posf.jpg,stim/negf.jpg,stim/4.jpg,stim/1.jpg,stim/latef.jpg,EF,1,2,,,,,0,16,16,42,,,,,,4,0,0.399855195074,,,,,,PLC_L_D1S2,P2,60.0124485639,02,A,2014_Dez_05_1609,Y,
stim/posf.jpg,stim/negf.jpg,stim/6.jpg,stim/2.jpg,stim/latef.jpg,CD,2,4,,,,,0,17,17,30,,,,,,2,0,0.299864725829,,,,,,PLC_L_D1S2,P2,60.0124485639,02,A,2014_Dez_05_1609,Y,
stim/posf.jpg,stim/negf.jpg,stim/5.jpg,stim/3.jpg,stim/latef.jpg,AB,2,4,,,,,0,18,18,10,,,,,,4,1,0.533143504184,,,,,,PLC_L_D1S2,P2,60.0124485639,02,A,2014_Dez_05_1609,Y,
stim/posf.jpg,stim/negf.jpg,stim/5.jpg,stim/3.jpg,stim/latef.jpg,AB,2,4,,,,,0,19,19,14,,,,,,4,1,0.3498835708,,,,,,PLC_L_D1S2,P2,60.0124485639,02,A,2014_Dez_05_1609,Y,
stim/posf.jpg,stim/negf.jpg,stim/4.jpg,stim/1.jpg,stim/latef.jpg,EF,1,2,,,,,0,20,20,40,,,,,,4,0,0.333191912842,,,,,,PLC_L_D1S2,P2,60.0124485639,02,A,2014_Dez_05_1609,Y,
stim/posf.jpg,stim/negf.jpg,stim/1.jpg,stim/4.jpg,stim/latef.jpg,EF,2,4,,,,,0,21,21,50,,,,,,None,0,,,,,,,PLC_L_D1S2,P2,60.0124485639,02,A,2014_Dez_05_1609,Y,
stim/negf.jpg,stim/posf.jpg,stim/2.jpg,stim/6.jpg,stim/latef.jpg,CD,1,2,,,,,0,22,22,26,,,,,,2,1,0.433223702077,,,,,,PLC_L_D1S2,P2,60.0124485639,02,A,2014_Dez_05_1609,Y,
stim/negf.jpg,stim/posf.jpg,stim/5.jpg,stim/3.jpg,stim/latef.jpg,AB,2,4,,,,,0,23,23,18,,,,,,2,0,0.299895405297,,,,,,PLC_L_D1S2,P2,60.0124485639,02,A,2014_Dez_05_1609,Y,
stim/posf.jpg,stim/negf.jpg,stim/1.jpg,stim/4.jpg,stim/latef.jpg,EF,2,4,,,,,0,24,24,52,,,,,,4,1,0.483134568913,,,,,,PLC_L_D1S2,P2,60.0124485639,02,A,2014_Dez_05_1609,Y,
stim/negf.jpg,stim/posf.jpg,stim/1.jpg,stim/4.jpg,stim/latef.jpg,EF,2,4,,,,,0,25,25,57,,,,,,4,1,0.366585394095,,,,,,PLC_L_D1S2,P2,60.0124485639,02,A,2014_Dez_05_1609,Y,
stim/posf.jpg,stim/negf.jpg,stim/5.jpg,stim/3.jpg,stim/latef.jpg,AB,2,4,,,,,0,26,26,12,,,,,,4,1,0.399855110864,,,,,,PLC_L_D1S2,P2,60.0124485639,02,A,2014_Dez_05_1609,Y,
stim/negf.jpg,stim/posf.jpg,stim/6.jpg,stim/2.jpg,stim/latef.jpg,CD,2,4,,,,,0,27,27,39,,,,,,4,1,0.299887805355,,,,,,PLC_L_D1S2,P2,60.0124485639,02,A,2014_Dez_05_1609,Y,
stim/posf.jpg,stim/negf.jpg,stim/6.jpg,stim/2.jpg,stim/latef.jpg,CD,2,4,,,,,0,28,28,33,,,,,,4,1,0.416534164405,,,,,,PLC_L_D1S2,P2,60.0124485639,02,A,2014_Dez_05_1609,Y,
stim/negf.jpg,stim/posf.jpg,stim/1.jpg,stim/4.jpg,stim/latef.jpg,EF,2,4,,,,,0,29,29,59,,,,,,4,1,0.383194833122,,,,,,PLC_L_D1S2,P2,60.0124485639,02,A,2014_Dez_05_1609,Y,
stim/negf.jpg,stim/posf.jpg,stim/1.jpg,stim/4.jpg,stim/latef.jpg,EF,2,4,,,,,0,30,30,58,,,,,,2,0,0.466510095413,,,,,,PLC_L_D1S2,P2,60.0124485639,02,A,2014_Dez_05_1609,Y,
stim/negf.jpg,stim/posf.jpg,stim/4.jpg,stim/1.jpg,stim/latef.jpg,EF,1,2,,,,,0,31,31,48,,,,,,2,1,0.283220565259,,,,,,PLC_L_D1S2,P2,60.0124485639,02,A,2014_Dez_05_1609,Y,
stim/negf.jpg,stim/posf.jpg,stim/6.jpg,stim/2.jpg,stim/latef.jpg,CD,2,4,,,,,0,32,32,38,,,,,,4,1,0.283263070202,,,,,,PLC_L_D1S2,P2,60.0124485639,02,A,2014_Dez_05_1609,Y,
stim/posf.jpg,stim/negf.jpg,stim/4.jpg,stim/1.jpg,stim/latef.jpg,EF,1,2,,,,,0,33,33,43,,,,,,2,1,0.533141868106,,,,,,PLC_L_D1S2,P2,60.0124485639,02,A,2014_Dez_05_1609,Y,
stim/posf.jpg,stim/negf.jpg,stim/4.jpg,stim/1.jpg,stim/latef.jpg,EF,1,2,,,,,0,34,34,44,,,,,,2,1,0.416536435065,,,,,,PLC_L_D1S2,P2,60.0124485639,02,A,2014_Dez_05_1609,Y,
stim/posf.jpg,stim/negf.jpg,stim/3.jpg,stim/5.jpg,stim/latef.jpg,AB,1,2,,,,,0,35,35,0,,,,,,4,0,0.633167007766,,,,,,PLC_L_D1S2,P2,60.0124485639,02,A,2014_Dez_05_1609,Y,
stim/negf.jpg,stim/posf.jpg,stim/4.jpg,stim/1.jpg,stim/latef.jpg,EF,1,2,,,,,0,36,36,49,,,,,,2,1,0.499824494553,,,,,,PLC_L_D1S2,P2,60.0124485639,02,A,2014_Dez_05_1609,Y,
stim/posf.jpg,stim/negf.jpg,stim/2.jpg,stim/6.jpg,stim/latef.jpg,CD,1,2,,,,,0,37,37,22,,,,,,4,0,0.466521587055,,,,,,PLC_L_D1S2,P2,60.0124485639,02,A,2014_Dez_05_1609,Y,
stim/posf.jpg,stim/negf.jpg,stim/2.jpg,stim/6.jpg,stim/latef.jpg,CD,1,2,,,,,0,38,38,21,,,,,,2,1,0.466553418396,,,,,,PLC_L_D1S2,P2,60.0124485639,02,A,2014_Dez_05_1609,Y,
stim/negf.jpg,stim/posf.jpg,stim/2.jpg,stim/6.jpg,stim/latef.jpg,CD,1,2,,,,,0,39,39,29,,,,,,2,1,0.266579291885,,,,,,PLC_L_D1S2,P2,60.0124485639,02,A,2014_Dez_05_1609,Y,
stim/posf.jpg,stim/negf.jpg,stim/2.jpg,stim/6.jpg,stim/latef.jpg,CD,1,2,,,,,0,40,40,25,,,,,,2,1,0.266526597544,,,,,,PLC_L_D1S2,P2,60.0124485639,02,A,2014_Dez_05_1609,Y,
stim/posf.jpg,stim/negf.jpg,stim/5.jpg,stim/3.jpg,stim/latef.jpg,AB,2,4,,,,,0,41,41,13,,,,,,2,0,0.333269563387,,,,,,PLC_L_D1S2,P2,60.0124485639,02,A,2014_Dez_05_1609,Y,
stim/negf.jpg,stim/posf.jpg,stim/5.jpg,stim/3.jpg,stim/latef.jpg,AB,2,4,,,,,0,42,42,16,,,,,,2,0,0.666451891339,,,,,,PLC_L_D1S2,P2,60.0124485639,02,A,2014_Dez_05_1609,Y,
stim/posf.jpg,stim/negf.jpg,stim/5.jpg,stim/3.jpg,stim/latef.jpg,AB,2,4,,,,,0,43,43,15,,,,,,2,0,0.31652940053,,,,,,PLC_L_D1S2,P2,60.0124485639,02,A,2014_Dez_05_1609,Y,
stim/posf.jpg,stim/negf.jpg,stim/3.jpg,stim/5.jpg,stim/latef.jpg,AB,1,2,,,,,0,44,44,4,,,,,,2,1,0.0500880444506,,,,,,PLC_L_D1S2,P2,60.0124485639,02,A,2014_Dez_05_1609,Y,
stim/posf.jpg,stim/negf.jpg,stim/6.jpg,stim/2.jpg,stim/latef.jpg,CD,2,4,,,,,0,45,45,34,,,,,,2,0,0.316566308525,,,,,,PLC_L_D1S2,P2,60.0124485639,02,A,2014_Dez_05_1609,Y,
stim/negf.jpg,stim/posf.jpg,stim/4.jpg,stim/1.jpg,stim/latef.jpg,EF,1,2,,,,,0,46,46,46,,,,,,2,1,0.316567697987,,,,,,PLC_L_D1S2,P2,60.0124485639,02,A,2014_Dez_05_1609,Y,
stim/posf.jpg,stim/negf.jpg,stim/6.jpg,stim/2.jpg,stim/latef.jpg,CD,2,4,,,,,0,47,47,35,,,,,,2,0,0.249914782596,,,,,,PLC_L_D1S2,P2,60.0124485639,02,A,2014_Dez_05_1609,Y,
stim/posf.jpg,stim/negf.jpg,stim/6.jpg,stim/2.jpg,stim/latef.jpg,CD,2,4,,,,,0,48,48,31,,,,,,4,1,0.266558681513,,,,,,PLC_L_D1S2,P2,60.0124485639,02,A,2014_Dez_05_1609,Y,
stim/posf.jpg,stim/negf.jpg,stim/2.jpg,stim/6.jpg,stim/latef.jpg,CD,1,2,,,,,0,49,49,23,,,,,,4,0,0.333195172969,,,,,,PLC_L_D1S2,P2,60.0124485639,02,A,2014_Dez_05_1609,Y,
stim/negf.jpg,stim/posf.jpg,stim/6.jpg,stim/2.jpg,stim/latef.jpg,CD,2,4,,,,,0,50,50,37,,,,,,4,1,0.333200042105,,,,,,PLC_L_D1S2,P2,60.0124485639,02,A,2014_Dez_05_1609,Y,
stim/posf.jpg,stim/negf.jpg,stim/2.jpg,stim/6.jpg,stim/latef.jpg,CD,1,2,,,,,0,51,51,20,,,,,,2,1,0.266581929459,,,,,,PLC_L_D1S2,P2,60.0124485639,02,A,2014_Dez_05_1609,Y,
stim/negf.jpg,stim/posf.jpg,stim/4.jpg,stim/1.jpg,stim/latef.jpg,EF,1,2,,,,,0,52,52,45,,,,,,2,1,0.349854852219,,,,,,PLC_L_D1S2,P2,60.0124485639,02,A,2014_Dez_05_1609,Y,
stim/posf.jpg,stim/negf.jpg,stim/1.jpg,stim/4.jpg,stim/latef.jpg,EF,2,4,,,,,0,53,53,51,,,,,,4,1,0.399834701995,,,,,,PLC_L_D1S2,P2,60.0124485639,02,A,2014_Dez_05_1609,Y,
stim/negf.jpg,stim/posf.jpg,stim/6.jpg,stim/2.jpg,stim/latef.jpg,CD,2,4,,,,,0,54,54,36,,,,,,4,1,0.466491226382,,,,,,PLC_L_D1S2,P2,60.0124485639,02,A,2014_Dez_05_1609,Y,
stim/posf.jpg,stim/negf.jpg,stim/6.jpg,stim/2.jpg,stim/latef.jpg,CD,2,4,,,,,0,55,55,32,,,,,,4,1,0.566475653566,,,,,,PLC_L_D1S2,P2,60.0124485639,02,A,2014_Dez_05_1609,Y,
stim/posf.jpg,stim/negf.jpg,stim/3.jpg,stim/5.jpg,stim/latef.jpg,AB,1,2,,,,,0,56,56,3,,,,,,4,0,0.333208619484,,,,,,PLC_L_D1S2,P2,60.0124485639,02,A,2014_Dez_05_1609,Y,
stim/posf.jpg,stim/negf.jpg,stim/3.jpg,stim/5.jpg,stim/latef.jpg,AB,1,2,,,,,0,57,57,5,,,,,,2,1,0.799782055774,,,,,,PLC_L_D1S2,P2,60.0124485639,02,A,2014_Dez_05_1609,Y,
stim/posf.jpg,stim/negf.jpg,stim/3.jpg,stim/5.jpg,stim/latef.jpg,AB,1,2,,,,,0,58,58,2,,,,,,2,1,0.499833847865,,,,,,PLC_L_D1S2,P2,60.0124485639,02,A,2014_Dez_05_1609,Y,
stim/negf.jpg,stim/posf.jpg,stim/5.jpg,stim/3.jpg,stim/latef.jpg,AB,2,4,,,,,0,59,59,19,,,,,,4,1,0.899689918121,,,,,,PLC_L_D1S2,P2,60.0124485639,02,A,2014_Dez_05_1609,Y,
