fb_corr,fb_incorr,symbol2,symbol1,fb_late,pair,position,correct,block_01.thisRepN,block_01.thisTrialN,block_01.thisN,block_01.thisIndex,block_02.thisRepN,block_02.thisTrialN,block_02.thisN,block_02.thisIndex,mouse.x,mouse.y,mouse.leftButton,mouse.midButton,mouse.rightButton,buttonBox_2.keys,buttonBox_2.corr,buttonBox_2.rt,mouse_2.x,mouse_2.y,mouse_2.leftButton,mouse_2.midButton,mouse_2.rightButton,expName,Participant,frameRate,SessionNumber,Version,date,Group,
,,,,,,,,,,,,,,,,0.9984375,1.0,1,0,0,,,,,,,,,PLC_L_D1S2,P8,60.0183653013,01,C,2015_Jan_21_1524,X,
stim/negf.jpg,stim/posf.jpg,stim/5.jpg,stim/2.jpg,stim/latef.jpg,AB,1,2,0,0,0,6,,,,,,,,,,2,1,0.916413732228,,,,,,PLC_L_D1S2,P8,60.0183653013,01,C,2015_Jan_21_1524,X,
stim/negf.jpg,stim/posf.jpg,stim/2.jpg,stim/5.jpg,stim/latef.jpg,AB,2,4,0,1,1,17,,,,,,,,,,2,0,0.799751914647,,,,,,PLC_L_D1S2,P8,60.0183653013,01,C,2015_Jan_21_1524,X,
stim/negf.jpg,stim/posf.jpg,stim/3.jpg,stim/1.jpg,stim/latef.jpg,EF,1,2,0,2,2,47,,,,,,,,,,2,1,0.71644695303,,,,,,PLC_L_D1S2,P8,60.0183653013,01,C,2015_Jan_21_1524,X,
stim/posf.jpg,stim/negf.jpg,stim/3.jpg,stim/1.jpg,stim/latef.jpg,EF,1,2,0,3,3,43,,,,,,,,,,4,0,1.41621825099,,,,,,PLC_L_D1S2,P8,60.0183653013,01,C,2015_Jan_21_1524,X,
stim/negf.jpg,stim/posf.jpg,stim/6.jpg,stim/4.jpg,stim/latef.jpg,CD,2,4,0,4,4,38,,,,,,,,,,4,1,0.966287068518,,,,,,PLC_L_D1S2,P8,60.0183653013,01,C,2015_Jan_21_1524,X,
stim/posf.jpg,stim/negf.jpg,stim/1.jpg,stim/3.jpg,stim/latef.jpg,EF,2,4,0,5,5,50,,,,,,,,,,2,0,0.849725319359,,,,,,PLC_L_D1S2,P8,60.0183653013,01,C,2015_Jan_21_1524,X,
stim/posf.jpg,stim/negf.jpg,stim/6.jpg,stim/4.jpg,stim/latef.jpg,CD,2,4,0,6,6,32,,,,,,,,,,4,1,0.899678739257,,,,,,PLC_L_D1S2,P8,60.0183653013,01,C,2015_Jan_21_1524,X,
stim/posf.jpg,stim/negf.jpg,stim/1.jpg,stim/3.jpg,stim/latef.jpg,EF,2,4,0,7,7,53,,,,,,,,,,2,0,0.766406833031,,,,,,PLC_L_D1S2,P8,60.0183653013,01,C,2015_Jan_21_1524,X,
stim/posf.jpg,stim/negf.jpg,stim/6.jpg,stim/4.jpg,stim/latef.jpg,CD,2,4,0,8,8,33,,,,,,,,,,4,1,0.666455749956,,,,,,PLC_L_D1S2,P8,60.0183653013,01,C,2015_Jan_21_1524,X,
stim/posf.jpg,stim/negf.jpg,stim/5.jpg,stim/2.jpg,stim/latef.jpg,AB,1,2,0,9,9,0,,,,,,,,,,2,1,0.999646835738,,,,,,PLC_L_D1S2,P8,60.0183653013,01,C,2015_Jan_21_1524,X,
stim/negf.jpg,stim/posf.jpg,stim/3.jpg,stim/1.jpg,stim/latef.jpg,EF,1,2,0,10,10,46,,,,,,,,,,4,0,0.716438056857,,,,,,PLC_L_D1S2,P8,60.0183653013,01,C,2015_Jan_21_1524,X,
stim/posf.jpg,stim/negf.jpg,stim/6.jpg,stim/4.jpg,stim/latef.jpg,CD,2,4,0,11,11,34,,,,,,,,,,4,1,0.78305405824,,,,,,PLC_L_D1S2,P8,60.0183653013,01,C,2015_Jan_21_1524,X,
stim/negf.jpg,stim/posf.jpg,stim/2.jpg,stim/5.jpg,stim/latef.jpg,AB,2,4,0,12,12,16,,,,,,,,,,4,1,0.766415930707,,,,,,PLC_L_D1S2,P8,60.0183653013,01,C,2015_Jan_21_1524,X,
stim/posf.jpg,stim/negf.jpg,stim/1.jpg,stim/3.jpg,stim/latef.jpg,EF,2,4,0,13,13,51,,,,,,,,,,2,0,0.666445001165,,,,,,PLC_L_D1S2,P8,60.0183653013,01,C,2015_Jan_21_1524,X,
stim/negf.jpg,stim/posf.jpg,stim/5.jpg,stim/2.jpg,stim/latef.jpg,AB,1,2,0,14,14,9,,,,,,,,,,2,1,0.949686661002,,,,,,PLC_L_D1S2,P8,60.0183653013,01,C,2015_Jan_21_1524,X,
stim/negf.jpg,stim/posf.jpg,stim/3.jpg,stim/1.jpg,stim/latef.jpg,EF,1,2,0,15,15,49,,,,,,,,,,4,0,0.616475626499,,,,,,PLC_L_D1S2,P8,60.0183653013,01,C,2015_Jan_21_1524,X,
stim/posf.jpg,stim/negf.jpg,stim/2.jpg,stim/5.jpg,stim/latef.jpg,AB,2,4,0,16,16,10,,,,,,,,,,4,1,1.13293907865,,,,,,PLC_L_D1S2,P8,60.0183653013,01,C,2015_Jan_21_1524,X,
stim/negf.jpg,stim/posf.jpg,stim/6.jpg,stim/4.jpg,stim/latef.jpg,CD,2,4,0,17,17,37,,,,,,,,,,4,1,0.866425106578,,,,,,PLC_L_D1S2,P8,60.0183653013,01,C,2015_Jan_21_1524,X,
stim/negf.jpg,stim/posf.jpg,stim/4.jpg,stim/6.jpg,stim/latef.jpg,CD,1,2,0,18,18,28,,,,,,,,,,2,1,0.633094072977,,,,,,PLC_L_D1S2,P8,60.0183653013,01,C,2015_Jan_21_1524,X,
stim/negf.jpg,stim/posf.jpg,stim/3.jpg,stim/1.jpg,stim/latef.jpg,EF,1,2,0,19,19,48,,,,,,,,,,4,0,0.866366956639,,,,,,PLC_L_D1S2,P8,60.0183653013,01,C,2015_Jan_21_1524,X,
stim/posf.jpg,stim/negf.jpg,stim/4.jpg,stim/6.jpg,stim/latef.jpg,CD,1,2,0,20,20,21,,,,,,,,,,2,1,0.766366412283,,,,,,PLC_L_D1S2,P8,60.0183653013,01,C,2015_Jan_21_1524,X,
stim/negf.jpg,stim/posf.jpg,stim/1.jpg,stim/3.jpg,stim/latef.jpg,EF,2,4,0,21,21,59,,,,,,,,,,2,0,0.949697319569,,,,,,PLC_L_D1S2,P8,60.0183653013,01,C,2015_Jan_21_1524,X,
stim/posf.jpg,stim/negf.jpg,stim/2.jpg,stim/5.jpg,stim/latef.jpg,AB,2,4,0,22,22,14,,,,,,,,,,4,1,0.883048289863,,,,,,PLC_L_D1S2,P8,60.0183653013,01,C,2015_Jan_21_1524,X,
stim/negf.jpg,stim/posf.jpg,stim/2.jpg,stim/5.jpg,stim/latef.jpg,AB,2,4,0,23,23,18,,,,,,,,,,4,1,1.09964893497,,,,,,PLC_L_D1S2,P8,60.0183653013,01,C,2015_Jan_21_1524,X,
stim/posf.jpg,stim/negf.jpg,stim/1.jpg,stim/3.jpg,stim/latef.jpg,EF,2,4,0,24,24,52,,,,,,,,,,2,0,0.633108376628,,,,,,PLC_L_D1S2,P8,60.0183653013,01,C,2015_Jan_21_1524,X,
stim/negf.jpg,stim/posf.jpg,stim/1.jpg,stim/3.jpg,stim/latef.jpg,EF,2,4,0,25,25,58,,,,,,,,,,2,0,0.833047826708,,,,,,PLC_L_D1S2,P8,60.0183653013,01,C,2015_Jan_21_1524,X,
stim/posf.jpg,stim/negf.jpg,stim/3.jpg,stim/1.jpg,stim/latef.jpg,EF,1,2,0,26,26,41,,,,,,,,,,4,0,0.916367681446,,,,,,PLC_L_D1S2,P8,60.0183653013,01,C,2015_Jan_21_1524,X,
stim/negf.jpg,stim/posf.jpg,stim/6.jpg,stim/4.jpg,stim/latef.jpg,CD,2,4,0,27,27,36,,,,,,,,,,4,1,0.933021802844,,,,,,PLC_L_D1S2,P8,60.0183653013,01,C,2015_Jan_21_1524,X,
stim/posf.jpg,stim/negf.jpg,stim/4.jpg,stim/6.jpg,stim/latef.jpg,CD,1,2,0,28,28,22,,,,,,,,,,2,1,0.633164749137,,,,,,PLC_L_D1S2,P8,60.0183653013,01,C,2015_Jan_21_1524,X,
stim/posf.jpg,stim/negf.jpg,stim/4.jpg,stim/6.jpg,stim/latef.jpg,CD,1,2,0,29,29,24,,,,,,,,,,2,1,0.699803959369,,,,,,PLC_L_D1S2,P8,60.0183653013,01,C,2015_Jan_21_1524,X,
stim/posf.jpg,stim/negf.jpg,stim/5.jpg,stim/2.jpg,stim/latef.jpg,AB,1,2,0,30,30,1,,,,,,,,,,4,0,1.18293662153,,,,,,PLC_L_D1S2,P8,60.0183653013,01,C,2015_Jan_21_1524,X,
stim/posf.jpg,stim/negf.jpg,stim/5.jpg,stim/2.jpg,stim/latef.jpg,AB,1,2,0,31,31,2,,,,,,,,,,2,1,0.583112662311,,,,,,PLC_L_D1S2,P8,60.0183653013,01,C,2015_Jan_21_1524,X,
stim/posf.jpg,stim/negf.jpg,stim/6.jpg,stim/4.jpg,stim/latef.jpg,CD,2,4,0,32,32,35,,,,,,,,,,4,1,0.749746585364,,,,,,PLC_L_D1S2,P8,60.0183653013,01,C,2015_Jan_21_1524,X,
stim/negf.jpg,stim/posf.jpg,stim/4.jpg,stim/6.jpg,stim/latef.jpg,CD,1,2,0,33,33,29,,,,,,,,,,2,1,0.599776801678,,,,,,PLC_L_D1S2,P8,60.0183653013,01,C,2015_Jan_21_1524,X,
stim/posf.jpg,stim/negf.jpg,stim/2.jpg,stim/5.jpg,stim/latef.jpg,AB,2,4,0,34,34,12,,,,,,,,,,4,1,0.849764088992,,,,,,PLC_L_D1S2,P8,60.0183653013,01,C,2015_Jan_21_1524,X,
stim/posf.jpg,stim/negf.jpg,stim/2.jpg,stim/5.jpg,stim/latef.jpg,AB,2,4,0,35,35,11,,,,,,,,,,4,1,1.11630710747,,,,,,PLC_L_D1S2,P8,60.0183653013,01,C,2015_Jan_21_1524,X,
stim/posf.jpg,stim/negf.jpg,stim/3.jpg,stim/1.jpg,stim/latef.jpg,EF,1,2,0,36,36,45,,,,,,,,,,4,0,0.84967104909,,,,,,PLC_L_D1S2,P8,60.0183653013,01,C,2015_Jan_21_1524,X,
stim/posf.jpg,stim/negf.jpg,stim/3.jpg,stim/1.jpg,stim/latef.jpg,EF,1,2,0,37,37,40,,,,,,,,,,4,0,1.01633326967,,,,,,PLC_L_D1S2,P8,60.0183653013,01,C,2015_Jan_21_1524,X,
stim/posf.jpg,stim/negf.jpg,stim/3.jpg,stim/1.jpg,stim/latef.jpg,EF,1,2,0,38,38,44,,,,,,,,,,4,0,1.11634543199,,,,,,PLC_L_D1S2,P8,60.0183653013,01,C,2015_Jan_21_1524,X,
stim/posf.jpg,stim/negf.jpg,stim/3.jpg,stim/1.jpg,stim/latef.jpg,EF,1,2,0,39,39,42,,,,,,,,,,4,0,0.716416378824,,,,,,PLC_L_D1S2,P8,60.0183653013,01,C,2015_Jan_21_1524,X,
stim/negf.jpg,stim/posf.jpg,stim/4.jpg,stim/6.jpg,stim/latef.jpg,CD,1,2,0,40,40,27,,,,,,,,,,2,1,0.783023616364,,,,,,PLC_L_D1S2,P8,60.0183653013,01,C,2015_Jan_21_1524,X,
stim/negf.jpg,stim/posf.jpg,stim/1.jpg,stim/3.jpg,stim/latef.jpg,EF,2,4,0,41,41,56,,,,,,,,,,2,0,0.683098075954,,,,,,PLC_L_D1S2,P8,60.0183653013,01,C,2015_Jan_21_1524,X,
stim/posf.jpg,stim/negf.jpg,stim/1.jpg,stim/3.jpg,stim/latef.jpg,EF,2,4,0,42,42,54,,,,,,,,,,2,0,0.533211741264,,,,,,PLC_L_D1S2,P8,60.0183653013,01,C,2015_Jan_21_1524,X,
stim/posf.jpg,stim/negf.jpg,stim/5.jpg,stim/2.jpg,stim/latef.jpg,AB,1,2,0,43,43,5,,,,,,,,,,2,1,1.13295907249,,,,,,PLC_L_D1S2,P8,60.0183653013,01,C,2015_Jan_21_1524,X,
stim/negf.jpg,stim/posf.jpg,stim/5.jpg,stim/2.jpg,stim/latef.jpg,AB,1,2,0,44,44,7,,,,,,,,,,2,1,0.933026608823,,,,,,PLC_L_D1S2,P8,60.0183653013,01,C,2015_Jan_21_1524,X,
stim/posf.jpg,stim/negf.jpg,stim/6.jpg,stim/4.jpg,stim/latef.jpg,CD,2,4,0,45,45,30,,,,,,,,,,4,1,0.816423729145,,,,,,PLC_L_D1S2,P8,60.0183653013,01,C,2015_Jan_21_1524,X,
stim/negf.jpg,stim/posf.jpg,stim/5.jpg,stim/2.jpg,stim/latef.jpg,AB,1,2,0,46,46,8,,,,,,,,,,2,1,0.749704708987,,,,,,PLC_L_D1S2,P8,60.0183653013,01,C,2015_Jan_21_1524,X,
stim/negf.jpg,stim/posf.jpg,stim/4.jpg,stim/6.jpg,stim/latef.jpg,CD,1,2,0,47,47,26,,,,,,,,,,2,1,0.616475515222,,,,,,PLC_L_D1S2,P8,60.0183653013,01,C,2015_Jan_21_1524,X,
stim/posf.jpg,stim/negf.jpg,stim/2.jpg,stim/5.jpg,stim/latef.jpg,AB,2,4,0,48,48,15,,,,,,,,,,4,1,0.699699054894,,,,,,PLC_L_D1S2,P8,60.0183653013,01,C,2015_Jan_21_1524,X,
stim/posf.jpg,stim/negf.jpg,stim/2.jpg,stim/5.jpg,stim/latef.jpg,AB,2,4,0,49,49,13,,,,,,,,,,4,1,0.799742425997,,,,,,PLC_L_D1S2,P8,60.0183653013,01,C,2015_Jan_21_1524,X,
stim/negf.jpg,stim/posf.jpg,stim/6.jpg,stim/4.jpg,stim/latef.jpg,CD,2,4,0,50,50,39,,,,,,,,,,4,1,0.833055995067,,,,,,PLC_L_D1S2,P8,60.0183653013,01,C,2015_Jan_21_1524,X,
stim/posf.jpg,stim/negf.jpg,stim/6.jpg,stim/4.jpg,stim/latef.jpg,CD,2,4,0,51,51,31,,,,,,,,,,2,0,0.699777502425,,,,,,PLC_L_D1S2,P8,60.0183653013,01,C,2015_Jan_21_1524,X,
stim/negf.jpg,stim/posf.jpg,stim/2.jpg,stim/5.jpg,stim/latef.jpg,AB,2,4,0,52,52,19,,,,,,,,,,4,1,0.89971045932,,,,,,PLC_L_D1S2,P8,60.0183653013,01,C,2015_Jan_21_1524,X,
stim/posf.jpg,stim/negf.jpg,stim/5.jpg,stim/2.jpg,stim/latef.jpg,AB,1,2,0,53,53,4,,,,,,,,,,2,1,0.866350746235,,,,,,PLC_L_D1S2,P8,60.0183653013,01,C,2015_Jan_21_1524,X,
stim/posf.jpg,stim/negf.jpg,stim/4.jpg,stim/6.jpg,stim/latef.jpg,CD,1,2,0,54,54,23,,,,,,,,,,2,1,0.649776458824,,,,,,PLC_L_D1S2,P8,60.0183653013,01,C,2015_Jan_21_1524,X,
stim/posf.jpg,stim/negf.jpg,stim/5.jpg,stim/2.jpg,stim/latef.jpg,AB,1,2,0,55,55,3,,,,,,,,,,2,1,0.883036858369,,,,,,PLC_L_D1S2,P8,60.0183653013,01,C,2015_Jan_21_1524,X,
stim/negf.jpg,stim/posf.jpg,stim/1.jpg,stim/3.jpg,stim/latef.jpg,EF,2,4,0,56,56,57,,,,,,,,,,2,0,0.749670074661,,,,,,PLC_L_D1S2,P8,60.0183653013,01,C,2015_Jan_21_1524,X,
stim/posf.jpg,stim/negf.jpg,stim/4.jpg,stim/6.jpg,stim/latef.jpg,CD,1,2,0,57,57,20,,,,,,,,,,2,1,0.666401624047,,,,,,PLC_L_D1S2,P8,60.0183653013,01,C,2015_Jan_21_1524,X,
stim/posf.jpg,stim/negf.jpg,stim/4.jpg,stim/6.jpg,stim/latef.jpg,CD,1,2,0,58,58,25,,,,,,,,,,2,1,0.516502233818,,,,,,PLC_L_D1S2,P8,60.0183653013,01,C,2015_Jan_21_1524,X,
stim/negf.jpg,stim/posf.jpg,stim/1.jpg,stim/3.jpg,stim/latef.jpg,EF,2,4,0,59,59,55,,,,,,,,,,2,0,0.733092292538,,,,,,PLC_L_D1S2,P8,60.0183653013,01,C,2015_Jan_21_1524,X,
,,,,,,,,,,,,,,,,,,,,,,,,0.9984375,1.0,1,0,0,PLC_L_D1S2,P8,60.0183653013,01,C,2015_Jan_21_1524,X,
stim/negf.jpg,stim/posf.jpg,stim/3.jpg,stim/1.jpg,stim/latef.jpg,EF,1,2,,,,,0,0,0,48,,,,,,4,0,0.916366616792,,,,,,PLC_L_D1S2,P8,60.0183653013,01,C,2015_Jan_21_1524,X,
stim/posf.jpg,stim/negf.jpg,stim/5.jpg,stim/2.jpg,stim/latef.jpg,AB,1,2,,,,,0,1,1,4,,,,,,2,1,0.683109630754,,,,,,PLC_L_D1S2,P8,60.0183653013,01,C,2015_Jan_21_1524,X,
stim/posf.jpg,stim/negf.jpg,stim/2.jpg,stim/5.jpg,stim/latef.jpg,AB,2,4,,,,,0,2,2,13,,,,,,4,1,0.766420375787,,,,,,PLC_L_D1S2,P8,60.0183653013,01,C,2015_Jan_21_1524,X,
stim/posf.jpg,stim/negf.jpg,stim/1.jpg,stim/3.jpg,stim/latef.jpg,EF,2,4,,,,,0,3,3,50,,,,,,2,0,0.633107928512,,,,,,PLC_L_D1S2,P8,60.0183653013,01,C,2015_Jan_21_1524,X,
stim/posf.jpg,stim/negf.jpg,stim/5.jpg,stim/2.jpg,stim/latef.jpg,AB,1,2,,,,,0,4,4,1,,,,,,2,1,0.699844587634,,,,,,PLC_L_D1S2,P8,60.0183653013,01,C,2015_Jan_21_1524,X,
stim/negf.jpg,stim/posf.jpg,stim/2.jpg,stim/5.jpg,stim/latef.jpg,AB,2,4,,,,,0,5,5,19,,,,,,4,1,0.566460501801,,,,,,PLC_L_D1S2,P8,60.0183653013,01,C,2015_Jan_21_1524,X,
stim/posf.jpg,stim/negf.jpg,stim/4.jpg,stim/6.jpg,stim/latef.jpg,CD,1,2,,,,,0,6,6,23,,,,,,2,1,0.649740714731,,,,,,PLC_L_D1S2,P8,60.0183653013,01,C,2015_Jan_21_1524,X,
stim/negf.jpg,stim/posf.jpg,stim/2.jpg,stim/5.jpg,stim/latef.jpg,AB,2,4,,,,,0,7,7,16,,,,,,4,1,0.983022894565,,,,,,PLC_L_D1S2,P8,60.0183653013,01,C,2015_Jan_21_1524,X,
stim/posf.jpg,stim/negf.jpg,stim/4.jpg,stim/6.jpg,stim/latef.jpg,CD,1,2,,,,,0,8,8,20,,,,,,2,1,0.69974937632,,,,,,PLC_L_D1S2,P8,60.0183653013,01,C,2015_Jan_21_1524,X,
stim/negf.jpg,stim/posf.jpg,stim/6.jpg,stim/4.jpg,stim/latef.jpg,CD,2,4,,,,,0,9,9,37,,,,,,4,1,0.949746431982,,,,,,PLC_L_D1S2,P8,60.0183653013,01,C,2015_Jan_21_1524,X,
stim/posf.jpg,stim/negf.jpg,stim/6.jpg,stim/4.jpg,stim/latef.jpg,CD,2,4,,,,,0,10,10,30,,,,,,2,0,0.799717523928,,,,,,PLC_L_D1S2,P8,60.0183653013,01,C,2015_Jan_21_1524,X,
stim/negf.jpg,stim/posf.jpg,stim/2.jpg,stim/5.jpg,stim/latef.jpg,AB,2,4,,,,,0,11,11,18,,,,,,4,1,0.933017078067,,,,,,PLC_L_D1S2,P8,60.0183653013,01,C,2015_Jan_21_1524,X,
stim/posf.jpg,stim/negf.jpg,stim/2.jpg,stim/5.jpg,stim/latef.jpg,AB,2,4,,,,,0,12,12,15,,,,,,2,0,1.08297396862,,,,,,PLC_L_D1S2,P8,60.0183653013,01,C,2015_Jan_21_1524,X,
stim/negf.jpg,stim/posf.jpg,stim/3.jpg,stim/1.jpg,stim/latef.jpg,EF,1,2,,,,,0,13,13,49,,,,,,4,0,0.949633614785,,,,,,PLC_L_D1S2,P8,60.0183653013,01,C,2015_Jan_21_1524,X,
stim/negf.jpg,stim/posf.jpg,stim/3.jpg,stim/1.jpg,stim/latef.jpg,EF,1,2,,,,,0,14,14,47,,,,,,4,0,0.949694137638,,,,,,PLC_L_D1S2,P8,60.0183653013,01,C,2015_Jan_21_1524,X,
stim/negf.jpg,stim/posf.jpg,stim/4.jpg,stim/6.jpg,stim/latef.jpg,CD,1,2,,,,,0,15,15,26,,,,,,2,1,0.716421678033,,,,,,PLC_L_D1S2,P8,60.0183653013,01,C,2015_Jan_21_1524,X,
stim/posf.jpg,stim/negf.jpg,stim/5.jpg,stim/2.jpg,stim/latef.jpg,AB,1,2,,,,,0,16,16,5,,,,,,2,1,0.88304438914,,,,,,PLC_L_D1S2,P8,60.0183653013,01,C,2015_Jan_21_1524,X,
stim/posf.jpg,stim/negf.jpg,stim/2.jpg,stim/5.jpg,stim/latef.jpg,AB,2,4,,,,,0,17,17,14,,,,,,4,1,1.08303694559,,,,,,PLC_L_D1S2,P8,60.0183653013,01,C,2015_Jan_21_1524,X,
stim/posf.jpg,stim/negf.jpg,stim/5.jpg,stim/2.jpg,stim/latef.jpg,AB,1,2,,,,,0,18,18,3,,,,,,2,1,0.566499208277,,,,,,PLC_L_D1S2,P8,60.0183653013,01,C,2015_Jan_21_1524,X,
stim/posf.jpg,stim/negf.jpg,stim/2.jpg,stim/5.jpg,stim/latef.jpg,AB,2,4,,,,,0,19,19,12,,,,,,4,1,1.08296106947,,,,,,PLC_L_D1S2,P8,60.0183653013,01,C,2015_Jan_21_1524,X,
stim/posf.jpg,stim/negf.jpg,stim/5.jpg,stim/2.jpg,stim/latef.jpg,AB,1,2,,,,,0,20,20,0,,,,,,2,1,0.616431635852,,,,,,PLC_L_D1S2,P8,60.0183653013,01,C,2015_Jan_21_1524,X,
stim/posf.jpg,stim/negf.jpg,stim/3.jpg,stim/1.jpg,stim/latef.jpg,EF,1,2,,,,,0,21,21,43,,,,,,4,0,0.966430147142,,,,,,PLC_L_D1S2,P8,60.0183653013,01,C,2015_Jan_21_1524,X,
stim/negf.jpg,stim/posf.jpg,stim/5.jpg,stim/2.jpg,stim/latef.jpg,AB,1,2,,,,,0,22,22,9,,,,,,2,1,0.64977586334,,,,,,PLC_L_D1S2,P8,60.0183653013,01,C,2015_Jan_21_1524,X,
stim/negf.jpg,stim/posf.jpg,stim/5.jpg,stim/2.jpg,stim/latef.jpg,AB,1,2,,,,,0,23,23,7,,,,,,4,0,0.983022831407,,,,,,PLC_L_D1S2,P8,60.0183653013,01,C,2015_Jan_21_1524,X,
stim/posf.jpg,stim/negf.jpg,stim/3.jpg,stim/1.jpg,stim/latef.jpg,EF,1,2,,,,,0,24,24,42,,,,,,2,1,0.799720793077,,,,,,PLC_L_D1S2,P8,60.0183653013,01,C,2015_Jan_21_1524,X,
stim/posf.jpg,stim/negf.jpg,stim/2.jpg,stim/5.jpg,stim/latef.jpg,AB,2,4,,,,,0,25,25,11,,,,,,4,1,0.816420983301,,,,,,PLC_L_D1S2,P8,60.0183653013,01,C,2015_Jan_21_1524,X,
stim/negf.jpg,stim/posf.jpg,stim/1.jpg,stim/3.jpg,stim/latef.jpg,EF,2,4,,,,,0,26,26,56,,,,,,4,1,0.933028247909,,,,,,PLC_L_D1S2,P8,60.0183653013,01,C,2015_Jan_21_1524,X,
stim/posf.jpg,stim/negf.jpg,stim/4.jpg,stim/6.jpg,stim/latef.jpg,CD,1,2,,,,,0,27,27,21,,,,,,4,0,0.866426291532,,,,,,PLC_L_D1S2,P8,60.0183653013,01,C,2015_Jan_21_1524,X,
stim/negf.jpg,stim/posf.jpg,stim/4.jpg,stim/6.jpg,stim/latef.jpg,CD,1,2,,,,,0,28,28,29,,,,,,4,0,1.06627794678,,,,,,PLC_L_D1S2,P8,60.0183653013,01,C,2015_Jan_21_1524,X,
stim/posf.jpg,stim/negf.jpg,stim/3.jpg,stim/1.jpg,stim/latef.jpg,EF,1,2,,,,,0,29,29,44,,,,,,2,1,1.01633028624,,,,,,PLC_L_D1S2,P8,60.0183653013,01,C,2015_Jan_21_1524,X,
stim/negf.jpg,stim/posf.jpg,stim/6.jpg,stim/4.jpg,stim/latef.jpg,CD,2,4,,,,,0,30,30,38,,,,,,2,0,0.999666225066,,,,,,PLC_L_D1S2,P8,60.0183653013,01,C,2015_Jan_21_1524,X,
stim/posf.jpg,stim/negf.jpg,stim/1.jpg,stim/3.jpg,stim/latef.jpg,EF,2,4,,,,,0,31,31,53,,,,,,4,1,1.03291476606,,,,,,PLC_L_D1S2,P8,60.0183653013,01,C,2015_Jan_21_1524,X,
stim/negf.jpg,stim/posf.jpg,stim/1.jpg,stim/3.jpg,stim/latef.jpg,EF,2,4,,,,,0,32,32,59,,,,,,4,1,1.26626081909,,,,,,PLC_L_D1S2,P8,60.0183653013,01,C,2015_Jan_21_1524,X,
stim/negf.jpg,stim/posf.jpg,stim/2.jpg,stim/5.jpg,stim/latef.jpg,AB,2,4,,,,,0,33,33,17,,,,,,2,0,0.749733045616,,,,,,PLC_L_D1S2,P8,60.0183653013,01,C,2015_Jan_21_1524,X,
stim/posf.jpg,stim/negf.jpg,stim/4.jpg,stim/6.jpg,stim/latef.jpg,CD,1,2,,,,,0,34,34,25,,,,,,4,0,1.1162951647,,,,,,PLC_L_D1S2,P8,60.0183653013,01,C,2015_Jan_21_1524,X,
stim/negf.jpg,stim/posf.jpg,stim/5.jpg,stim/2.jpg,stim/latef.jpg,AB,1,2,,,,,0,35,35,6,,,,,,4,0,0.93304305682,,,,,,PLC_L_D1S2,P8,60.0183653013,01,C,2015_Jan_21_1524,X,
stim/posf.jpg,stim/negf.jpg,stim/1.jpg,stim/3.jpg,stim/latef.jpg,EF,2,4,,,,,0,36,36,54,,,,,,2,0,0.983090993301,,,,,,PLC_L_D1S2,P8,60.0183653013,01,C,2015_Jan_21_1524,X,
stim/negf.jpg,stim/posf.jpg,stim/1.jpg,stim/3.jpg,stim/latef.jpg,EF,2,4,,,,,0,37,37,57,,,,,,4,1,1.13297407989,,,,,,PLC_L_D1S2,P8,60.0183653013,01,C,2015_Jan_21_1524,X,
stim/posf.jpg,stim/negf.jpg,stim/6.jpg,stim/4.jpg,stim/latef.jpg,CD,2,4,,,,,0,38,38,34,,,,,,4,1,1.23292082014,,,,,,PLC_L_D1S2,P8,60.0183653013,01,C,2015_Jan_21_1524,X,
stim/negf.jpg,stim/posf.jpg,stim/4.jpg,stim/6.jpg,stim/latef.jpg,CD,1,2,,,,,0,39,39,28,,,,,,2,1,0.666438703469,,,,,,PLC_L_D1S2,P8,60.0183653013,01,C,2015_Jan_21_1524,X,
stim/posf.jpg,stim/negf.jpg,stim/2.jpg,stim/5.jpg,stim/latef.jpg,AB,2,4,,,,,0,40,40,10,,,,,,4,1,1.06632727273,,,,,,PLC_L_D1S2,P8,60.0183653013,01,C,2015_Jan_21_1524,X,
stim/negf.jpg,stim/posf.jpg,stim/4.jpg,stim/6.jpg,stim/latef.jpg,CD,1,2,,,,,0,41,41,27,,,,,,4,0,0.866382117428,,,,,,PLC_L_D1S2,P8,60.0183653013,01,C,2015_Jan_21_1524,X,
stim/posf.jpg,stim/negf.jpg,stim/3.jpg,stim/1.jpg,stim/latef.jpg,EF,1,2,,,,,0,42,42,40,,,,,,2,1,0.916364165683,,,,,,PLC_L_D1S2,P8,60.0183653013,01,C,2015_Jan_21_1524,X,
stim/posf.jpg,stim/negf.jpg,stim/1.jpg,stim/3.jpg,stim/latef.jpg,EF,2,4,,,,,0,43,43,52,,,,,,4,1,0.99968485049,,,,,,PLC_L_D1S2,P8,60.0183653013,01,C,2015_Jan_21_1524,X,
stim/negf.jpg,stim/posf.jpg,stim/6.jpg,stim/4.jpg,stim/latef.jpg,CD,2,4,,,,,0,44,44,39,,,,,,2,0,0.899718053248,,,,,,PLC_L_D1S2,P8,60.0183653013,01,C,2015_Jan_21_1524,X,
stim/posf.jpg,stim/negf.jpg,stim/6.jpg,stim/4.jpg,stim/latef.jpg,CD,2,4,,,,,0,45,45,33,,,,,,2,0,1.08298585123,,,,,,PLC_L_D1S2,P8,60.0183653013,01,C,2015_Jan_21_1524,X,
stim/negf.jpg,stim/posf.jpg,stim/3.jpg,stim/1.jpg,stim/latef.jpg,EF,1,2,,,,,0,46,46,45,,,,,,2,1,1.13296271156,,,,,,PLC_L_D1S2,P8,60.0183653013,01,C,2015_Jan_21_1524,X,
stim/posf.jpg,stim/negf.jpg,stim/6.jpg,stim/4.jpg,stim/latef.jpg,CD,2,4,,,,,0,47,47,32,,,,,,4,1,1.1662050571,,,,,,PLC_L_D1S2,P8,60.0183653013,01,C,2015_Jan_21_1524,X,
stim/posf.jpg,stim/negf.jpg,stim/4.jpg,stim/6.jpg,stim/latef.jpg,CD,1,2,,,,,0,48,48,22,,,,,,2,1,1.13296064842,,,,,,PLC_L_D1S2,P8,60.0183653013,01,C,2015_Jan_21_1524,X,
stim/posf.jpg,stim/negf.jpg,stim/3.jpg,stim/1.jpg,stim/latef.jpg,EF,1,2,,,,,0,49,49,41,,,,,,4,0,0.966364836355,,,,,,PLC_L_D1S2,P8,60.0183653013,01,C,2015_Jan_21_1524,X,
stim/negf.jpg,stim/posf.jpg,stim/5.jpg,stim/2.jpg,stim/latef.jpg,AB,1,2,,,,,0,50,50,8,,,,,,2,1,1.01633173886,,,,,,PLC_L_D1S2,P8,60.0183653013,01,C,2015_Jan_21_1524,X,
stim/posf.jpg,stim/negf.jpg,stim/5.jpg,stim/2.jpg,stim/latef.jpg,AB,1,2,,,,,0,51,51,2,,,,,,2,1,0.949677578364,,,,,,PLC_L_D1S2,P8,60.0183653013,01,C,2015_Jan_21_1524,X,
stim/posf.jpg,stim/negf.jpg,stim/6.jpg,stim/4.jpg,stim/latef.jpg,CD,2,4,,,,,0,52,52,35,,,,,,2,0,1.04966744009,,,,,,PLC_L_D1S2,P8,60.0183653013,01,C,2015_Jan_21_1524,X,
stim/negf.jpg,stim/posf.jpg,stim/6.jpg,stim/4.jpg,stim/latef.jpg,CD,2,4,,,,,0,53,53,36,,,,,,4,1,0.649833508019,,,,,,PLC_L_D1S2,P8,60.0183653013,01,C,2015_Jan_21_1524,X,
stim/posf.jpg,stim/negf.jpg,stim/4.jpg,stim/6.jpg,stim/latef.jpg,CD,1,2,,,,,0,54,54,24,,,,,,4,0,1.26625656048,,,,,,PLC_L_D1S2,P8,60.0183653013,01,C,2015_Jan_21_1524,X,
stim/posf.jpg,stim/negf.jpg,stim/1.jpg,stim/3.jpg,stim/latef.jpg,EF,2,4,,,,,0,55,55,55,,,,,,2,0,0.866381103901,,,,,,PLC_L_D1S2,P8,60.0183653013,01,C,2015_Jan_21_1524,X,
stim/posf.jpg,stim/negf.jpg,stim/6.jpg,stim/4.jpg,stim/latef.jpg,CD,2,4,,,,,0,56,56,31,,,,,,4,1,1.24954809062,,,,,,PLC_L_D1S2,P8,60.0183653013,01,C,2015_Jan_21_1524,X,
stim/posf.jpg,stim/negf.jpg,stim/1.jpg,stim/3.jpg,stim/latef.jpg,EF,2,4,,,,,0,57,57,51,,,,,,2,0,0.683095868452,,,,,,PLC_L_D1S2,P8,60.0183653013,01,C,2015_Jan_21_1524,X,
stim/negf.jpg,stim/posf.jpg,stim/1.jpg,stim/3.jpg,stim/latef.jpg,EF,2,4,,,,,0,58,58,58,,,,,,4,1,0.533214490117,,,,,,PLC_L_D1S2,P8,60.0183653013,01,C,2015_Jan_21_1524,X,
stim/negf.jpg,stim/posf.jpg,stim/3.jpg,stim/1.jpg,stim/latef.jpg,EF,1,2,,,,,0,59,59,46,,,,,,4,0,0.883035201239,,,,,,PLC_L_D1S2,P8,60.0183653013,01,C,2015_Jan_21_1524,X,
