fb_corr,fb_incorr,symbol2,symbol1,fb_late,pair,position,correct,block_01.thisRepN,block_01.thisTrialN,block_01.thisN,block_01.thisIndex,block_02.thisRepN,block_02.thisTrialN,block_02.thisN,block_02.thisIndex,mouse.x,mouse.y,mouse.leftButton,mouse.midButton,mouse.rightButton,buttonBox_2.keys,buttonBox_2.corr,buttonBox_2.rt,mouse_2.x,mouse_2.y,mouse_2.leftButton,mouse_2.midButton,mouse_2.rightButton,date,Participant,expName,Group,frameRate,
,,,,,,,,,,,,,,,,0.9984375,0.671875,1,0,0,,,,,,,,,2016_Apr_11_1021,P13,PLC_L_D1S2,NHGY,60.0260865915,
stim/negf.jpg,stim/posf.jpg,stim/6.jpg,stim/1.jpg,stim/latef.jpg,AB,2,4,0,0,0,17,,,,,,,,,,2,0,1.08302514182,,,,,,2016_Apr_11_1021,P13,PLC_L_D1S2,NHGY,60.0260865915,
stim/posf.jpg,stim/negf.jpg,stim/6.jpg,stim/1.jpg,stim/latef.jpg,AB,2,4,0,1,1,12,,,,,,,,,,2,0,1.08299536171,,,,,,2016_Apr_11_1021,P13,PLC_L_D1S2,NHGY,60.0260865915,
stim/negf.jpg,stim/posf.jpg,stim/6.jpg,stim/5.jpg,stim/latef.jpg,EF,2,4,0,2,2,57,,,,,,,,,,4,1,0.982994787277,,,,,,2016_Apr_11_1021,P13,PLC_L_D1S2,NHGY,60.0260865915,
stim/posf.jpg,stim/negf.jpg,stim/1.jpg,stim/6.jpg,stim/latef.jpg,AB,1,2,0,3,3,4,,,,,,,,,,4,0,1.11628950651,,,,,,2016_Apr_11_1021,P13,PLC_L_D1S2,NHGY,60.0260865915,
stim/negf.jpg,stim/posf.jpg,stim/6.jpg,stim/4.jpg,stim/latef.jpg,CD,2,4,0,4,4,39,,,,,,,,,,4,1,0.799738682646,,,,,,2016_Apr_11_1021,P13,PLC_L_D1S2,NHGY,60.0260865915,
stim/negf.jpg,stim/posf.jpg,stim/1.jpg,stim/2.jpg,stim/latef.jpg,EF,1,2,0,5,5,46,,,,,,,,,,4,0,0.982956703496,,,,,,2016_Apr_11_1021,P13,PLC_L_D1S2,NHGY,60.0260865915,
stim/posf.jpg,stim/negf.jpg,stim/6.jpg,stim/4.jpg,stim/latef.jpg,CD,2,4,0,6,6,35,,,,,,,,,,4,1,1.14959462562,,,,,,2016_Apr_11_1021,P13,PLC_L_D1S2,NHGY,60.0260865915,
stim/posf.jpg,stim/negf.jpg,stim/1.jpg,stim/3.jpg,stim/latef.jpg,CD,1,2,0,7,7,23,,,,,,,,,,4,0,1.48283049439,,,,,,2016_Apr_11_1021,P13,PLC_L_D1S2,NHGY,60.0260865915,
stim/posf.jpg,stim/negf.jpg,stim/1.jpg,stim/6.jpg,stim/latef.jpg,AB,1,2,0,8,8,3,,,,,,,,,,2,1,1.26624704834,,,,,,2016_Apr_11_1021,P13,PLC_L_D1S2,NHGY,60.0260865915,
stim/negf.jpg,stim/posf.jpg,stim/1.jpg,stim/2.jpg,stim/latef.jpg,EF,1,2,0,9,9,48,,,,,,,,,,2,1,0.949700053006,,,,,,2016_Apr_11_1021,P13,PLC_L_D1S2,NHGY,60.0260865915,
stim/posf.jpg,stim/negf.jpg,stim/6.jpg,stim/4.jpg,stim/latef.jpg,CD,2,4,0,10,10,31,,,,,,,,,,4,1,1.1496151096,,,,,,2016_Apr_11_1021,P13,PLC_L_D1S2,NHGY,60.0260865915,
stim/posf.jpg,stim/negf.jpg,stim/6.jpg,stim/5.jpg,stim/latef.jpg,EF,2,4,0,11,11,55,,,,,,,,,,4,1,0.733094354575,,,,,,2016_Apr_11_1021,P13,PLC_L_D1S2,NHGY,60.0260865915,
stim/negf.jpg,stim/posf.jpg,stim/6.jpg,stim/5.jpg,stim/latef.jpg,EF,2,4,0,12,12,56,,,,,,,,,,4,1,0.866355113289,,,,,,2016_Apr_11_1021,P13,PLC_L_D1S2,NHGY,60.0260865915,
stim/negf.jpg,stim/posf.jpg,stim/6.jpg,stim/4.jpg,stim/latef.jpg,CD,2,4,0,13,13,36,,,,,,,,,,4,1,1.23291245287,,,,,,2016_Apr_11_1021,P13,PLC_L_D1S2,NHGY,60.0260865915,
stim/negf.jpg,stim/posf.jpg,stim/1.jpg,stim/6.jpg,stim/latef.jpg,AB,1,2,0,14,14,8,,,,,,,,,,2,1,1.16627696981,,,,,,2016_Apr_11_1021,P13,PLC_L_D1S2,NHGY,60.0260865915,
stim/posf.jpg,stim/negf.jpg,stim/1.jpg,stim/2.jpg,stim/latef.jpg,EF,1,2,0,15,15,42,,,,,,,,,,2,1,1.09962132758,,,,,,2016_Apr_11_1021,P13,PLC_L_D1S2,NHGY,60.0260865915,
stim/posf.jpg,stim/negf.jpg,stim/1.jpg,stim/6.jpg,stim/latef.jpg,AB,1,2,0,16,16,2,,,,,,,,,,4,0,0.783056103878,,,,,,2016_Apr_11_1021,P13,PLC_L_D1S2,NHGY,60.0260865915,
stim/negf.jpg,stim/posf.jpg,stim/1.jpg,stim/2.jpg,stim/latef.jpg,EF,1,2,0,17,17,47,,,,,,,,,,4,0,1.13297007327,,,,,,2016_Apr_11_1021,P13,PLC_L_D1S2,NHGY,60.0260865915,
stim/posf.jpg,stim/negf.jpg,stim/1.jpg,stim/3.jpg,stim/latef.jpg,CD,1,2,0,18,18,22,,,,,,,,,,4,0,1.23293413383,,,,,,2016_Apr_11_1021,P13,PLC_L_D1S2,NHGY,60.0260865915,
stim/posf.jpg,stim/negf.jpg,stim/6.jpg,stim/1.jpg,stim/latef.jpg,AB,2,4,0,19,19,14,,,,,,,,,,2,0,1.64944491904,,,,,,2016_Apr_11_1021,P13,PLC_L_D1S2,NHGY,60.0260865915,
stim/negf.jpg,stim/posf.jpg,stim/6.jpg,stim/1.jpg,stim/latef.jpg,AB,2,4,0,20,20,16,,,,,,,,,,4,1,1.34956668008,,,,,,2016_Apr_11_1021,P13,PLC_L_D1S2,NHGY,60.0260865915,
stim/posf.jpg,stim/negf.jpg,stim/6.jpg,stim/4.jpg,stim/latef.jpg,CD,2,4,0,21,21,30,,,,,,,,,,2,0,1.03297553486,,,,,,2016_Apr_11_1021,P13,PLC_L_D1S2,NHGY,60.0260865915,
stim/posf.jpg,stim/negf.jpg,stim/1.jpg,stim/3.jpg,stim/latef.jpg,CD,1,2,0,22,22,25,,,,,,,,,,4,0,1.26623300339,,,,,,2016_Apr_11_1021,P13,PLC_L_D1S2,NHGY,60.0260865915,
stim/negf.jpg,stim/posf.jpg,stim/6.jpg,stim/5.jpg,stim/latef.jpg,EF,2,4,0,23,23,59,,,,,,,,,,4,1,1.36627984196,,,,,,2016_Apr_11_1021,P13,PLC_L_D1S2,NHGY,60.0260865915,
stim/posf.jpg,stim/negf.jpg,stim/6.jpg,stim/4.jpg,stim/latef.jpg,CD,2,4,0,24,24,33,,,,,,,,,,4,1,1.31620810292,,,,,,2016_Apr_11_1021,P13,PLC_L_D1S2,NHGY,60.0260865915,
stim/posf.jpg,stim/negf.jpg,stim/6.jpg,stim/5.jpg,stim/latef.jpg,EF,2,4,0,25,25,54,,,,,,,,,,2,0,1.43285966549,,,,,,2016_Apr_11_1021,P13,PLC_L_D1S2,NHGY,60.0260865915,
stim/negf.jpg,stim/posf.jpg,stim/1.jpg,stim/6.jpg,stim/latef.jpg,AB,1,2,0,26,26,6,,,,,,,,,,2,1,1.6493771995,,,,,,2016_Apr_11_1021,P13,PLC_L_D1S2,NHGY,60.0260865915,
stim/negf.jpg,stim/posf.jpg,stim/6.jpg,stim/5.jpg,stim/latef.jpg,EF,2,4,0,27,27,58,,,,,,,,,,4,1,1.29956210419,,,,,,2016_Apr_11_1021,P13,PLC_L_D1S2,NHGY,60.0260865915,
stim/negf.jpg,stim/posf.jpg,stim/1.jpg,stim/3.jpg,stim/latef.jpg,CD,1,2,0,28,28,28,,,,,,,,,,2,1,1.26625355052,,,,,,2016_Apr_11_1021,P13,PLC_L_D1S2,NHGY,60.0260865915,
stim/posf.jpg,stim/negf.jpg,stim/6.jpg,stim/5.jpg,stim/latef.jpg,EF,2,4,0,29,29,53,,,,,,,,,,4,1,1.2995674124,,,,,,2016_Apr_11_1021,P13,PLC_L_D1S2,NHGY,60.0260865915,
stim/negf.jpg,stim/posf.jpg,stim/1.jpg,stim/2.jpg,stim/latef.jpg,EF,1,2,0,30,30,45,,,,,,,,,,4,0,1.16625667229,,,,,,2016_Apr_11_1021,P13,PLC_L_D1S2,NHGY,60.0260865915,
stim/posf.jpg,stim/negf.jpg,stim/6.jpg,stim/5.jpg,stim/latef.jpg,EF,2,4,0,31,31,51,,,,,,,,,,4,1,1.11625988579,,,,,,2016_Apr_11_1021,P13,PLC_L_D1S2,NHGY,60.0260865915,
stim/posf.jpg,stim/negf.jpg,stim/1.jpg,stim/2.jpg,stim/latef.jpg,EF,1,2,0,32,32,40,,,,,,,,,,4,0,1.14961452014,,,,,,2016_Apr_11_1021,P13,PLC_L_D1S2,NHGY,60.0260865915,
stim/posf.jpg,stim/negf.jpg,stim/1.jpg,stim/2.jpg,stim/latef.jpg,EF,1,2,0,33,33,44,,,,,,,,,,2,1,1.09959791431,,,,,,2016_Apr_11_1021,P13,PLC_L_D1S2,NHGY,60.0260865915,
stim/negf.jpg,stim/posf.jpg,stim/1.jpg,stim/6.jpg,stim/latef.jpg,AB,1,2,0,34,34,9,,,,,,,,,,2,1,0.999653643004,,,,,,2016_Apr_11_1021,P13,PLC_L_D1S2,NHGY,60.0260865915,
stim/negf.jpg,stim/posf.jpg,stim/6.jpg,stim/1.jpg,stim/latef.jpg,AB,2,4,0,35,35,18,,,,,,,,,,4,1,1.29955748469,,,,,,2016_Apr_11_1021,P13,PLC_L_D1S2,NHGY,60.0260865915,
stim/negf.jpg,stim/posf.jpg,stim/1.jpg,stim/3.jpg,stim/latef.jpg,CD,1,2,0,36,36,26,,,,,,,,,,2,1,0.766428035774,,,,,,2016_Apr_11_1021,P13,PLC_L_D1S2,NHGY,60.0260865915,
stim/posf.jpg,stim/negf.jpg,stim/6.jpg,stim/1.jpg,stim/latef.jpg,AB,2,4,0,37,37,15,,,,,,,,,,4,1,1.23292493994,,,,,,2016_Apr_11_1021,P13,PLC_L_D1S2,NHGY,60.0260865915,
stim/negf.jpg,stim/posf.jpg,stim/6.jpg,stim/4.jpg,stim/latef.jpg,CD,2,4,0,38,38,38,,,,,,,,,,4,1,1.43283928377,,,,,,2016_Apr_11_1021,P13,PLC_L_D1S2,NHGY,60.0260865915,
stim/negf.jpg,stim/posf.jpg,stim/6.jpg,stim/4.jpg,stim/latef.jpg,CD,2,4,0,39,39,37,,,,,,,,,,4,1,1.28288840351,,,,,,2016_Apr_11_1021,P13,PLC_L_D1S2,NHGY,60.0260865915,
stim/posf.jpg,stim/negf.jpg,stim/1.jpg,stim/3.jpg,stim/latef.jpg,CD,1,2,0,40,40,21,,,,,,,,,,2,1,1.03291767687,,,,,,2016_Apr_11_1021,P13,PLC_L_D1S2,NHGY,60.0260865915,
stim/posf.jpg,stim/negf.jpg,stim/1.jpg,stim/3.jpg,stim/latef.jpg,CD,1,2,0,41,41,24,,,,,,,,,,2,1,0.949682459221,,,,,,2016_Apr_11_1021,P13,PLC_L_D1S2,NHGY,60.0260865915,
stim/posf.jpg,stim/negf.jpg,stim/1.jpg,stim/6.jpg,stim/latef.jpg,AB,1,2,0,42,42,5,,,,,,,,,,2,1,1.1829499938,,,,,,2016_Apr_11_1021,P13,PLC_L_D1S2,NHGY,60.0260865915,
stim/posf.jpg,stim/negf.jpg,stim/1.jpg,stim/2.jpg,stim/latef.jpg,EF,1,2,0,43,43,43,,,,,,,,,,2,1,1.0496629647,,,,,,2016_Apr_11_1021,P13,PLC_L_D1S2,NHGY,60.0260865915,
stim/posf.jpg,stim/negf.jpg,stim/6.jpg,stim/1.jpg,stim/latef.jpg,AB,2,4,0,44,44,13,,,,,,,,,,2,0,1.36619613463,,,,,,2016_Apr_11_1021,P13,PLC_L_D1S2,NHGY,60.0260865915,
stim/posf.jpg,stim/negf.jpg,stim/1.jpg,stim/6.jpg,stim/latef.jpg,AB,1,2,0,45,45,0,,,,,,,,,,2,1,1.51613665711,,,,,,2016_Apr_11_1021,P13,PLC_L_D1S2,NHGY,60.0260865915,
stim/posf.jpg,stim/negf.jpg,stim/6.jpg,stim/4.jpg,stim/latef.jpg,CD,2,4,0,46,46,32,,,,,,,,,,2,0,1.13296112901,,,,,,2016_Apr_11_1021,P13,PLC_L_D1S2,NHGY,60.0260865915,
stim/posf.jpg,stim/negf.jpg,stim/1.jpg,stim/3.jpg,stim/latef.jpg,CD,1,2,0,47,47,20,,,,,,,,,,2,1,1.16619633914,,,,,,2016_Apr_11_1021,P13,PLC_L_D1S2,NHGY,60.0260865915,
stim/negf.jpg,stim/posf.jpg,stim/1.jpg,stim/3.jpg,stim/latef.jpg,CD,1,2,0,48,48,27,,,,,,,,,,2,1,1.16628971854,,,,,,2016_Apr_11_1021,P13,PLC_L_D1S2,NHGY,60.0260865915,
stim/posf.jpg,stim/negf.jpg,stim/1.jpg,stim/2.jpg,stim/latef.jpg,EF,1,2,0,49,49,41,,,,,,,,,,4,0,1.16626502709,,,,,,2016_Apr_11_1021,P13,PLC_L_D1S2,NHGY,60.0260865915,
stim/posf.jpg,stim/negf.jpg,stim/6.jpg,stim/5.jpg,stim/latef.jpg,EF,2,4,0,50,50,52,,,,,,,,,,4,1,1.04965090469,,,,,,2016_Apr_11_1021,P13,PLC_L_D1S2,NHGY,60.0260865915,
stim/negf.jpg,stim/posf.jpg,stim/1.jpg,stim/2.jpg,stim/latef.jpg,EF,1,2,0,51,51,49,,,,,,,,,,2,1,1.38286990748,,,,,,2016_Apr_11_1021,P13,PLC_L_D1S2,NHGY,60.0260865915,
stim/negf.jpg,stim/posf.jpg,stim/1.jpg,stim/3.jpg,stim/latef.jpg,CD,1,2,0,52,52,29,,,,,,,,,,2,1,1.28289959737,,,,,,2016_Apr_11_1021,P13,PLC_L_D1S2,NHGY,60.0260865915,
stim/posf.jpg,stim/negf.jpg,stim/6.jpg,stim/1.jpg,stim/latef.jpg,AB,2,4,0,53,53,11,,,,,,,,,,4,1,1.09964191983,,,,,,2016_Apr_11_1021,P13,PLC_L_D1S2,NHGY,60.0260865915,
stim/posf.jpg,stim/negf.jpg,stim/6.jpg,stim/1.jpg,stim/latef.jpg,AB,2,4,0,54,54,10,,,,,,,,,,4,1,1.1828671436,,,,,,2016_Apr_11_1021,P13,PLC_L_D1S2,NHGY,60.0260865915,
stim/negf.jpg,stim/posf.jpg,stim/1.jpg,stim/6.jpg,stim/latef.jpg,AB,1,2,0,55,55,7,,,,,,,,,,4,0,1.1495708274,,,,,,2016_Apr_11_1021,P13,PLC_L_D1S2,NHGY,60.0260865915,
stim/posf.jpg,stim/negf.jpg,stim/6.jpg,stim/4.jpg,stim/latef.jpg,CD,2,4,0,56,56,34,,,,,,,,,,4,1,0.899698734224,,,,,,2016_Apr_11_1021,P13,PLC_L_D1S2,NHGY,60.0260865915,
stim/negf.jpg,stim/posf.jpg,stim/6.jpg,stim/1.jpg,stim/latef.jpg,AB,2,4,0,57,57,19,,,,,,,,,,4,1,0.883028642535,,,,,,2016_Apr_11_1021,P13,PLC_L_D1S2,NHGY,60.0260865915,
stim/posf.jpg,stim/negf.jpg,stim/1.jpg,stim/6.jpg,stim/latef.jpg,AB,1,2,0,58,58,1,,,,,,,,,,4,0,1.39954897652,,,,,,2016_Apr_11_1021,P13,PLC_L_D1S2,NHGY,60.0260865915,
stim/posf.jpg,stim/negf.jpg,stim/6.jpg,stim/5.jpg,stim/latef.jpg,EF,2,4,0,59,59,50,,,,,,,,,,4,1,0.766424886937,,,,,,2016_Apr_11_1021,P13,PLC_L_D1S2,NHGY,60.0260865915,
,,,,,,,,,,,,,,,,,,,,,,,,0.9984375,0.671875,1,0,0,2016_Apr_11_1021,P13,PLC_L_D1S2,NHGY,60.0260865915,
stim/negf.jpg,stim/posf.jpg,stim/6.jpg,stim/4.jpg,stim/latef.jpg,CD,2,4,,,,,0,0,0,36,,,,,,4,1,0.999641847648,,,,,,2016_Apr_11_1021,P13,PLC_L_D1S2,NHGY,60.0260865915,
stim/posf.jpg,stim/negf.jpg,stim/1.jpg,stim/6.jpg,stim/latef.jpg,AB,1,2,,,,,0,1,1,0,,,,,,4,0,1.13297763409,,,,,,2016_Apr_11_1021,P13,PLC_L_D1S2,NHGY,60.0260865915,
stim/negf.jpg,stim/posf.jpg,stim/6.jpg,stim/4.jpg,stim/latef.jpg,CD,2,4,,,,,0,2,2,38,,,,,,4,1,0.833068971403,,,,,,2016_Apr_11_1021,P13,PLC_L_D1S2,NHGY,60.0260865915,
stim/posf.jpg,stim/negf.jpg,stim/6.jpg,stim/1.jpg,stim/latef.jpg,AB,2,4,,,,,0,3,3,10,,,,,,4,1,1.382874939,,,,,,2016_Apr_11_1021,P13,PLC_L_D1S2,NHGY,60.0260865915,
stim/negf.jpg,stim/posf.jpg,stim/1.jpg,stim/2.jpg,stim/latef.jpg,EF,1,2,,,,,0,4,4,48,,,,,,4,0,1.06628499378,,,,,,2016_Apr_11_1021,P13,PLC_L_D1S2,NHGY,60.0260865915,
stim/negf.jpg,stim/posf.jpg,stim/1.jpg,stim/6.jpg,stim/latef.jpg,AB,1,2,,,,,0,5,5,6,,,,,,4,0,1.28289610268,,,,,,2016_Apr_11_1021,P13,PLC_L_D1S2,NHGY,60.0260865915,
stim/posf.jpg,stim/negf.jpg,stim/1.jpg,stim/3.jpg,stim/latef.jpg,CD,1,2,,,,,0,6,6,25,,,,,,2,1,1.56616259215,,,,,,2016_Apr_11_1021,P13,PLC_L_D1S2,NHGY,60.0260865915,
stim/negf.jpg,stim/posf.jpg,stim/6.jpg,stim/5.jpg,stim/latef.jpg,EF,2,4,,,,,0,7,7,59,,,,,,4,1,1.2495633568,,,,,,2016_Apr_11_1021,P13,PLC_L_D1S2,NHGY,60.0260865915,
stim/posf.jpg,stim/negf.jpg,stim/1.jpg,stim/2.jpg,stim/latef.jpg,EF,1,2,,,,,0,8,8,45,,,,,,4,0,1.6161690417,,,,,,2016_Apr_11_1021,P13,PLC_L_D1S2,NHGY,60.0260865915,
stim/posf.jpg,stim/negf.jpg,stim/1.jpg,stim/6.jpg,stim/latef.jpg,AB,1,2,,,,,0,9,9,4,,,,,,2,1,1.23294410665,,,,,,2016_Apr_11_1021,P13,PLC_L_D1S2,NHGY,60.0260865915,
stim/posf.jpg,stim/negf.jpg,stim/6.jpg,stim/1.jpg,stim/latef.jpg,AB,2,4,,,,,0,10,10,11,,,,,,2,0,1.26623841987,,,,,,2016_Apr_11_1021,P13,PLC_L_D1S2,NHGY,60.0260865915,
stim/posf.jpg,stim/negf.jpg,stim/6.jpg,stim/5.jpg,stim/latef.jpg,EF,2,4,,,,,0,11,11,51,,,,,,4,1,0.999659426398,,,,,,2016_Apr_11_1021,P13,PLC_L_D1S2,NHGY,60.0260865915,
stim/posf.jpg,stim/negf.jpg,stim/1.jpg,stim/3.jpg,stim/latef.jpg,CD,1,2,,,,,0,12,12,21,,,,,,4,0,0.999658283553,,,,,,2016_Apr_11_1021,P13,PLC_L_D1S2,NHGY,60.0260865915,
stim/posf.jpg,stim/negf.jpg,stim/6.jpg,stim/4.jpg,stim/latef.jpg,CD,2,4,,,,,0,13,13,31,,,,,,2,0,1.58280671722,,,,,,2016_Apr_11_1021,P13,PLC_L_D1S2,NHGY,60.0260865915,
stim/posf.jpg,stim/negf.jpg,stim/6.jpg,stim/5.jpg,stim/latef.jpg,EF,2,4,,,,,0,14,14,54,,,,,,4,1,0.333202482679,,,,,,2016_Apr_11_1021,P13,PLC_L_D1S2,NHGY,60.0260865915,
stim/posf.jpg,stim/negf.jpg,stim/1.jpg,stim/3.jpg,stim/latef.jpg,CD,1,2,,,,,0,15,15,24,,,,,,4,0,0.683097865814,,,,,,2016_Apr_11_1021,P13,PLC_L_D1S2,NHGY,60.0260865915,
stim/negf.jpg,stim/posf.jpg,stim/1.jpg,stim/3.jpg,stim/latef.jpg,CD,1,2,,,,,0,16,16,29,,,,,,2,1,0.932991161754,,,,,,2016_Apr_11_1021,P13,PLC_L_D1S2,NHGY,60.0260865915,
stim/posf.jpg,stim/negf.jpg,stim/1.jpg,stim/2.jpg,stim/latef.jpg,EF,1,2,,,,,0,17,17,40,,,,,,4,0,0.999672334522,,,,,,2016_Apr_11_1021,P13,PLC_L_D1S2,NHGY,60.0260865915,
stim/posf.jpg,stim/negf.jpg,stim/6.jpg,stim/5.jpg,stim/latef.jpg,EF,2,4,,,,,0,18,18,53,,,,,,2,0,1.03294944493,,,,,,2016_Apr_11_1021,P13,PLC_L_D1S2,NHGY,60.0260865915,
stim/negf.jpg,stim/posf.jpg,stim/1.jpg,stim/3.jpg,stim/latef.jpg,CD,1,2,,,,,0,19,19,27,,,,,,4,0,0.933005119491,,,,,,2016_Apr_11_1021,P13,PLC_L_D1S2,NHGY,60.0260865915,
stim/negf.jpg,stim/posf.jpg,stim/6.jpg,stim/5.jpg,stim/latef.jpg,EF,2,4,,,,,0,20,20,57,,,,,,4,1,0.683118012955,,,,,,2016_Apr_11_1021,P13,PLC_L_D1S2,NHGY,60.0260865915,
stim/negf.jpg,stim/posf.jpg,stim/1.jpg,stim/2.jpg,stim/latef.jpg,EF,1,2,,,,,0,21,21,46,,,,,,4,0,0.933034995845,,,,,,2016_Apr_11_1021,P13,PLC_L_D1S2,NHGY,60.0260865915,
stim/posf.jpg,stim/negf.jpg,stim/6.jpg,stim/1.jpg,stim/latef.jpg,AB,2,4,,,,,0,22,22,15,,,,,,4,1,0.899695732755,,,,,,2016_Apr_11_1021,P13,PLC_L_D1S2,NHGY,60.0260865915,
stim/negf.jpg,stim/posf.jpg,stim/6.jpg,stim/5.jpg,stim/latef.jpg,EF,2,4,,,,,0,23,23,55,,,,,,4,1,0.916274589385,,,,,,2016_Apr_11_1021,P13,PLC_L_D1S2,NHGY,60.0260865915,
stim/negf.jpg,stim/posf.jpg,stim/6.jpg,stim/1.jpg,stim/latef.jpg,AB,2,4,,,,,0,24,24,17,,,,,,4,1,1.08295223137,,,,,,2016_Apr_11_1021,P13,PLC_L_D1S2,NHGY,60.0260865915,
stim/negf.jpg,stim/posf.jpg,stim/1.jpg,stim/6.jpg,stim/latef.jpg,AB,1,2,,,,,0,25,25,8,,,,,,4,0,1.38284892426,,,,,,2016_Apr_11_1021,P13,PLC_L_D1S2,NHGY,60.0260865915,
stim/posf.jpg,stim/negf.jpg,stim/1.jpg,stim/6.jpg,stim/latef.jpg,AB,1,2,,,,,0,26,26,1,,,,,,4,0,1.33287299467,,,,,,2016_Apr_11_1021,P13,PLC_L_D1S2,NHGY,60.0260865915,
stim/negf.jpg,stim/posf.jpg,stim/1.jpg,stim/2.jpg,stim/latef.jpg,EF,1,2,,,,,0,27,27,47,,,,,,4,0,1.24959535644,,,,,,2016_Apr_11_1021,P13,PLC_L_D1S2,NHGY,60.0260865915,
stim/posf.jpg,stim/negf.jpg,stim/6.jpg,stim/4.jpg,stim/latef.jpg,CD,2,4,,,,,0,28,28,32,,,,,,4,1,1.31622477942,,,,,,2016_Apr_11_1021,P13,PLC_L_D1S2,NHGY,60.0260865915,
stim/posf.jpg,stim/negf.jpg,stim/6.jpg,stim/1.jpg,stim/latef.jpg,AB,2,4,,,,,0,29,29,13,,,,,,4,1,1.34955269828,,,,,,2016_Apr_11_1021,P13,PLC_L_D1S2,NHGY,60.0260865915,
stim/negf.jpg,stim/posf.jpg,stim/6.jpg,stim/4.jpg,stim/latef.jpg,CD,2,4,,,,,0,30,30,37,,,,,,4,1,1.59946797893,,,,,,2016_Apr_11_1021,P13,PLC_L_D1S2,NHGY,60.0260865915,
stim/posf.jpg,stim/negf.jpg,stim/6.jpg,stim/1.jpg,stim/latef.jpg,AB,2,4,,,,,0,31,31,14,,,,,,2,0,0.966342809668,,,,,,2016_Apr_11_1021,P13,PLC_L_D1S2,NHGY,60.0260865915,
stim/posf.jpg,stim/negf.jpg,stim/1.jpg,stim/6.jpg,stim/latef.jpg,AB,1,2,,,,,0,32,32,2,,,,,,4,0,1.34953699319,,,,,,2016_Apr_11_1021,P13,PLC_L_D1S2,NHGY,60.0260865915,
stim/posf.jpg,stim/negf.jpg,stim/1.jpg,stim/3.jpg,stim/latef.jpg,CD,1,2,,,,,0,33,33,22,,,,,,2,1,1.41620240975,,,,,,2016_Apr_11_1021,P13,PLC_L_D1S2,NHGY,60.0260865915,
stim/negf.jpg,stim/posf.jpg,stim/6.jpg,stim/4.jpg,stim/latef.jpg,CD,2,4,,,,,0,34,34,39,,,,,,4,1,1.08298761743,,,,,,2016_Apr_11_1021,P13,PLC_L_D1S2,NHGY,60.0260865915,
stim/posf.jpg,stim/negf.jpg,stim/1.jpg,stim/2.jpg,stim/latef.jpg,EF,1,2,,,,,0,35,35,42,,,,,,2,1,0.683091535057,,,,,,2016_Apr_11_1021,P13,PLC_L_D1S2,NHGY,60.0260865915,
stim/posf.jpg,stim/negf.jpg,stim/6.jpg,stim/5.jpg,stim/latef.jpg,EF,2,4,,,,,0,36,36,52,,,,,,2,0,1.28290485446,,,,,,2016_Apr_11_1021,P13,PLC_L_D1S2,NHGY,60.0260865915,
stim/negf.jpg,stim/posf.jpg,stim/1.jpg,stim/3.jpg,stim/latef.jpg,CD,1,2,,,,,0,37,37,28,,,,,,2,1,1.04965248663,,,,,,2016_Apr_11_1021,P13,PLC_L_D1S2,NHGY,60.0260865915,
stim/posf.jpg,stim/negf.jpg,stim/6.jpg,stim/4.jpg,stim/latef.jpg,CD,2,4,,,,,0,38,38,35,,,,,,4,1,0.866421181716,,,,,,2016_Apr_11_1021,P13,PLC_L_D1S2,NHGY,60.0260865915,
stim/posf.jpg,stim/negf.jpg,stim/6.jpg,stim/4.jpg,stim/latef.jpg,CD,2,4,,,,,0,39,39,30,,,,,,4,1,0.849678570542,,,,,,2016_Apr_11_1021,P13,PLC_L_D1S2,NHGY,60.0260865915,
stim/negf.jpg,stim/posf.jpg,stim/6.jpg,stim/1.jpg,stim/latef.jpg,AB,2,4,,,,,0,40,40,19,,,,,,4,1,0.883035210881,,,,,,2016_Apr_11_1021,P13,PLC_L_D1S2,NHGY,60.0260865915,
stim/negf.jpg,stim/posf.jpg,stim/1.jpg,stim/2.jpg,stim/latef.jpg,EF,1,2,,,,,0,41,41,49,,,,,,2,1,0.983014375026,,,,,,2016_Apr_11_1021,P13,PLC_L_D1S2,NHGY,60.0260865915,
stim/negf.jpg,stim/posf.jpg,stim/1.jpg,stim/6.jpg,stim/latef.jpg,AB,1,2,,,,,0,42,42,9,,,,,,4,0,1.03297878595,,,,,,2016_Apr_11_1021,P13,PLC_L_D1S2,NHGY,60.0260865915,
stim/negf.jpg,stim/posf.jpg,stim/6.jpg,stim/5.jpg,stim/latef.jpg,EF,2,4,,,,,0,43,43,56,,,,,,4,1,0.866364613933,,,,,,2016_Apr_11_1021,P13,PLC_L_D1S2,NHGY,60.0260865915,
stim/posf.jpg,stim/negf.jpg,stim/1.jpg,stim/2.jpg,stim/latef.jpg,EF,1,2,,,,,0,44,44,44,,,,,,2,1,1.34955914933,,,,,,2016_Apr_11_1021,P13,PLC_L_D1S2,NHGY,60.0260865915,
stim/negf.jpg,stim/posf.jpg,stim/6.jpg,stim/5.jpg,stim/latef.jpg,EF,2,4,,,,,0,45,45,58,,,,,,2,0,1.03296223576,,,,,,2016_Apr_11_1021,P13,PLC_L_D1S2,NHGY,60.0260865915,
stim/posf.jpg,stim/negf.jpg,stim/6.jpg,stim/1.jpg,stim/latef.jpg,AB,2,4,,,,,0,46,46,12,,,,,,2,0,1.06628506295,,,,,,2016_Apr_11_1021,P13,PLC_L_D1S2,NHGY,60.0260865915,
stim/posf.jpg,stim/negf.jpg,stim/6.jpg,stim/4.jpg,stim/latef.jpg,CD,2,4,,,,,0,47,47,33,,,,,,4,1,0.683099868798,,,,,,2016_Apr_11_1021,P13,PLC_L_D1S2,NHGY,60.0260865915,
stim/negf.jpg,stim/posf.jpg,stim/6.jpg,stim/1.jpg,stim/latef.jpg,AB,2,4,,,,,0,48,48,18,,,,,,4,1,0.816379965639,,,,,,2016_Apr_11_1021,P13,PLC_L_D1S2,NHGY,60.0260865915,
stim/posf.jpg,stim/negf.jpg,stim/6.jpg,stim/5.jpg,stim/latef.jpg,EF,2,4,,,,,0,49,49,50,,,,,,4,1,0.816401418029,,,,,,2016_Apr_11_1021,P13,PLC_L_D1S2,NHGY,60.0260865915,
stim/negf.jpg,stim/posf.jpg,stim/6.jpg,stim/1.jpg,stim/latef.jpg,AB,2,4,,,,,0,50,50,16,,,,,,4,1,1.18293985857,,,,,,2016_Apr_11_1021,P13,PLC_L_D1S2,NHGY,60.0260865915,
stim/posf.jpg,stim/negf.jpg,stim/1.jpg,stim/2.jpg,stim/latef.jpg,EF,1,2,,,,,0,51,51,43,,,,,,4,0,1.1496353169,,,,,,2016_Apr_11_1021,P13,PLC_L_D1S2,NHGY,60.0260865915,
stim/negf.jpg,stim/posf.jpg,stim/1.jpg,stim/6.jpg,stim/latef.jpg,AB,1,2,,,,,0,52,52,7,,,,,,4,0,1.1163514998,,,,,,2016_Apr_11_1021,P13,PLC_L_D1S2,NHGY,60.0260865915,
stim/posf.jpg,stim/negf.jpg,stim/1.jpg,stim/6.jpg,stim/latef.jpg,AB,1,2,,,,,0,53,53,5,,,,,,4,0,1.04963755146,,,,,,2016_Apr_11_1021,P13,PLC_L_D1S2,NHGY,60.0260865915,
stim/posf.jpg,stim/negf.jpg,stim/1.jpg,stim/2.jpg,stim/latef.jpg,EF,1,2,,,,,0,54,54,41,,,,,,4,0,1.38287689086,,,,,,2016_Apr_11_1021,P13,PLC_L_D1S2,NHGY,60.0260865915,
stim/posf.jpg,stim/negf.jpg,stim/1.jpg,stim/3.jpg,stim/latef.jpg,CD,1,2,,,,,0,55,55,23,,,,,,2,1,0.966358292199,,,,,,2016_Apr_11_1021,P13,PLC_L_D1S2,NHGY,60.0260865915,
stim/posf.jpg,stim/negf.jpg,stim/1.jpg,stim/3.jpg,stim/latef.jpg,CD,1,2,,,,,0,56,56,20,,,,,,2,1,0.966336178163,,,,,,2016_Apr_11_1021,P13,PLC_L_D1S2,NHGY,60.0260865915,
stim/posf.jpg,stim/negf.jpg,stim/1.jpg,stim/6.jpg,stim/latef.jpg,AB,1,2,,,,,0,57,57,3,,,,,,4,0,0.949668718022,,,,,,2016_Apr_11_1021,P13,PLC_L_D1S2,NHGY,60.0260865915,
stim/posf.jpg,stim/negf.jpg,stim/6.jpg,stim/4.jpg,stim/latef.jpg,CD,2,4,,,,,0,58,58,34,,,,,,4,1,0.999656418912,,,,,,2016_Apr_11_1021,P13,PLC_L_D1S2,NHGY,60.0260865915,
stim/negf.jpg,stim/posf.jpg,stim/1.jpg,stim/3.jpg,stim/latef.jpg,CD,1,2,,,,,0,59,59,26,,,,,,2,1,0.999709928084,,,,,,2016_Apr_11_1021,P13,PLC_L_D1S2,NHGY,60.0260865915,
