fb_corr,fb_incorr,symbol2,symbol1,fb_late,pair,position,correct,block_01.thisRepN,block_01.thisTrialN,block_01.thisN,block_01.thisIndex,block_02.thisRepN,block_02.thisTrialN,block_02.thisN,block_02.thisIndex,mouse.x,mouse.y,mouse.leftButton,mouse.midButton,mouse.rightButton,buttonBox_2.keys,buttonBox_2.corr,buttonBox_2.rt,mouse_2.x,mouse_2.y,mouse_2.leftButton,mouse_2.midButton,mouse_2.rightButton,date,Participant,expName,Group,frameRate,
,,,,,,,,,,,,,,,,0.9984375,0.71484375,1,0,0,,,,,,,,,2016_Feb_18_1539,P15,PLC_L_D1S2,NHGY,60.0161718746,
stim/posf.jpg,stim/negf.jpg,stim/4.jpg,stim/2.jpg,stim/latef.jpg,CD,1,2,0,0,0,21,,,,,,,,,,2,1,1.09966470453,,,,,,2016_Feb_18_1539,P15,PLC_L_D1S2,NHGY,60.0161718746,
stim/posf.jpg,stim/negf.jpg,stim/6.jpg,stim/5.jpg,stim/latef.jpg,AB,2,4,0,1,1,14,,,,,,,,,,2,0,1.0163155002,,,,,,2016_Feb_18_1539,P15,PLC_L_D1S2,NHGY,60.0161718746,
stim/posf.jpg,stim/negf.jpg,stim/3.jpg,stim/1.jpg,stim/latef.jpg,EF,2,4,0,2,2,51,,,,,,,,,,2,0,1.51614518633,,,,,,2016_Feb_18_1539,P15,PLC_L_D1S2,NHGY,60.0161718746,
stim/posf.jpg,stim/negf.jpg,stim/1.jpg,stim/3.jpg,stim/latef.jpg,EF,1,2,0,3,3,45,,,,,,,,,,None,0,,,,,,,2016_Feb_18_1539,P15,PLC_L_D1S2,NHGY,60.0161718746,
stim/posf.jpg,stim/negf.jpg,stim/6.jpg,stim/5.jpg,stim/latef.jpg,AB,2,4,0,4,4,12,,,,,,,,,,4,1,1.18293808416,,,,,,2016_Feb_18_1539,P15,PLC_L_D1S2,NHGY,60.0161718746,
stim/posf.jpg,stim/negf.jpg,stim/4.jpg,stim/2.jpg,stim/latef.jpg,CD,1,2,0,5,5,25,,,,,,,,,,2,1,0.899681266752,,,,,,2016_Feb_18_1539,P15,PLC_L_D1S2,NHGY,60.0161718746,
stim/posf.jpg,stim/negf.jpg,stim/6.jpg,stim/5.jpg,stim/latef.jpg,AB,2,4,0,6,6,13,,,,,,,,,,4,1,0.949684546415,,,,,,2016_Feb_18_1539,P15,PLC_L_D1S2,NHGY,60.0161718746,
stim/negf.jpg,stim/posf.jpg,stim/1.jpg,stim/3.jpg,stim/latef.jpg,EF,1,2,0,7,7,48,,,,,,,,,,2,1,1.11621753138,,,,,,2016_Feb_18_1539,P15,PLC_L_D1S2,NHGY,60.0161718746,
stim/posf.jpg,stim/negf.jpg,stim/3.jpg,stim/1.jpg,stim/latef.jpg,EF,2,4,0,8,8,52,,,,,,,,,,4,1,0.883036263501,,,,,,2016_Feb_18_1539,P15,PLC_L_D1S2,NHGY,60.0161718746,
stim/negf.jpg,stim/posf.jpg,stim/3.jpg,stim/1.jpg,stim/latef.jpg,EF,2,4,0,9,9,56,,,,,,,,,,4,1,0.783076241997,,,,,,2016_Feb_18_1539,P15,PLC_L_D1S2,NHGY,60.0161718746,
stim/negf.jpg,stim/posf.jpg,stim/4.jpg,stim/2.jpg,stim/latef.jpg,CD,1,2,0,10,10,28,,,,,,,,,,2,1,0.899692992935,,,,,,2016_Feb_18_1539,P15,PLC_L_D1S2,NHGY,60.0161718746,
stim/posf.jpg,stim/negf.jpg,stim/4.jpg,stim/2.jpg,stim/latef.jpg,CD,1,2,0,11,11,23,,,,,,,,,,2,1,0.716416741165,,,,,,2016_Feb_18_1539,P15,PLC_L_D1S2,NHGY,60.0161718746,
stim/posf.jpg,stim/negf.jpg,stim/2.jpg,stim/4.jpg,stim/latef.jpg,CD,2,4,0,12,12,32,,,,,,,,,,4,1,0.866371422879,,,,,,2016_Feb_18_1539,P15,PLC_L_D1S2,NHGY,60.0161718746,
stim/posf.jpg,stim/negf.jpg,stim/5.jpg,stim/6.jpg,stim/latef.jpg,AB,1,2,0,13,13,4,,,,,,,,,,2,1,0.849733553381,,,,,,2016_Feb_18_1539,P15,PLC_L_D1S2,NHGY,60.0161718746,
stim/negf.jpg,stim/posf.jpg,stim/6.jpg,stim/5.jpg,stim/latef.jpg,AB,2,4,0,14,14,19,,,,,,,,,,4,1,0.749707863445,,,,,,2016_Feb_18_1539,P15,PLC_L_D1S2,NHGY,60.0161718746,
stim/negf.jpg,stim/posf.jpg,stim/5.jpg,stim/6.jpg,stim/latef.jpg,AB,1,2,0,15,15,6,,,,,,,,,,2,1,0.549775447646,,,,,,2016_Feb_18_1539,P15,PLC_L_D1S2,NHGY,60.0161718746,
stim/negf.jpg,stim/posf.jpg,stim/5.jpg,stim/6.jpg,stim/latef.jpg,AB,1,2,0,16,16,9,,,,,,,,,,2,1,0.599791683553,,,,,,2016_Feb_18_1539,P15,PLC_L_D1S2,NHGY,60.0161718746,
stim/negf.jpg,stim/posf.jpg,stim/5.jpg,stim/6.jpg,stim/latef.jpg,AB,1,2,0,17,17,8,,,,,,,,,,2,1,0.549807681868,,,,,,2016_Feb_18_1539,P15,PLC_L_D1S2,NHGY,60.0161718746,
stim/posf.jpg,stim/negf.jpg,stim/2.jpg,stim/4.jpg,stim/latef.jpg,CD,2,4,0,18,18,35,,,,,,,,,,4,1,0.79977405969,,,,,,2016_Feb_18_1539,P15,PLC_L_D1S2,NHGY,60.0161718746,
stim/posf.jpg,stim/negf.jpg,stim/1.jpg,stim/3.jpg,stim/latef.jpg,EF,1,2,0,19,19,40,,,,,,,,,,2,1,1.04965638132,,,,,,2016_Feb_18_1539,P15,PLC_L_D1S2,NHGY,60.0161718746,
stim/negf.jpg,stim/posf.jpg,stim/1.jpg,stim/3.jpg,stim/latef.jpg,EF,1,2,0,20,20,49,,,,,,,,,,2,1,0.499818140397,,,,,,2016_Feb_18_1539,P15,PLC_L_D1S2,NHGY,60.0161718746,
stim/posf.jpg,stim/negf.jpg,stim/5.jpg,stim/6.jpg,stim/latef.jpg,AB,1,2,0,21,21,5,,,,,,,,,,4,0,1.26621987271,,,,,,2016_Feb_18_1539,P15,PLC_L_D1S2,NHGY,60.0161718746,
stim/negf.jpg,stim/posf.jpg,stim/5.jpg,stim/6.jpg,stim/latef.jpg,AB,1,2,0,22,22,7,,,,,,,,,,2,1,0.683103014628,,,,,,2016_Feb_18_1539,P15,PLC_L_D1S2,NHGY,60.0161718746,
stim/posf.jpg,stim/negf.jpg,stim/1.jpg,stim/3.jpg,stim/latef.jpg,EF,1,2,0,23,23,44,,,,,,,,,,2,1,0.883022053135,,,,,,2016_Feb_18_1539,P15,PLC_L_D1S2,NHGY,60.0161718746,
stim/posf.jpg,stim/negf.jpg,stim/6.jpg,stim/5.jpg,stim/latef.jpg,AB,2,4,0,24,24,11,,,,,,,,,,4,1,1.21625222873,,,,,,2016_Feb_18_1539,P15,PLC_L_D1S2,NHGY,60.0161718746,
stim/posf.jpg,stim/negf.jpg,stim/1.jpg,stim/3.jpg,stim/latef.jpg,EF,1,2,0,25,25,42,,,,,,,,,,2,1,0.749752073473,,,,,,2016_Feb_18_1539,P15,PLC_L_D1S2,NHGY,60.0161718746,
stim/posf.jpg,stim/negf.jpg,stim/5.jpg,stim/6.jpg,stim/latef.jpg,AB,1,2,0,26,26,2,,,,,,,,,,2,1,1.41620034962,,,,,,2016_Feb_18_1539,P15,PLC_L_D1S2,NHGY,60.0161718746,
stim/posf.jpg,stim/negf.jpg,stim/5.jpg,stim/6.jpg,stim/latef.jpg,AB,1,2,0,27,27,1,,,,,,,,,,2,1,0.483113823529,,,,,,2016_Feb_18_1539,P15,PLC_L_D1S2,NHGY,60.0161718746,
stim/posf.jpg,stim/negf.jpg,stim/4.jpg,stim/2.jpg,stim/latef.jpg,CD,1,2,0,28,28,24,,,,,,,,,,2,1,0.749684146419,,,,,,2016_Feb_18_1539,P15,PLC_L_D1S2,NHGY,60.0161718746,
stim/posf.jpg,stim/negf.jpg,stim/5.jpg,stim/6.jpg,stim/latef.jpg,AB,1,2,0,29,29,3,,,,,,,,,,2,1,0.433138266862,,,,,,2016_Feb_18_1539,P15,PLC_L_D1S2,NHGY,60.0161718746,
stim/posf.jpg,stim/negf.jpg,stim/2.jpg,stim/4.jpg,stim/latef.jpg,CD,2,4,0,30,30,31,,,,,,,,,,4,1,0.783071532275,,,,,,2016_Feb_18_1539,P15,PLC_L_D1S2,NHGY,60.0161718746,
stim/posf.jpg,stim/negf.jpg,stim/1.jpg,stim/3.jpg,stim/latef.jpg,EF,1,2,0,31,31,41,,,,,,,,,,2,1,0.966338445807,,,,,,2016_Feb_18_1539,P15,PLC_L_D1S2,NHGY,60.0161718746,
stim/negf.jpg,stim/posf.jpg,stim/1.jpg,stim/3.jpg,stim/latef.jpg,EF,1,2,0,32,32,46,,,,,,,,,,2,1,0.649758548588,,,,,,2016_Feb_18_1539,P15,PLC_L_D1S2,NHGY,60.0161718746,
stim/posf.jpg,stim/negf.jpg,stim/4.jpg,stim/2.jpg,stim/latef.jpg,CD,1,2,0,33,33,20,,,,,,,,,,2,1,0.949666597746,,,,,,2016_Feb_18_1539,P15,PLC_L_D1S2,NHGY,60.0161718746,
stim/negf.jpg,stim/posf.jpg,stim/2.jpg,stim/4.jpg,stim/latef.jpg,CD,2,4,0,34,34,36,,,,,,,,,,4,1,0.533158224531,,,,,,2016_Feb_18_1539,P15,PLC_L_D1S2,NHGY,60.0161718746,
stim/negf.jpg,stim/posf.jpg,stim/3.jpg,stim/1.jpg,stim/latef.jpg,EF,2,4,0,35,35,59,,,,,,,,,,4,1,1.24955205167,,,,,,2016_Feb_18_1539,P15,PLC_L_D1S2,NHGY,60.0161718746,
stim/negf.jpg,stim/posf.jpg,stim/2.jpg,stim/4.jpg,stim/latef.jpg,CD,2,4,0,36,36,37,,,,,,,,,,4,1,0.683111724305,,,,,,2016_Feb_18_1539,P15,PLC_L_D1S2,NHGY,60.0161718746,
stim/negf.jpg,stim/posf.jpg,stim/6.jpg,stim/5.jpg,stim/latef.jpg,AB,2,4,0,37,37,16,,,,,,,,,,4,1,0.816391947459,,,,,,2016_Feb_18_1539,P15,PLC_L_D1S2,NHGY,60.0161718746,
stim/posf.jpg,stim/negf.jpg,stim/3.jpg,stim/1.jpg,stim/latef.jpg,EF,2,4,0,38,38,50,,,,,,,,,,4,1,1.16628622384,,,,,,2016_Feb_18_1539,P15,PLC_L_D1S2,NHGY,60.0161718746,
stim/negf.jpg,stim/posf.jpg,stim/4.jpg,stim/2.jpg,stim/latef.jpg,CD,1,2,0,39,39,27,,,,,,,,,,2,1,1.31628118781,,,,,,2016_Feb_18_1539,P15,PLC_L_D1S2,NHGY,60.0161718746,
stim/negf.jpg,stim/posf.jpg,stim/4.jpg,stim/2.jpg,stim/latef.jpg,CD,1,2,0,40,40,26,,,,,,,,,,2,1,0.633101909377,,,,,,2016_Feb_18_1539,P15,PLC_L_D1S2,NHGY,60.0161718746,
stim/posf.jpg,stim/negf.jpg,stim/2.jpg,stim/4.jpg,stim/latef.jpg,CD,2,4,0,41,41,33,,,,,,,,,,4,1,0.583164361304,,,,,,2016_Feb_18_1539,P15,PLC_L_D1S2,NHGY,60.0161718746,
stim/posf.jpg,stim/negf.jpg,stim/2.jpg,stim/4.jpg,stim/latef.jpg,CD,2,4,0,42,42,30,,,,,,,,,,4,1,0.533075768319,,,,,,2016_Feb_18_1539,P15,PLC_L_D1S2,NHGY,60.0161718746,
stim/negf.jpg,stim/posf.jpg,stim/1.jpg,stim/3.jpg,stim/latef.jpg,EF,1,2,0,43,43,47,,,,,,,,,,2,1,1.38286929396,,,,,,2016_Feb_18_1539,P15,PLC_L_D1S2,NHGY,60.0161718746,
stim/negf.jpg,stim/posf.jpg,stim/6.jpg,stim/5.jpg,stim/latef.jpg,AB,2,4,0,44,44,18,,,,,,,,,,4,1,0.833090583188,,,,,,2016_Feb_18_1539,P15,PLC_L_D1S2,NHGY,60.0161718746,
stim/negf.jpg,stim/posf.jpg,stim/3.jpg,stim/1.jpg,stim/latef.jpg,EF,2,4,0,45,45,57,,,,,,,,,,2,0,1.36626376093,,,,,,2016_Feb_18_1539,P15,PLC_L_D1S2,NHGY,60.0161718746,
stim/posf.jpg,stim/negf.jpg,stim/3.jpg,stim/1.jpg,stim/latef.jpg,EF,2,4,0,46,46,54,,,,,,,,,,2,0,0.499855625689,,,,,,2016_Feb_18_1539,P15,PLC_L_D1S2,NHGY,60.0161718746,
stim/negf.jpg,stim/posf.jpg,stim/3.jpg,stim/1.jpg,stim/latef.jpg,EF,2,4,0,47,47,58,,,,,,,,,,2,0,0.616343223197,,,,,,2016_Feb_18_1539,P15,PLC_L_D1S2,NHGY,60.0161718746,
stim/posf.jpg,stim/negf.jpg,stim/4.jpg,stim/2.jpg,stim/latef.jpg,CD,1,2,0,48,48,22,,,,,,,,,,2,1,0.699779885189,,,,,,2016_Feb_18_1539,P15,PLC_L_D1S2,NHGY,60.0161718746,
stim/posf.jpg,stim/negf.jpg,stim/3.jpg,stim/1.jpg,stim/latef.jpg,EF,2,4,0,49,49,53,,,,,,,,,,2,0,0.799648758849,,,,,,2016_Feb_18_1539,P15,PLC_L_D1S2,NHGY,60.0161718746,
stim/posf.jpg,stim/negf.jpg,stim/2.jpg,stim/4.jpg,stim/latef.jpg,CD,2,4,0,50,50,34,,,,,,,,,,4,1,0.733049122003,,,,,,2016_Feb_18_1539,P15,PLC_L_D1S2,NHGY,60.0161718746,
stim/negf.jpg,stim/posf.jpg,stim/3.jpg,stim/1.jpg,stim/latef.jpg,EF,2,4,0,51,51,55,,,,,,,,,,2,0,0.566460751194,,,,,,2016_Feb_18_1539,P15,PLC_L_D1S2,NHGY,60.0161718746,
stim/posf.jpg,stim/negf.jpg,stim/1.jpg,stim/3.jpg,stim/latef.jpg,EF,1,2,0,52,52,43,,,,,,,,,,4,0,0.699759383165,,,,,,2016_Feb_18_1539,P15,PLC_L_D1S2,NHGY,60.0161718746,
stim/negf.jpg,stim/posf.jpg,stim/2.jpg,stim/4.jpg,stim/latef.jpg,CD,2,4,0,53,53,39,,,,,,,,,,4,1,0.716426936538,,,,,,2016_Feb_18_1539,P15,PLC_L_D1S2,NHGY,60.0161718746,
stim/posf.jpg,stim/negf.jpg,stim/6.jpg,stim/5.jpg,stim/latef.jpg,AB,2,4,0,54,54,15,,,,,,,,,,4,1,0.799794943666,,,,,,2016_Feb_18_1539,P15,PLC_L_D1S2,NHGY,60.0161718746,
stim/posf.jpg,stim/negf.jpg,stim/6.jpg,stim/5.jpg,stim/latef.jpg,AB,2,4,0,55,55,10,,,,,,,,,,4,1,0.649762747037,,,,,,2016_Feb_18_1539,P15,PLC_L_D1S2,NHGY,60.0161718746,
stim/negf.jpg,stim/posf.jpg,stim/6.jpg,stim/5.jpg,stim/latef.jpg,AB,2,4,0,56,56,17,,,,,,,,,,4,1,0.716395517344,,,,,,2016_Feb_18_1539,P15,PLC_L_D1S2,NHGY,60.0161718746,
stim/posf.jpg,stim/negf.jpg,stim/5.jpg,stim/6.jpg,stim/latef.jpg,AB,1,2,0,57,57,0,,,,,,,,,,2,1,0.683084975733,,,,,,2016_Feb_18_1539,P15,PLC_L_D1S2,NHGY,60.0161718746,
stim/negf.jpg,stim/posf.jpg,stim/2.jpg,stim/4.jpg,stim/latef.jpg,CD,2,4,0,58,58,38,,,,,,,,,,4,1,0.748715243061,,,,,,2016_Feb_18_1539,P15,PLC_L_D1S2,NHGY,60.0161718746,
stim/negf.jpg,stim/posf.jpg,stim/4.jpg,stim/2.jpg,stim/latef.jpg,CD,1,2,0,59,59,29,,,,,,,,,,2,1,0.649732464672,,,,,,2016_Feb_18_1539,P15,PLC_L_D1S2,NHGY,60.0161718746,
,,,,,,,,,,,,,,,,,,,,,,,,0.9984375,0.71484375,1,0,0,2016_Feb_18_1539,P15,PLC_L_D1S2,NHGY,60.0161718746,
stim/posf.jpg,stim/negf.jpg,stim/1.jpg,stim/3.jpg,stim/latef.jpg,EF,1,2,,,,,0,0,0,42,,,,,,4,0,1.04963586426,,,,,,2016_Feb_18_1539,P15,PLC_L_D1S2,NHGY,60.0161718746,
stim/negf.jpg,stim/posf.jpg,stim/1.jpg,stim/3.jpg,stim/latef.jpg,EF,1,2,,,,,0,1,1,46,,,,,,4,0,0.483142256291,,,,,,2016_Feb_18_1539,P15,PLC_L_D1S2,NHGY,60.0161718746,
stim/negf.jpg,stim/posf.jpg,stim/3.jpg,stim/1.jpg,stim/latef.jpg,EF,2,4,,,,,0,2,2,57,,,,,,2,0,0.649753613305,,,,,,2016_Feb_18_1539,P15,PLC_L_D1S2,NHGY,60.0161718746,
stim/negf.jpg,stim/posf.jpg,stim/5.jpg,stim/6.jpg,stim/latef.jpg,AB,1,2,,,,,0,3,3,8,,,,,,2,1,0.733109292752,,,,,,2016_Feb_18_1539,P15,PLC_L_D1S2,NHGY,60.0161718746,
stim/posf.jpg,stim/negf.jpg,stim/3.jpg,stim/1.jpg,stim/latef.jpg,EF,2,4,,,,,0,4,4,54,,,,,,2,0,0.64975700274,,,,,,2016_Feb_18_1539,P15,PLC_L_D1S2,NHGY,60.0161718746,
stim/posf.jpg,stim/negf.jpg,stim/6.jpg,stim/5.jpg,stim/latef.jpg,AB,2,4,,,,,0,5,5,14,,,,,,4,1,0.716399796995,,,,,,2016_Feb_18_1539,P15,PLC_L_D1S2,NHGY,60.0161718746,
stim/posf.jpg,stim/negf.jpg,stim/3.jpg,stim/1.jpg,stim/latef.jpg,EF,2,4,,,,,0,6,6,52,,,,,,2,0,0.866386162563,,,,,,2016_Feb_18_1539,P15,PLC_L_D1S2,NHGY,60.0161718746,
stim/posf.jpg,stim/negf.jpg,stim/4.jpg,stim/2.jpg,stim/latef.jpg,CD,1,2,,,,,0,7,7,25,,,,,,2,1,0.649824268147,,,,,,2016_Feb_18_1539,P15,PLC_L_D1S2,NHGY,60.0161718746,
stim/negf.jpg,stim/posf.jpg,stim/6.jpg,stim/5.jpg,stim/latef.jpg,AB,2,4,,,,,0,8,8,18,,,,,,4,1,0.599810606647,,,,,,2016_Feb_18_1539,P15,PLC_L_D1S2,NHGY,60.0161718746,
stim/posf.jpg,stim/negf.jpg,stim/5.jpg,stim/6.jpg,stim/latef.jpg,AB,1,2,,,,,0,9,9,5,,,,,,2,1,0.566480994576,,,,,,2016_Feb_18_1539,P15,PLC_L_D1S2,NHGY,60.0161718746,
stim/posf.jpg,stim/negf.jpg,stim/2.jpg,stim/4.jpg,stim/latef.jpg,CD,2,4,,,,,0,10,10,31,,,,,,4,1,0.61645502344,,,,,,2016_Feb_18_1539,P15,PLC_L_D1S2,NHGY,60.0161718746,
stim/negf.jpg,stim/posf.jpg,stim/3.jpg,stim/1.jpg,stim/latef.jpg,EF,2,4,,,,,0,11,11,59,,,,,,2,0,0.73308386146,,,,,,2016_Feb_18_1539,P15,PLC_L_D1S2,NHGY,60.0161718746,
stim/negf.jpg,stim/posf.jpg,stim/6.jpg,stim/5.jpg,stim/latef.jpg,AB,2,4,,,,,0,12,12,19,,,,,,4,1,0.866350400559,,,,,,2016_Feb_18_1539,P15,PLC_L_D1S2,NHGY,60.0161718746,
stim/posf.jpg,stim/negf.jpg,stim/1.jpg,stim/3.jpg,stim/latef.jpg,EF,1,2,,,,,0,13,13,41,,,,,,4,0,1.24957565441,,,,,,2016_Feb_18_1539,P15,PLC_L_D1S2,NHGY,60.0161718746,
stim/posf.jpg,stim/negf.jpg,stim/5.jpg,stim/6.jpg,stim/latef.jpg,AB,1,2,,,,,0,14,14,1,,,,,,2,1,0.633108883734,,,,,,2016_Feb_18_1539,P15,PLC_L_D1S2,NHGY,60.0161718746,
stim/posf.jpg,stim/negf.jpg,stim/6.jpg,stim/5.jpg,stim/latef.jpg,AB,2,4,,,,,0,15,15,13,,,,,,4,1,0.533158116262,,,,,,2016_Feb_18_1539,P15,PLC_L_D1S2,NHGY,60.0161718746,
stim/posf.jpg,stim/negf.jpg,stim/4.jpg,stim/2.jpg,stim/latef.jpg,CD,1,2,,,,,0,16,16,21,,,,,,2,1,0.616471678891,,,,,,2016_Feb_18_1539,P15,PLC_L_D1S2,NHGY,60.0161718746,
stim/negf.jpg,stim/posf.jpg,stim/3.jpg,stim/1.jpg,stim/latef.jpg,EF,2,4,,,,,0,17,17,56,,,,,,2,0,0.63312368056,,,,,,2016_Feb_18_1539,P15,PLC_L_D1S2,NHGY,60.0161718746,
stim/negf.jpg,stim/posf.jpg,stim/4.jpg,stim/2.jpg,stim/latef.jpg,CD,1,2,,,,,0,18,18,28,,,,,,4,0,0.666453421954,,,,,,2016_Feb_18_1539,P15,PLC_L_D1S2,NHGY,60.0161718746,
stim/posf.jpg,stim/negf.jpg,stim/4.jpg,stim/2.jpg,stim/latef.jpg,CD,1,2,,,,,0,19,19,22,,,,,,2,1,0.666396303802,,,,,,2016_Feb_18_1539,P15,PLC_L_D1S2,NHGY,60.0161718746,
stim/posf.jpg,stim/negf.jpg,stim/2.jpg,stim/4.jpg,stim/latef.jpg,CD,2,4,,,,,0,20,20,34,,,,,,4,1,0.616443754394,,,,,,2016_Feb_18_1539,P15,PLC_L_D1S2,NHGY,60.0161718746,
stim/negf.jpg,stim/posf.jpg,stim/1.jpg,stim/3.jpg,stim/latef.jpg,EF,1,2,,,,,0,21,21,45,,,,,,4,0,0.549782560347,,,,,,2016_Feb_18_1539,P15,PLC_L_D1S2,NHGY,60.0161718746,
stim/posf.jpg,stim/negf.jpg,stim/4.jpg,stim/2.jpg,stim/latef.jpg,CD,1,2,,,,,0,22,22,24,,,,,,2,1,0.783081694567,,,,,,2016_Feb_18_1539,P15,PLC_L_D1S2,NHGY,60.0161718746,
stim/negf.jpg,stim/posf.jpg,stim/4.jpg,stim/2.jpg,stim/latef.jpg,CD,1,2,,,,,0,23,23,29,,,,,,2,1,0.749762464333,,,,,,2016_Feb_18_1539,P15,PLC_L_D1S2,NHGY,60.0161718746,
stim/posf.jpg,stim/negf.jpg,stim/5.jpg,stim/6.jpg,stim/latef.jpg,AB,1,2,,,,,0,24,24,4,,,,,,2,1,0.733080072029,,,,,,2016_Feb_18_1539,P15,PLC_L_D1S2,NHGY,60.0161718746,
stim/negf.jpg,stim/posf.jpg,stim/1.jpg,stim/3.jpg,stim/latef.jpg,EF,1,2,,,,,0,25,25,47,,,,,,4,0,0.699746884057,,,,,,2016_Feb_18_1539,P15,PLC_L_D1S2,NHGY,60.0161718746,
stim/posf.jpg,stim/negf.jpg,stim/3.jpg,stim/1.jpg,stim/latef.jpg,EF,2,4,,,,,0,26,26,51,,,,,,2,0,0.583073099176,,,,,,2016_Feb_18_1539,P15,PLC_L_D1S2,NHGY,60.0161718746,
stim/posf.jpg,stim/negf.jpg,stim/6.jpg,stim/5.jpg,stim/latef.jpg,AB,2,4,,,,,0,27,27,15,,,,,,4,1,0.799738709714,,,,,,2016_Feb_18_1539,P15,PLC_L_D1S2,NHGY,60.0161718746,
stim/posf.jpg,stim/negf.jpg,stim/3.jpg,stim/1.jpg,stim/latef.jpg,EF,2,4,,,,,0,28,28,53,,,,,,2,0,1.39950866118,,,,,,2016_Feb_18_1539,P15,PLC_L_D1S2,NHGY,60.0161718746,
stim/negf.jpg,stim/posf.jpg,stim/2.jpg,stim/4.jpg,stim/latef.jpg,CD,2,4,,,,,0,29,29,38,,,,,,4,1,0.966352538881,,,,,,2016_Feb_18_1539,P15,PLC_L_D1S2,NHGY,60.0161718746,
stim/negf.jpg,stim/posf.jpg,stim/5.jpg,stim/6.jpg,stim/latef.jpg,AB,1,2,,,,,0,30,30,9,,,,,,2,1,0.933005648809,,,,,,2016_Feb_18_1539,P15,PLC_L_D1S2,NHGY,60.0161718746,
stim/posf.jpg,stim/negf.jpg,stim/4.jpg,stim/2.jpg,stim/latef.jpg,CD,1,2,,,,,0,31,31,23,,,,,,2,1,0.633132083473,,,,,,2016_Feb_18_1539,P15,PLC_L_D1S2,NHGY,60.0161718746,
stim/negf.jpg,stim/posf.jpg,stim/1.jpg,stim/3.jpg,stim/latef.jpg,EF,1,2,,,,,0,32,32,48,,,,,,4,0,1.48283343872,,,,,,2016_Feb_18_1539,P15,PLC_L_D1S2,NHGY,60.0161718746,
stim/negf.jpg,stim/posf.jpg,stim/4.jpg,stim/2.jpg,stim/latef.jpg,CD,1,2,,,,,0,33,33,26,,,,,,2,1,1.03293182107,,,,,,2016_Feb_18_1539,P15,PLC_L_D1S2,NHGY,60.0161718746,
stim/posf.jpg,stim/negf.jpg,stim/3.jpg,stim/1.jpg,stim/latef.jpg,EF,2,4,,,,,0,34,34,50,,,,,,2,0,0.949674702916,,,,,,2016_Feb_18_1539,P15,PLC_L_D1S2,NHGY,60.0161718746,
stim/posf.jpg,stim/negf.jpg,stim/5.jpg,stim/6.jpg,stim/latef.jpg,AB,1,2,,,,,0,35,35,2,,,,,,2,1,0.933011453255,,,,,,2016_Feb_18_1539,P15,PLC_L_D1S2,NHGY,60.0161718746,
stim/negf.jpg,stim/posf.jpg,stim/3.jpg,stim/1.jpg,stim/latef.jpg,EF,2,4,,,,,0,36,36,58,,,,,,2,0,0.883032179336,,,,,,2016_Feb_18_1539,P15,PLC_L_D1S2,NHGY,60.0161718746,
stim/posf.jpg,stim/negf.jpg,stim/1.jpg,stim/3.jpg,stim/latef.jpg,EF,1,2,,,,,0,37,37,43,,,,,,4,0,0.88299165047,,,,,,2016_Feb_18_1539,P15,PLC_L_D1S2,NHGY,60.0161718746,
stim/negf.jpg,stim/posf.jpg,stim/6.jpg,stim/5.jpg,stim/latef.jpg,AB,2,4,,,,,0,38,38,16,,,,,,4,1,0.799744054014,,,,,,2016_Feb_18_1539,P15,PLC_L_D1S2,NHGY,60.0161718746,
stim/negf.jpg,stim/posf.jpg,stim/2.jpg,stim/4.jpg,stim/latef.jpg,CD,2,4,,,,,0,39,39,37,,,,,,4,1,0.649753306542,,,,,,2016_Feb_18_1539,P15,PLC_L_D1S2,NHGY,60.0161718746,
stim/posf.jpg,stim/negf.jpg,stim/2.jpg,stim/4.jpg,stim/latef.jpg,CD,2,4,,,,,0,40,40,30,,,,,,4,1,0.583114337808,,,,,,2016_Feb_18_1539,P15,PLC_L_D1S2,NHGY,60.0161718746,
stim/posf.jpg,stim/negf.jpg,stim/5.jpg,stim/6.jpg,stim/latef.jpg,AB,1,2,,,,,0,41,41,0,,,,,,2,1,0.833040842396,,,,,,2016_Feb_18_1539,P15,PLC_L_D1S2,NHGY,60.0161718746,
stim/posf.jpg,stim/negf.jpg,stim/1.jpg,stim/3.jpg,stim/latef.jpg,EF,1,2,,,,,0,42,42,44,,,,,,4,0,0.633134200742,,,,,,2016_Feb_18_1539,P15,PLC_L_D1S2,NHGY,60.0161718746,
stim/negf.jpg,stim/posf.jpg,stim/5.jpg,stim/6.jpg,stim/latef.jpg,AB,1,2,,,,,0,43,43,6,,,,,,2,1,0.683082208848,,,,,,2016_Feb_18_1539,P15,PLC_L_D1S2,NHGY,60.0161718746,
stim/posf.jpg,stim/negf.jpg,stim/4.jpg,stim/2.jpg,stim/latef.jpg,CD,1,2,,,,,0,44,44,20,,,,,,2,1,0.916398894749,,,,,,2016_Feb_18_1539,P15,PLC_L_D1S2,NHGY,60.0161718746,
stim/posf.jpg,stim/negf.jpg,stim/1.jpg,stim/3.jpg,stim/latef.jpg,EF,1,2,,,,,0,45,45,40,,,,,,4,0,0.649764356041,,,,,,2016_Feb_18_1539,P15,PLC_L_D1S2,NHGY,60.0161718746,
stim/posf.jpg,stim/negf.jpg,stim/6.jpg,stim/5.jpg,stim/latef.jpg,AB,2,4,,,,,0,46,46,11,,,,,,4,1,1.66610368154,,,,,,2016_Feb_18_1539,P15,PLC_L_D1S2,NHGY,60.0161718746,
stim/posf.jpg,stim/negf.jpg,stim/3.jpg,stim/1.jpg,stim/latef.jpg,EF,2,4,,,,,0,47,47,55,,,,,,2,0,1.18291043334,,,,,,2016_Feb_18_1539,P15,PLC_L_D1S2,NHGY,60.0161718746,
stim/posf.jpg,stim/negf.jpg,stim/5.jpg,stim/6.jpg,stim/latef.jpg,AB,1,2,,,,,0,48,48,3,,,,,,2,1,0.616432316929,,,,,,2016_Feb_18_1539,P15,PLC_L_D1S2,NHGY,60.0161718746,
stim/posf.jpg,stim/negf.jpg,stim/6.jpg,stim/5.jpg,stim/latef.jpg,AB,2,4,,,,,0,49,49,10,,,,,,4,1,0.883037430405,,,,,,2016_Feb_18_1539,P15,PLC_L_D1S2,NHGY,60.0161718746,
stim/posf.jpg,stim/negf.jpg,stim/2.jpg,stim/4.jpg,stim/latef.jpg,CD,2,4,,,,,0,50,50,33,,,,,,4,1,0.766400234584,,,,,,2016_Feb_18_1539,P15,PLC_L_D1S2,NHGY,60.0161718746,
stim/negf.jpg,stim/posf.jpg,stim/6.jpg,stim/5.jpg,stim/latef.jpg,AB,2,4,,,,,0,51,51,17,,,,,,4,1,1.03302107721,,,,,,2016_Feb_18_1539,P15,PLC_L_D1S2,NHGY,60.0161718746,
stim/negf.jpg,stim/posf.jpg,stim/1.jpg,stim/3.jpg,stim/latef.jpg,EF,1,2,,,,,0,52,52,49,,,,,,4,0,0.94972177607,,,,,,2016_Feb_18_1539,P15,PLC_L_D1S2,NHGY,60.0161718746,
stim/posf.jpg,stim/negf.jpg,stim/2.jpg,stim/4.jpg,stim/latef.jpg,CD,2,4,,,,,0,53,53,32,,,,,,4,1,0.982968977041,,,,,,2016_Feb_18_1539,P15,PLC_L_D1S2,NHGY,60.0161718746,
stim/posf.jpg,stim/negf.jpg,stim/6.jpg,stim/5.jpg,stim/latef.jpg,AB,2,4,,,,,0,54,54,12,,,,,,4,1,0.799663841385,,,,,,2016_Feb_18_1539,P15,PLC_L_D1S2,NHGY,60.0161718746,
stim/negf.jpg,stim/posf.jpg,stim/5.jpg,stim/6.jpg,stim/latef.jpg,AB,1,2,,,,,0,55,55,7,,,,,,2,1,0.583134857878,,,,,,2016_Feb_18_1539,P15,PLC_L_D1S2,NHGY,60.0161718746,
stim/negf.jpg,stim/posf.jpg,stim/4.jpg,stim/2.jpg,stim/latef.jpg,CD,1,2,,,,,0,56,56,27,,,,,,2,1,0.733148768999,,,,,,2016_Feb_18_1539,P15,PLC_L_D1S2,NHGY,60.0161718746,
stim/negf.jpg,stim/posf.jpg,stim/2.jpg,stim/4.jpg,stim/latef.jpg,CD,2,4,,,,,0,57,57,39,,,,,,4,1,0.666442498768,,,,,,2016_Feb_18_1539,P15,PLC_L_D1S2,NHGY,60.0161718746,
stim/posf.jpg,stim/negf.jpg,stim/2.jpg,stim/4.jpg,stim/latef.jpg,CD,2,4,,,,,0,58,58,35,,,,,,4,1,0.616447925776,,,,,,2016_Feb_18_1539,P15,PLC_L_D1S2,NHGY,60.0161718746,
stim/negf.jpg,stim/posf.jpg,stim/2.jpg,stim/4.jpg,stim/latef.jpg,CD,2,4,,,,,0,59,59,36,,,,,,4,1,0.583141483366,,,,,,2016_Feb_18_1539,P15,PLC_L_D1S2,NHGY,60.0161718746,
