fb_corr,fb_incorr,symbol2,symbol1,fb_late,pair,position,correct,block_01.thisRepN,block_01.thisTrialN,block_01.thisN,block_01.thisIndex,block_02.thisRepN,block_02.thisTrialN,block_02.thisN,block_02.thisIndex,mouse.x,mouse.y,mouse.leftButton,mouse.midButton,mouse.rightButton,buttonBox_2.keys,buttonBox_2.corr,buttonBox_2.rt,mouse_2.x,mouse_2.y,mouse_2.leftButton,mouse_2.midButton,mouse_2.rightButton,date,Participant,expName,Group,frameRate,
,,,,,,,,,,,,,,,,0.9984375,0.119140625,1,0,0,,,,,,,,,2016_Mai_02_1012,P16,PLC_L_D1S2,NHGY,60.0188799024,
stim/posf.jpg,stim/negf.jpg,stim/6.jpg,stim/4.jpg,stim/latef.jpg,AB,2,4,0,0,0,10,,,,,,,,,,4,1,0.96637851144,,,,,,2016_Mai_02_1012,P16,PLC_L_D1S2,NHGY,60.0188799024,
stim/negf.jpg,stim/posf.jpg,stim/2.jpg,stim/5.jpg,stim/latef.jpg,CD,2,4,0,1,1,37,,,,,,,,,,4,1,1.23290120225,,,,,,2016_Mai_02_1012,P16,PLC_L_D1S2,NHGY,60.0188799024,
stim/negf.jpg,stim/posf.jpg,stim/5.jpg,stim/2.jpg,stim/latef.jpg,CD,1,2,0,2,2,28,,,,,,,,,,2,1,1.18292808626,,,,,,2016_Mai_02_1012,P16,PLC_L_D1S2,NHGY,60.0188799024,
stim/negf.jpg,stim/posf.jpg,stim/4.jpg,stim/6.jpg,stim/latef.jpg,AB,1,2,0,3,3,9,,,,,,,,,,2,1,0.89968690461,,,,,,2016_Mai_02_1012,P16,PLC_L_D1S2,NHGY,60.0188799024,
stim/posf.jpg,stim/negf.jpg,stim/4.jpg,stim/6.jpg,stim/latef.jpg,AB,1,2,0,4,4,2,,,,,,,,,,4,0,1.1329118157,,,,,,2016_Mai_02_1012,P16,PLC_L_D1S2,NHGY,60.0188799024,
stim/negf.jpg,stim/posf.jpg,stim/6.jpg,stim/4.jpg,stim/latef.jpg,AB,2,4,0,5,5,19,,,,,,,,,,4,1,0.833052752987,,,,,,2016_Mai_02_1012,P16,PLC_L_D1S2,NHGY,60.0188799024,
stim/negf.jpg,stim/posf.jpg,stim/3.jpg,stim/1.jpg,stim/latef.jpg,EF,1,2,0,6,6,49,,,,,,,,,,4,0,1.08297773099,,,,,,2016_Mai_02_1012,P16,PLC_L_D1S2,NHGY,60.0188799024,
stim/posf.jpg,stim/negf.jpg,stim/1.jpg,stim/3.jpg,stim/latef.jpg,EF,2,4,0,7,7,51,,,,,,,,,,2,0,0.616441142548,,,,,,2016_Mai_02_1012,P16,PLC_L_D1S2,NHGY,60.0188799024,
stim/posf.jpg,stim/negf.jpg,stim/6.jpg,stim/4.jpg,stim/latef.jpg,AB,2,4,0,8,8,11,,,,,,,,,,4,1,0.799743704182,,,,,,2016_Mai_02_1012,P16,PLC_L_D1S2,NHGY,60.0188799024,
stim/posf.jpg,stim/negf.jpg,stim/6.jpg,stim/4.jpg,stim/latef.jpg,AB,2,4,0,9,9,13,,,,,,,,,,4,1,0.983003760874,,,,,,2016_Mai_02_1012,P16,PLC_L_D1S2,NHGY,60.0188799024,
stim/posf.jpg,stim/negf.jpg,stim/4.jpg,stim/6.jpg,stim/latef.jpg,AB,1,2,0,10,10,1,,,,,,,,,,2,1,0.549883420425,,,,,,2016_Mai_02_1012,P16,PLC_L_D1S2,NHGY,60.0188799024,
stim/posf.jpg,stim/negf.jpg,stim/5.jpg,stim/2.jpg,stim/latef.jpg,CD,1,2,0,11,11,22,,,,,,,,,,2,1,0.849714757032,,,,,,2016_Mai_02_1012,P16,PLC_L_D1S2,NHGY,60.0188799024,
stim/posf.jpg,stim/negf.jpg,stim/3.jpg,stim/1.jpg,stim/latef.jpg,EF,1,2,0,12,12,40,,,,,,,,,,4,0,1.03295857625,,,,,,2016_Mai_02_1012,P16,PLC_L_D1S2,NHGY,60.0188799024,
stim/posf.jpg,stim/negf.jpg,stim/5.jpg,stim/2.jpg,stim/latef.jpg,CD,1,2,0,13,13,23,,,,,,,,,,2,1,0.783062145398,,,,,,2016_Mai_02_1012,P16,PLC_L_D1S2,NHGY,60.0188799024,
stim/posf.jpg,stim/negf.jpg,stim/6.jpg,stim/4.jpg,stim/latef.jpg,AB,2,4,0,14,14,12,,,,,,,,,,4,1,0.783087140699,,,,,,2016_Mai_02_1012,P16,PLC_L_D1S2,NHGY,60.0188799024,
stim/posf.jpg,stim/negf.jpg,stim/2.jpg,stim/5.jpg,stim/latef.jpg,CD,2,4,0,15,15,33,,,,,,,,,,4,1,0.899680498643,,,,,,2016_Mai_02_1012,P16,PLC_L_D1S2,NHGY,60.0188799024,
stim/negf.jpg,stim/posf.jpg,stim/1.jpg,stim/3.jpg,stim/latef.jpg,EF,2,4,0,16,16,59,,,,,,,,,,2,0,1.09961290817,,,,,,2016_Mai_02_1012,P16,PLC_L_D1S2,NHGY,60.0188799024,
stim/posf.jpg,stim/negf.jpg,stim/2.jpg,stim/5.jpg,stim/latef.jpg,CD,2,4,0,17,17,31,,,,,,,,,,4,1,0.783058539409,,,,,,2016_Mai_02_1012,P16,PLC_L_D1S2,NHGY,60.0188799024,
stim/posf.jpg,stim/negf.jpg,stim/2.jpg,stim/5.jpg,stim/latef.jpg,CD,2,4,0,18,18,32,,,,,,,,,,4,1,0.883034211773,,,,,,2016_Mai_02_1012,P16,PLC_L_D1S2,NHGY,60.0188799024,
stim/posf.jpg,stim/negf.jpg,stim/6.jpg,stim/4.jpg,stim/latef.jpg,AB,2,4,0,19,19,15,,,,,,,,,,4,1,0.932994972971,,,,,,2016_Mai_02_1012,P16,PLC_L_D1S2,NHGY,60.0188799024,
stim/posf.jpg,stim/negf.jpg,stim/3.jpg,stim/1.jpg,stim/latef.jpg,EF,1,2,0,20,20,45,,,,,,,,,,4,0,1.06626542357,,,,,,2016_Mai_02_1012,P16,PLC_L_D1S2,NHGY,60.0188799024,
stim/negf.jpg,stim/posf.jpg,stim/1.jpg,stim/3.jpg,stim/latef.jpg,EF,2,4,0,21,21,55,,,,,,,,,,2,0,1.59946818746,,,,,,2016_Mai_02_1012,P16,PLC_L_D1S2,NHGY,60.0188799024,
stim/posf.jpg,stim/negf.jpg,stim/4.jpg,stim/6.jpg,stim/latef.jpg,AB,1,2,0,22,22,5,,,,,,,,,,2,1,0.683088506102,,,,,,2016_Mai_02_1012,P16,PLC_L_D1S2,NHGY,60.0188799024,
stim/posf.jpg,stim/negf.jpg,stim/4.jpg,stim/6.jpg,stim/latef.jpg,AB,1,2,0,23,23,4,,,,,,,,,,2,1,0.549761998783,,,,,,2016_Mai_02_1012,P16,PLC_L_D1S2,NHGY,60.0188799024,
stim/negf.jpg,stim/posf.jpg,stim/4.jpg,stim/6.jpg,stim/latef.jpg,AB,1,2,0,24,24,6,,,,,,,,,,2,1,0.483172502462,,,,,,2016_Mai_02_1012,P16,PLC_L_D1S2,NHGY,60.0188799024,
stim/negf.jpg,stim/posf.jpg,stim/6.jpg,stim/4.jpg,stim/latef.jpg,AB,2,4,0,25,25,16,,,,,,,,,,4,1,0.683106905963,,,,,,2016_Mai_02_1012,P16,PLC_L_D1S2,NHGY,60.0188799024,
stim/posf.jpg,stim/negf.jpg,stim/6.jpg,stim/4.jpg,stim/latef.jpg,AB,2,4,0,26,26,14,,,,,,,,,,4,1,0.549818269035,,,,,,2016_Mai_02_1012,P16,PLC_L_D1S2,NHGY,60.0188799024,
stim/negf.jpg,stim/posf.jpg,stim/1.jpg,stim/3.jpg,stim/latef.jpg,EF,2,4,0,27,27,56,,,,,,,,,,2,0,0.966283372306,,,,,,2016_Mai_02_1012,P16,PLC_L_D1S2,NHGY,60.0188799024,
stim/posf.jpg,stim/negf.jpg,stim/2.jpg,stim/5.jpg,stim/latef.jpg,CD,2,4,0,28,28,30,,,,,,,,,,4,1,0.883052743964,,,,,,2016_Mai_02_1012,P16,PLC_L_D1S2,NHGY,60.0188799024,
stim/negf.jpg,stim/posf.jpg,stim/2.jpg,stim/5.jpg,stim/latef.jpg,CD,2,4,0,29,29,38,,,,,,,,,,4,1,0.749755965744,,,,,,2016_Mai_02_1012,P16,PLC_L_D1S2,NHGY,60.0188799024,
stim/negf.jpg,stim/posf.jpg,stim/3.jpg,stim/1.jpg,stim/latef.jpg,EF,1,2,0,30,30,48,,,,,,,,,,4,0,1.03299722258,,,,,,2016_Mai_02_1012,P16,PLC_L_D1S2,NHGY,60.0188799024,
stim/posf.jpg,stim/negf.jpg,stim/3.jpg,stim/1.jpg,stim/latef.jpg,EF,1,2,0,31,31,43,,,,,,,,,,4,0,0.716445966572,,,,,,2016_Mai_02_1012,P16,PLC_L_D1S2,NHGY,60.0188799024,
stim/negf.jpg,stim/posf.jpg,stim/2.jpg,stim/5.jpg,stim/latef.jpg,CD,2,4,0,32,32,39,,,,,,,,,,4,1,0.76642330208,,,,,,2016_Mai_02_1012,P16,PLC_L_D1S2,NHGY,60.0188799024,
stim/posf.jpg,stim/negf.jpg,stim/5.jpg,stim/2.jpg,stim/latef.jpg,CD,1,2,0,33,33,24,,,,,,,,,,2,1,0.849754188314,,,,,,2016_Mai_02_1012,P16,PLC_L_D1S2,NHGY,60.0188799024,
stim/negf.jpg,stim/posf.jpg,stim/1.jpg,stim/3.jpg,stim/latef.jpg,EF,2,4,0,34,34,57,,,,,,,,,,2,0,0.899701084954,,,,,,2016_Mai_02_1012,P16,PLC_L_D1S2,NHGY,60.0188799024,
stim/posf.jpg,stim/negf.jpg,stim/3.jpg,stim/1.jpg,stim/latef.jpg,EF,1,2,0,35,35,42,,,,,,,,,,4,0,0.966331832091,,,,,,2016_Mai_02_1012,P16,PLC_L_D1S2,NHGY,60.0188799024,
stim/negf.jpg,stim/posf.jpg,stim/4.jpg,stim/6.jpg,stim/latef.jpg,AB,1,2,0,36,36,8,,,,,,,,,,2,1,0.91636759122,,,,,,2016_Mai_02_1012,P16,PLC_L_D1S2,NHGY,60.0188799024,
stim/posf.jpg,stim/negf.jpg,stim/4.jpg,stim/6.jpg,stim/latef.jpg,AB,1,2,0,37,37,0,,,,,,,,,,2,1,0.633140595935,,,,,,2016_Mai_02_1012,P16,PLC_L_D1S2,NHGY,60.0188799024,
stim/posf.jpg,stim/negf.jpg,stim/3.jpg,stim/1.jpg,stim/latef.jpg,EF,1,2,0,38,38,41,,,,,,,,,,4,0,1.01633542605,,,,,,2016_Mai_02_1012,P16,PLC_L_D1S2,NHGY,60.0188799024,
stim/posf.jpg,stim/negf.jpg,stim/5.jpg,stim/2.jpg,stim/latef.jpg,CD,1,2,0,39,39,25,,,,,,,,,,2,1,0.916301495477,,,,,,2016_Mai_02_1012,P16,PLC_L_D1S2,NHGY,60.0188799024,
stim/posf.jpg,stim/negf.jpg,stim/1.jpg,stim/3.jpg,stim/latef.jpg,EF,2,4,0,40,40,54,,,,,,,,,,2,0,1.21627320998,,,,,,2016_Mai_02_1012,P16,PLC_L_D1S2,NHGY,60.0188799024,
stim/posf.jpg,stim/negf.jpg,stim/2.jpg,stim/5.jpg,stim/latef.jpg,CD,2,4,0,41,41,34,,,,,,,,,,4,1,0.766408246554,,,,,,2016_Mai_02_1012,P16,PLC_L_D1S2,NHGY,60.0188799024,
stim/negf.jpg,stim/posf.jpg,stim/5.jpg,stim/2.jpg,stim/latef.jpg,CD,1,2,0,42,42,26,,,,,,,,,,2,1,0.599807643552,,,,,,2016_Mai_02_1012,P16,PLC_L_D1S2,NHGY,60.0188799024,
stim/posf.jpg,stim/negf.jpg,stim/1.jpg,stim/3.jpg,stim/latef.jpg,EF,2,4,0,43,43,52,,,,,,,,,,2,0,0.816466330329,,,,,,2016_Mai_02_1012,P16,PLC_L_D1S2,NHGY,60.0188799024,
stim/negf.jpg,stim/posf.jpg,stim/3.jpg,stim/1.jpg,stim/latef.jpg,EF,1,2,0,44,44,47,,,,,,,,,,4,0,0.933066506267,,,,,,2016_Mai_02_1012,P16,PLC_L_D1S2,NHGY,60.0188799024,
stim/posf.jpg,stim/negf.jpg,stim/5.jpg,stim/2.jpg,stim/latef.jpg,CD,1,2,0,45,45,21,,,,,,,,,,2,1,0.783070972399,,,,,,2016_Mai_02_1012,P16,PLC_L_D1S2,NHGY,60.0188799024,
stim/negf.jpg,stim/posf.jpg,stim/5.jpg,stim/2.jpg,stim/latef.jpg,CD,1,2,0,46,46,29,,,,,,,,,,2,1,0.449842295923,,,,,,2016_Mai_02_1012,P16,PLC_L_D1S2,NHGY,60.0188799024,
stim/posf.jpg,stim/negf.jpg,stim/5.jpg,stim/2.jpg,stim/latef.jpg,CD,1,2,0,47,47,20,,,,,,,,,,2,1,0.53316797618,,,,,,2016_Mai_02_1012,P16,PLC_L_D1S2,NHGY,60.0188799024,
stim/negf.jpg,stim/posf.jpg,stim/6.jpg,stim/4.jpg,stim/latef.jpg,AB,2,4,0,48,48,17,,,,,,,,,,4,1,0.766426820851,,,,,,2016_Mai_02_1012,P16,PLC_L_D1S2,NHGY,60.0188799024,
stim/posf.jpg,stim/negf.jpg,stim/4.jpg,stim/6.jpg,stim/latef.jpg,AB,1,2,0,49,49,3,,,,,,,,,,2,1,0.583155687551,,,,,,2016_Mai_02_1012,P16,PLC_L_D1S2,NHGY,60.0188799024,
stim/posf.jpg,stim/negf.jpg,stim/3.jpg,stim/1.jpg,stim/latef.jpg,EF,1,2,0,50,50,44,,,,,,,,,,4,0,0.883018506628,,,,,,2016_Mai_02_1012,P16,PLC_L_D1S2,NHGY,60.0188799024,
stim/posf.jpg,stim/negf.jpg,stim/2.jpg,stim/5.jpg,stim/latef.jpg,CD,2,4,0,51,51,35,,,,,,,,,,4,1,0.83303852753,,,,,,2016_Mai_02_1012,P16,PLC_L_D1S2,NHGY,60.0188799024,
stim/negf.jpg,stim/posf.jpg,stim/1.jpg,stim/3.jpg,stim/latef.jpg,EF,2,4,0,52,52,58,,,,,,,,,,4,1,1.04964850791,,,,,,2016_Mai_02_1012,P16,PLC_L_D1S2,NHGY,60.0188799024,
stim/negf.jpg,stim/posf.jpg,stim/3.jpg,stim/1.jpg,stim/latef.jpg,EF,1,2,0,53,53,46,,,,,,,,,,4,0,0.916330211051,,,,,,2016_Mai_02_1012,P16,PLC_L_D1S2,NHGY,60.0188799024,
stim/negf.jpg,stim/posf.jpg,stim/6.jpg,stim/4.jpg,stim/latef.jpg,AB,2,4,0,54,54,18,,,,,,,,,,4,1,0.883086608371,,,,,,2016_Mai_02_1012,P16,PLC_L_D1S2,NHGY,60.0188799024,
stim/negf.jpg,stim/posf.jpg,stim/5.jpg,stim/2.jpg,stim/latef.jpg,CD,1,2,0,55,55,27,,,,,,,,,,2,1,0.566510095413,,,,,,2016_Mai_02_1012,P16,PLC_L_D1S2,NHGY,60.0188799024,
stim/posf.jpg,stim/negf.jpg,stim/1.jpg,stim/3.jpg,stim/latef.jpg,EF,2,4,0,56,56,50,,,,,,,,,,2,0,1.06631851791,,,,,,2016_Mai_02_1012,P16,PLC_L_D1S2,NHGY,60.0188799024,
stim/negf.jpg,stim/posf.jpg,stim/2.jpg,stim/5.jpg,stim/latef.jpg,CD,2,4,0,57,57,36,,,,,,,,,,4,1,0.849709021736,,,,,,2016_Mai_02_1012,P16,PLC_L_D1S2,NHGY,60.0188799024,
stim/posf.jpg,stim/negf.jpg,stim/1.jpg,stim/3.jpg,stim/latef.jpg,EF,2,4,0,58,58,53,,,,,,,,,,2,0,0.749761255931,,,,,,2016_Mai_02_1012,P16,PLC_L_D1S2,NHGY,60.0188799024,
stim/negf.jpg,stim/posf.jpg,stim/4.jpg,stim/6.jpg,stim/latef.jpg,AB,1,2,0,59,59,7,,,,,,,,,,2,1,1.09969550906,,,,,,2016_Mai_02_1012,P16,PLC_L_D1S2,NHGY,60.0188799024,
,,,,,,,,,,,,,,,,,,,,,,,,0.9984375,0.119140625,1,0,0,2016_Mai_02_1012,P16,PLC_L_D1S2,NHGY,60.0188799024,
stim/posf.jpg,stim/negf.jpg,stim/2.jpg,stim/5.jpg,stim/latef.jpg,CD,2,4,,,,,0,0,0,30,,,,,,4,1,0.982997222578,,,,,,2016_Mai_02_1012,P16,PLC_L_D1S2,NHGY,60.0188799024,
stim/negf.jpg,stim/posf.jpg,stim/3.jpg,stim/1.jpg,stim/latef.jpg,EF,1,2,,,,,0,1,1,47,,,,,,4,0,0.883048322945,,,,,,2016_Mai_02_1012,P16,PLC_L_D1S2,NHGY,60.0188799024,
stim/posf.jpg,stim/negf.jpg,stim/6.jpg,stim/4.jpg,stim/latef.jpg,AB,2,4,,,,,0,2,2,14,,,,,,4,1,0.716403909745,,,,,,2016_Mai_02_1012,P16,PLC_L_D1S2,NHGY,60.0188799024,
stim/negf.jpg,stim/posf.jpg,stim/6.jpg,stim/4.jpg,stim/latef.jpg,AB,2,4,,,,,0,3,3,19,,,,,,4,1,0.716440709469,,,,,,2016_Mai_02_1012,P16,PLC_L_D1S2,NHGY,60.0188799024,
stim/posf.jpg,stim/negf.jpg,stim/3.jpg,stim/1.jpg,stim/latef.jpg,EF,1,2,,,,,0,4,4,44,,,,,,4,0,0.816368400237,,,,,,2016_Mai_02_1012,P16,PLC_L_D1S2,NHGY,60.0188799024,
stim/posf.jpg,stim/negf.jpg,stim/5.jpg,stim/2.jpg,stim/latef.jpg,CD,1,2,,,,,0,5,5,21,,,,,,2,1,0.583145585371,,,,,,2016_Mai_02_1012,P16,PLC_L_D1S2,NHGY,60.0188799024,
stim/negf.jpg,stim/posf.jpg,stim/2.jpg,stim/5.jpg,stim/latef.jpg,CD,2,4,,,,,0,6,6,38,,,,,,4,1,0.933022446447,,,,,,2016_Mai_02_1012,P16,PLC_L_D1S2,NHGY,60.0188799024,
stim/posf.jpg,stim/negf.jpg,stim/6.jpg,stim/4.jpg,stim/latef.jpg,AB,2,4,,,,,0,7,7,11,,,,,,4,1,0.899700988714,,,,,,2016_Mai_02_1012,P16,PLC_L_D1S2,NHGY,60.0188799024,
stim/negf.jpg,stim/posf.jpg,stim/5.jpg,stim/2.jpg,stim/latef.jpg,CD,1,2,,,,,0,8,8,29,,,,,,2,1,0.683095471462,,,,,,2016_Mai_02_1012,P16,PLC_L_D1S2,NHGY,60.0188799024,
stim/posf.jpg,stim/negf.jpg,stim/1.jpg,stim/3.jpg,stim/latef.jpg,EF,2,4,,,,,0,9,9,52,,,,,,2,0,0.833061005556,,,,,,2016_Mai_02_1012,P16,PLC_L_D1S2,NHGY,60.0188799024,
stim/negf.jpg,stim/posf.jpg,stim/3.jpg,stim/1.jpg,stim/latef.jpg,EF,1,2,,,,,0,10,10,49,,,,,,4,0,0.899727809565,,,,,,2016_Mai_02_1012,P16,PLC_L_D1S2,NHGY,60.0188799024,
stim/negf.jpg,stim/posf.jpg,stim/1.jpg,stim/3.jpg,stim/latef.jpg,EF,2,4,,,,,0,11,11,56,,,,,,2,0,0.649796019579,,,,,,2016_Mai_02_1012,P16,PLC_L_D1S2,NHGY,60.0188799024,
stim/posf.jpg,stim/negf.jpg,stim/3.jpg,stim/1.jpg,stim/latef.jpg,EF,1,2,,,,,0,12,12,41,,,,,,4,0,0.866403266141,,,,,,2016_Mai_02_1012,P16,PLC_L_D1S2,NHGY,60.0188799024,
stim/posf.jpg,stim/negf.jpg,stim/6.jpg,stim/4.jpg,stim/latef.jpg,AB,2,4,,,,,0,13,13,12,,,,,,4,1,1.11631240968,,,,,,2016_Mai_02_1012,P16,PLC_L_D1S2,NHGY,60.0188799024,
stim/posf.jpg,stim/negf.jpg,stim/1.jpg,stim/3.jpg,stim/latef.jpg,EF,2,4,,,,,0,14,14,50,,,,,,2,0,0.933010789393,,,,,,2016_Mai_02_1012,P16,PLC_L_D1S2,NHGY,60.0188799024,
stim/posf.jpg,stim/negf.jpg,stim/4.jpg,stim/6.jpg,stim/latef.jpg,AB,1,2,,,,,0,15,15,2,,,,,,2,1,0.899706224765,,,,,,2016_Mai_02_1012,P16,PLC_L_D1S2,NHGY,60.0188799024,
stim/posf.jpg,stim/negf.jpg,stim/1.jpg,stim/3.jpg,stim/latef.jpg,EF,2,4,,,,,0,16,16,53,,,,,,2,0,0.799755616876,,,,,,2016_Mai_02_1012,P16,PLC_L_D1S2,NHGY,60.0188799024,
stim/negf.jpg,stim/posf.jpg,stim/3.jpg,stim/1.jpg,stim/latef.jpg,EF,1,2,,,,,0,17,17,46,,,,,,2,1,0.683126908821,,,,,,2016_Mai_02_1012,P16,PLC_L_D1S2,NHGY,60.0188799024,
stim/posf.jpg,stim/negf.jpg,stim/5.jpg,stim/2.jpg,stim/latef.jpg,CD,1,2,,,,,0,18,18,25,,,,,,2,1,0.633084737708,,,,,,2016_Mai_02_1012,P16,PLC_L_D1S2,NHGY,60.0188799024,
stim/negf.jpg,stim/posf.jpg,stim/2.jpg,stim/5.jpg,stim/latef.jpg,CD,2,4,,,,,0,19,19,39,,,,,,4,1,0.599782949001,,,,,,2016_Mai_02_1012,P16,PLC_L_D1S2,NHGY,60.0188799024,
stim/negf.jpg,stim/posf.jpg,stim/4.jpg,stim/6.jpg,stim/latef.jpg,AB,1,2,,,,,0,20,20,7,,,,,,2,1,0.96637777761,,,,,,2016_Mai_02_1012,P16,PLC_L_D1S2,NHGY,60.0188799024,
stim/negf.jpg,stim/posf.jpg,stim/1.jpg,stim/3.jpg,stim/latef.jpg,EF,2,4,,,,,0,21,21,58,,,,,,2,0,0.999672246073,,,,,,2016_Mai_02_1012,P16,PLC_L_D1S2,NHGY,60.0188799024,
stim/negf.jpg,stim/posf.jpg,stim/2.jpg,stim/5.jpg,stim/latef.jpg,CD,2,4,,,,,0,22,22,36,,,,,,4,1,0.733098626326,,,,,,2016_Mai_02_1012,P16,PLC_L_D1S2,NHGY,60.0188799024,
stim/posf.jpg,stim/negf.jpg,stim/4.jpg,stim/6.jpg,stim/latef.jpg,AB,1,2,,,,,0,23,23,0,,,,,,2,1,0.98301499688,,,,,,2016_Mai_02_1012,P16,PLC_L_D1S2,NHGY,60.0188799024,
stim/posf.jpg,stim/negf.jpg,stim/2.jpg,stim/5.jpg,stim/latef.jpg,CD,2,4,,,,,0,24,24,33,,,,,,4,1,0.666442459831,,,,,,2016_Mai_02_1012,P16,PLC_L_D1S2,NHGY,60.0188799024,
stim/posf.jpg,stim/negf.jpg,stim/6.jpg,stim/4.jpg,stim/latef.jpg,AB,2,4,,,,,0,25,25,13,,,,,,4,1,0.932971842317,,,,,,2016_Mai_02_1012,P16,PLC_L_D1S2,NHGY,60.0188799024,
stim/posf.jpg,stim/negf.jpg,stim/1.jpg,stim/3.jpg,stim/latef.jpg,EF,2,4,,,,,0,26,26,51,,,,,,2,0,0.899687629417,,,,,,2016_Mai_02_1012,P16,PLC_L_D1S2,NHGY,60.0188799024,
stim/negf.jpg,stim/posf.jpg,stim/4.jpg,stim/6.jpg,stim/latef.jpg,AB,1,2,,,,,0,27,27,6,,,,,,2,1,1.09965202668,,,,,,2016_Mai_02_1012,P16,PLC_L_D1S2,NHGY,60.0188799024,
stim/posf.jpg,stim/negf.jpg,stim/6.jpg,stim/4.jpg,stim/latef.jpg,AB,2,4,,,,,0,28,28,10,,,,,,4,1,0.733105029285,,,,,,2016_Mai_02_1012,P16,PLC_L_D1S2,NHGY,60.0188799024,
stim/posf.jpg,stim/negf.jpg,stim/5.jpg,stim/2.jpg,stim/latef.jpg,CD,1,2,,,,,0,29,29,24,,,,,,2,1,0.783049934963,,,,,,2016_Mai_02_1012,P16,PLC_L_D1S2,NHGY,60.0188799024,
stim/posf.jpg,stim/negf.jpg,stim/3.jpg,stim/1.jpg,stim/latef.jpg,EF,1,2,,,,,0,30,30,43,,,,,,4,0,0.866388388057,,,,,,2016_Mai_02_1012,P16,PLC_L_D1S2,NHGY,60.0188799024,
stim/posf.jpg,stim/negf.jpg,stim/4.jpg,stim/6.jpg,stim/latef.jpg,AB,1,2,,,,,0,31,31,5,,,,,,2,1,1.08297684378,,,,,,2016_Mai_02_1012,P16,PLC_L_D1S2,NHGY,60.0188799024,
stim/negf.jpg,stim/posf.jpg,stim/3.jpg,stim/1.jpg,stim/latef.jpg,EF,1,2,,,,,0,32,32,48,,,,,,2,1,0.949626992278,,,,,,2016_Mai_02_1012,P16,PLC_L_D1S2,NHGY,60.0188799024,
stim/posf.jpg,stim/negf.jpg,stim/6.jpg,stim/4.jpg,stim/latef.jpg,AB,2,4,,,,,0,33,33,15,,,,,,4,1,0.849716519425,,,,,,2016_Mai_02_1012,P16,PLC_L_D1S2,NHGY,60.0188799024,
stim/negf.jpg,stim/posf.jpg,stim/5.jpg,stim/2.jpg,stim/latef.jpg,CD,1,2,,,,,0,34,34,26,,,,,,2,1,0.716417214909,,,,,,2016_Mai_02_1012,P16,PLC_L_D1S2,NHGY,60.0188799024,
stim/posf.jpg,stim/negf.jpg,stim/3.jpg,stim/1.jpg,stim/latef.jpg,EF,1,2,,,,,0,35,35,40,,,,,,2,1,0.949755767249,,,,,,2016_Mai_02_1012,P16,PLC_L_D1S2,NHGY,60.0188799024,
stim/negf.jpg,stim/posf.jpg,stim/1.jpg,stim/3.jpg,stim/latef.jpg,EF,2,4,,,,,0,36,36,57,,,,,,4,1,0.98293521402,,,,,,2016_Mai_02_1012,P16,PLC_L_D1S2,NHGY,60.0188799024,
stim/negf.jpg,stim/posf.jpg,stim/4.jpg,stim/6.jpg,stim/latef.jpg,AB,1,2,,,,,0,37,37,9,,,,,,2,1,0.799822870505,,,,,,2016_Mai_02_1012,P16,PLC_L_D1S2,NHGY,60.0188799024,
stim/posf.jpg,stim/negf.jpg,stim/5.jpg,stim/2.jpg,stim/latef.jpg,CD,1,2,,,,,0,38,38,20,,,,,,2,1,0.866384860265,,,,,,2016_Mai_02_1012,P16,PLC_L_D1S2,NHGY,60.0188799024,
stim/posf.jpg,stim/negf.jpg,stim/4.jpg,stim/6.jpg,stim/latef.jpg,AB,1,2,,,,,0,39,39,4,,,,,,2,1,0.58309779325,,,,,,2016_Mai_02_1012,P16,PLC_L_D1S2,NHGY,60.0188799024,
stim/negf.jpg,stim/posf.jpg,stim/4.jpg,stim/6.jpg,stim/latef.jpg,AB,1,2,,,,,0,40,40,8,,,,,,2,1,0.59978320163,,,,,,2016_Mai_02_1012,P16,PLC_L_D1S2,NHGY,60.0188799024,
stim/negf.jpg,stim/posf.jpg,stim/5.jpg,stim/2.jpg,stim/latef.jpg,CD,1,2,,,,,0,41,41,27,,,,,,2,1,0.633164851391,,,,,,2016_Mai_02_1012,P16,PLC_L_D1S2,NHGY,60.0188799024,
stim/posf.jpg,stim/negf.jpg,stim/2.jpg,stim/5.jpg,stim/latef.jpg,CD,2,4,,,,,0,42,42,31,,,,,,4,1,0.966333579448,,,,,,2016_Mai_02_1012,P16,PLC_L_D1S2,NHGY,60.0188799024,
stim/posf.jpg,stim/negf.jpg,stim/2.jpg,stim/5.jpg,stim/latef.jpg,CD,2,4,,,,,0,43,43,35,,,,,,4,1,0.799734931316,,,,,,2016_Mai_02_1012,P16,PLC_L_D1S2,NHGY,60.0188799024,
stim/negf.jpg,stim/posf.jpg,stim/6.jpg,stim/4.jpg,stim/latef.jpg,AB,2,4,,,,,0,44,44,17,,,,,,4,1,0.883031243374,,,,,,2016_Mai_02_1012,P16,PLC_L_D1S2,NHGY,60.0188799024,
stim/negf.jpg,stim/posf.jpg,stim/2.jpg,stim/5.jpg,stim/latef.jpg,CD,2,4,,,,,0,45,45,37,,,,,,4,1,0.733082012917,,,,,,2016_Mai_02_1012,P16,PLC_L_D1S2,NHGY,60.0188799024,
stim/posf.jpg,stim/negf.jpg,stim/5.jpg,stim/2.jpg,stim/latef.jpg,CD,1,2,,,,,0,46,46,22,,,,,,2,1,0.633108626251,,,,,,2016_Mai_02_1012,P16,PLC_L_D1S2,NHGY,60.0188799024,
stim/negf.jpg,stim/posf.jpg,stim/3.jpg,stim/1.jpg,stim/latef.jpg,EF,1,2,,,,,0,47,47,45,,,,,,2,1,1.09963002684,,,,,,2016_Mai_02_1012,P16,PLC_L_D1S2,NHGY,60.0188799024,
stim/negf.jpg,stim/posf.jpg,stim/1.jpg,stim/3.jpg,stim/latef.jpg,EF,2,4,,,,,0,48,48,59,,,,,,4,1,1.03299279554,,,,,,2016_Mai_02_1012,P16,PLC_L_D1S2,NHGY,60.0188799024,
stim/posf.jpg,stim/negf.jpg,stim/4.jpg,stim/6.jpg,stim/latef.jpg,AB,1,2,,,,,0,49,49,1,,,,,,2,1,0.833074596432,,,,,,2016_Mai_02_1012,P16,PLC_L_D1S2,NHGY,60.0188799024,
stim/negf.jpg,stim/posf.jpg,stim/6.jpg,stim/4.jpg,stim/latef.jpg,AB,2,4,,,,,0,50,50,18,,,,,,4,1,0.69977110548,,,,,,2016_Mai_02_1012,P16,PLC_L_D1S2,NHGY,60.0188799024,
stim/posf.jpg,stim/negf.jpg,stim/5.jpg,stim/2.jpg,stim/latef.jpg,CD,1,2,,,,,0,51,51,23,,,,,,2,1,0.683104151097,,,,,,2016_Mai_02_1012,P16,PLC_L_D1S2,NHGY,60.0188799024,
stim/posf.jpg,stim/negf.jpg,stim/2.jpg,stim/5.jpg,stim/latef.jpg,CD,2,4,,,,,0,52,52,34,,,,,,4,1,0.866380090375,,,,,,2016_Mai_02_1012,P16,PLC_L_D1S2,NHGY,60.0188799024,
stim/posf.jpg,stim/negf.jpg,stim/1.jpg,stim/3.jpg,stim/latef.jpg,EF,2,4,,,,,0,53,53,55,,,,,,2,0,1.28288327155,,,,,,2016_Mai_02_1012,P16,PLC_L_D1S2,NHGY,60.0188799024,
stim/posf.jpg,stim/negf.jpg,stim/4.jpg,stim/6.jpg,stim/latef.jpg,AB,1,2,,,,,0,54,54,3,,,,,,2,1,0.833038596702,,,,,,2016_Mai_02_1012,P16,PLC_L_D1S2,NHGY,60.0188799024,
stim/negf.jpg,stim/posf.jpg,stim/6.jpg,stim/4.jpg,stim/latef.jpg,AB,2,4,,,,,0,55,55,16,,,,,,4,1,0.783062897272,,,,,,2016_Mai_02_1012,P16,PLC_L_D1S2,NHGY,60.0188799024,
stim/posf.jpg,stim/negf.jpg,stim/1.jpg,stim/3.jpg,stim/latef.jpg,EF,2,4,,,,,0,56,56,54,,,,,,2,0,1.01628322795,,,,,,2016_Mai_02_1012,P16,PLC_L_D1S2,NHGY,60.0188799024,
stim/negf.jpg,stim/posf.jpg,stim/5.jpg,stim/2.jpg,stim/latef.jpg,CD,1,2,,,,,0,57,57,28,,,,,,2,1,0.633127675732,,,,,,2016_Mai_02_1012,P16,PLC_L_D1S2,NHGY,60.0188799024,
stim/posf.jpg,stim/negf.jpg,stim/2.jpg,stim/5.jpg,stim/latef.jpg,CD,2,4,,,,,0,58,58,32,,,,,,4,1,0.583183269298,,,,,,2016_Mai_02_1012,P16,PLC_L_D1S2,NHGY,60.0188799024,
stim/posf.jpg,stim/negf.jpg,stim/3.jpg,stim/1.jpg,stim/latef.jpg,EF,1,2,,,,,0,59,59,42,,,,,,2,1,1.13297440771,,,,,,2016_Mai_02_1012,P16,PLC_L_D1S2,NHGY,60.0188799024,
