fb_corr,fb_incorr,symbol2,symbol1,fb_late,pair,position,correct,block_01.thisRepN,block_01.thisTrialN,block_01.thisN,block_01.thisIndex,block_02.thisRepN,block_02.thisTrialN,block_02.thisN,block_02.thisIndex,mouse.x,mouse.y,mouse.leftButton,mouse.midButton,mouse.rightButton,buttonBox_2.keys,buttonBox_2.corr,buttonBox_2.rt,mouse_2.x,mouse_2.y,mouse_2.leftButton,mouse_2.midButton,mouse_2.rightButton,expName,Participant,frameRate,SessionNumber,Version,date,Group,
,,,,,,,,,,,,,,,,0.9984375,1.0,1,0,0,,,,,,,,,PLC_L_D1S2,P1,60.0201228504,2,C,2016_Jan_06_1833,NHGY,
stim/posf.jpg,stim/negf.jpg,stim/1.jpg,stim/3.jpg,stim/latef.jpg,CD,2,4,0,0,0,31,,,,,,,,,,4,1,0.833115882151,,,,,,PLC_L_D1S2,P1,60.0201228504,2,C,2016_Jan_06_1833,NHGY,
stim/posf.jpg,stim/negf.jpg,stim/4.jpg,stim/6.jpg,stim/latef.jpg,AB,1,2,0,1,1,3,,,,,,,,,,2,1,1.01633522028,,,,,,PLC_L_D1S2,P1,60.0201228504,2,C,2016_Jan_06_1833,NHGY,
stim/posf.jpg,stim/negf.jpg,stim/5.jpg,stim/2.jpg,stim/latef.jpg,EF,1,2,0,2,2,42,,,,,,,,,,4,0,1.16627308715,,,,,,PLC_L_D1S2,P1,60.0201228504,2,C,2016_Jan_06_1833,NHGY,
stim/negf.jpg,stim/posf.jpg,stim/2.jpg,stim/5.jpg,stim/latef.jpg,EF,2,4,0,3,3,57,,,,,,,,,,2,0,1.11631008071,,,,,,PLC_L_D1S2,P1,60.0201228504,2,C,2016_Jan_06_1833,NHGY,
stim/negf.jpg,stim/posf.jpg,stim/6.jpg,stim/4.jpg,stim/latef.jpg,AB,2,4,0,4,4,16,,,,,,,,,,4,1,1.41623911309,,,,,,PLC_L_D1S2,P1,60.0201228504,2,C,2016_Jan_06_1833,NHGY,
stim/posf.jpg,stim/negf.jpg,stim/1.jpg,stim/3.jpg,stim/latef.jpg,CD,2,4,0,5,5,33,,,,,,,,,,4,1,1.34949927933,,,,,,PLC_L_D1S2,P1,60.0201228504,2,C,2016_Jan_06_1833,NHGY,
stim/posf.jpg,stim/negf.jpg,stim/2.jpg,stim/5.jpg,stim/latef.jpg,EF,2,4,0,6,6,53,,,,,,,,,,4,1,1.21626768119,,,,,,PLC_L_D1S2,P1,60.0201228504,2,C,2016_Jan_06_1833,NHGY,
stim/negf.jpg,stim/posf.jpg,stim/4.jpg,stim/6.jpg,stim/latef.jpg,AB,1,2,0,7,7,7,,,,,,,,,,2,1,1.03296705977,,,,,,PLC_L_D1S2,P1,60.0201228504,2,C,2016_Jan_06_1833,NHGY,
stim/posf.jpg,stim/negf.jpg,stim/1.jpg,stim/3.jpg,stim/latef.jpg,CD,2,4,0,8,8,34,,,,,,,,,,4,1,1.06631494532,,,,,,PLC_L_D1S2,P1,60.0201228504,2,C,2016_Jan_06_1833,NHGY,
stim/negf.jpg,stim/posf.jpg,stim/1.jpg,stim/3.jpg,stim/latef.jpg,CD,2,4,0,9,9,38,,,,,,,,,,4,1,0.799760071879,,,,,,PLC_L_D1S2,P1,60.0201228504,2,C,2016_Jan_06_1833,NHGY,
stim/negf.jpg,stim/posf.jpg,stim/3.jpg,stim/1.jpg,stim/latef.jpg,CD,1,2,0,10,10,27,,,,,,,,,,2,1,0.733068372913,,,,,,PLC_L_D1S2,P1,60.0201228504,2,C,2016_Jan_06_1833,NHGY,
stim/posf.jpg,stim/negf.jpg,stim/1.jpg,stim/3.jpg,stim/latef.jpg,CD,2,4,0,11,11,30,,,,,,,,,,4,1,1.04963561764,,,,,,PLC_L_D1S2,P1,60.0201228504,2,C,2016_Jan_06_1833,NHGY,
stim/posf.jpg,stim/negf.jpg,stim/6.jpg,stim/4.jpg,stim/latef.jpg,AB,2,4,0,12,12,15,,,,,,,,,,4,1,1.14954646978,,,,,,PLC_L_D1S2,P1,60.0201228504,2,C,2016_Jan_06_1833,NHGY,
stim/negf.jpg,stim/posf.jpg,stim/5.jpg,stim/2.jpg,stim/latef.jpg,EF,1,2,0,13,13,46,,,,,,,,,,2,1,1.19957236573,,,,,,PLC_L_D1S2,P1,60.0201228504,2,C,2016_Jan_06_1833,NHGY,
stim/posf.jpg,stim/negf.jpg,stim/4.jpg,stim/6.jpg,stim/latef.jpg,AB,1,2,0,14,14,0,,,,,,,,,,4,0,1.64945426029,,,,,,PLC_L_D1S2,P1,60.0201228504,2,C,2016_Jan_06_1833,NHGY,
stim/posf.jpg,stim/negf.jpg,stim/2.jpg,stim/5.jpg,stim/latef.jpg,EF,2,4,0,15,15,50,,,,,,,,,,2,0,1.24958301072,,,,,,PLC_L_D1S2,P1,60.0201228504,2,C,2016_Jan_06_1833,NHGY,
stim/posf.jpg,stim/negf.jpg,stim/5.jpg,stim/2.jpg,stim/latef.jpg,EF,1,2,0,16,16,43,,,,,,,,,,2,1,0.766331092506,,,,,,PLC_L_D1S2,P1,60.0201228504,2,C,2016_Jan_06_1833,NHGY,
stim/negf.jpg,stim/posf.jpg,stim/2.jpg,stim/5.jpg,stim/latef.jpg,EF,2,4,0,17,17,59,,,,,,,,,,4,1,0.966334623294,,,,,,PLC_L_D1S2,P1,60.0201228504,2,C,2016_Jan_06_1833,NHGY,
stim/negf.jpg,stim/posf.jpg,stim/2.jpg,stim/5.jpg,stim/latef.jpg,EF,2,4,0,18,18,58,,,,,,,,,,4,1,1.01632497679,,,,,,PLC_L_D1S2,P1,60.0201228504,2,C,2016_Jan_06_1833,NHGY,
stim/posf.jpg,stim/negf.jpg,stim/5.jpg,stim/2.jpg,stim/latef.jpg,EF,1,2,0,19,19,41,,,,,,,,,,2,1,0.982962712451,,,,,,PLC_L_D1S2,P1,60.0201228504,2,C,2016_Jan_06_1833,NHGY,
stim/negf.jpg,stim/posf.jpg,stim/2.jpg,stim/5.jpg,stim/latef.jpg,EF,2,4,0,20,20,56,,,,,,,,,,2,0,1.41618665654,,,,,,PLC_L_D1S2,P1,60.0201228504,2,C,2016_Jan_06_1833,NHGY,
stim/posf.jpg,stim/negf.jpg,stim/1.jpg,stim/3.jpg,stim/latef.jpg,CD,2,4,0,21,21,32,,,,,,,,,,4,1,1.29957401082,,,,,,PLC_L_D1S2,P1,60.0201228504,2,C,2016_Jan_06_1833,NHGY,
stim/negf.jpg,stim/posf.jpg,stim/3.jpg,stim/1.jpg,stim/latef.jpg,CD,1,2,0,22,22,29,,,,,,,,,,2,1,0.783055261782,,,,,,PLC_L_D1S2,P1,60.0201228504,2,C,2016_Jan_06_1833,NHGY,
stim/negf.jpg,stim/posf.jpg,stim/6.jpg,stim/4.jpg,stim/latef.jpg,AB,2,4,0,23,23,19,,,,,,,,,,4,1,1.26623068161,,,,,,PLC_L_D1S2,P1,60.0201228504,2,C,2016_Jan_06_1833,NHGY,
stim/posf.jpg,stim/negf.jpg,stim/3.jpg,stim/1.jpg,stim/latef.jpg,CD,1,2,0,24,24,24,,,,,,,,,,2,1,1.1829599606,,,,,,PLC_L_D1S2,P1,60.0201228504,2,C,2016_Jan_06_1833,NHGY,
stim/posf.jpg,stim/negf.jpg,stim/4.jpg,stim/6.jpg,stim/latef.jpg,AB,1,2,0,25,25,5,,,,,,,,,,2,1,1.16629173656,,,,,,PLC_L_D1S2,P1,60.0201228504,2,C,2016_Jan_06_1833,NHGY,
stim/posf.jpg,stim/negf.jpg,stim/1.jpg,stim/3.jpg,stim/latef.jpg,CD,2,4,0,26,26,35,,,,,,,,,,2,0,1.06625914445,,,,,,PLC_L_D1S2,P1,60.0201228504,2,C,2016_Jan_06_1833,NHGY,
stim/negf.jpg,stim/posf.jpg,stim/4.jpg,stim/6.jpg,stim/latef.jpg,AB,1,2,0,27,27,6,,,,,,,,,,2,1,1.19959862408,,,,,,PLC_L_D1S2,P1,60.0201228504,2,C,2016_Jan_06_1833,NHGY,
stim/posf.jpg,stim/negf.jpg,stim/4.jpg,stim/6.jpg,stim/latef.jpg,AB,1,2,0,28,28,2,,,,,,,,,,4,0,1.2495877054,,,,,,PLC_L_D1S2,P1,60.0201228504,2,C,2016_Jan_06_1833,NHGY,
stim/posf.jpg,stim/negf.jpg,stim/4.jpg,stim/6.jpg,stim/latef.jpg,AB,1,2,0,29,29,4,,,,,,,,,,4,0,1.31623551013,,,,,,PLC_L_D1S2,P1,60.0201228504,2,C,2016_Jan_06_1833,NHGY,
stim/posf.jpg,stim/negf.jpg,stim/3.jpg,stim/1.jpg,stim/latef.jpg,CD,1,2,0,30,30,22,,,,,,,,,,2,1,1.39953915407,,,,,,PLC_L_D1S2,P1,60.0201228504,2,C,2016_Jan_06_1833,NHGY,
stim/posf.jpg,stim/negf.jpg,stim/3.jpg,stim/1.jpg,stim/latef.jpg,CD,1,2,0,31,31,25,,,,,,,,,,2,1,0.81639665718,,,,,,PLC_L_D1S2,P1,60.0201228504,2,C,2016_Jan_06_1833,NHGY,
stim/posf.jpg,stim/negf.jpg,stim/3.jpg,stim/1.jpg,stim/latef.jpg,CD,1,2,0,32,32,23,,,,,,,,,,2,1,0.499824516265,,,,,,PLC_L_D1S2,P1,60.0201228504,2,C,2016_Jan_06_1833,NHGY,
stim/negf.jpg,stim/posf.jpg,stim/6.jpg,stim/4.jpg,stim/latef.jpg,AB,2,4,0,33,33,18,,,,,,,,,,2,0,1.3995083875,,,,,,PLC_L_D1S2,P1,60.0201228504,2,C,2016_Jan_06_1833,NHGY,
stim/posf.jpg,stim/negf.jpg,stim/6.jpg,stim/4.jpg,stim/latef.jpg,AB,2,4,0,34,34,12,,,,,,,,,,2,0,0.816402509746,,,,,,PLC_L_D1S2,P1,60.0201228504,2,C,2016_Jan_06_1833,NHGY,
stim/posf.jpg,stim/negf.jpg,stim/3.jpg,stim/1.jpg,stim/latef.jpg,CD,1,2,0,35,35,21,,,,,,,,,,2,1,1.14959722108,,,,,,PLC_L_D1S2,P1,60.0201228504,2,C,2016_Jan_06_1833,NHGY,
stim/posf.jpg,stim/negf.jpg,stim/3.jpg,stim/1.jpg,stim/latef.jpg,CD,1,2,0,36,36,20,,,,,,,,,,2,1,0.749728094796,,,,,,PLC_L_D1S2,P1,60.0201228504,2,C,2016_Jan_06_1833,NHGY,
stim/posf.jpg,stim/negf.jpg,stim/2.jpg,stim/5.jpg,stim/latef.jpg,EF,2,4,0,37,37,52,,,,,,,,,,4,1,1.54949130047,,,,,,PLC_L_D1S2,P1,60.0201228504,2,C,2016_Jan_06_1833,NHGY,
stim/posf.jpg,stim/negf.jpg,stim/5.jpg,stim/2.jpg,stim/latef.jpg,EF,1,2,0,38,38,45,,,,,,,,,,2,1,1.14962952749,,,,,,PLC_L_D1S2,P1,60.0201228504,2,C,2016_Jan_06_1833,NHGY,
stim/posf.jpg,stim/negf.jpg,stim/2.jpg,stim/5.jpg,stim/latef.jpg,EF,2,4,0,39,39,51,,,,,,,,,,4,1,1.06631271978,,,,,,PLC_L_D1S2,P1,60.0201228504,2,C,2016_Jan_06_1833,NHGY,
stim/negf.jpg,stim/posf.jpg,stim/5.jpg,stim/2.jpg,stim/latef.jpg,EF,1,2,0,40,40,49,,,,,,,,,,2,1,0.58310784164,,,,,,PLC_L_D1S2,P1,60.0201228504,2,C,2016_Jan_06_1833,NHGY,
stim/posf.jpg,stim/negf.jpg,stim/6.jpg,stim/4.jpg,stim/latef.jpg,AB,2,4,0,41,41,11,,,,,,,,,,2,0,0.999663056432,,,,,,PLC_L_D1S2,P1,60.0201228504,2,C,2016_Jan_06_1833,NHGY,
stim/posf.jpg,stim/negf.jpg,stim/2.jpg,stim/5.jpg,stim/latef.jpg,EF,2,4,0,42,42,54,,,,,,,,,,4,1,0.816388684338,,,,,,PLC_L_D1S2,P1,60.0201228504,2,C,2016_Jan_06_1833,NHGY,
stim/posf.jpg,stim/negf.jpg,stim/6.jpg,stim/4.jpg,stim/latef.jpg,AB,2,4,0,43,43,10,,,,,,,,,,2,0,1.16627475029,,,,,,PLC_L_D1S2,P1,60.0201228504,2,C,2016_Jan_06_1833,NHGY,
stim/negf.jpg,stim/posf.jpg,stim/1.jpg,stim/3.jpg,stim/latef.jpg,CD,2,4,0,44,44,36,,,,,,,,,,4,1,1.28290840329,,,,,,PLC_L_D1S2,P1,60.0201228504,2,C,2016_Jan_06_1833,NHGY,
stim/negf.jpg,stim/posf.jpg,stim/4.jpg,stim/6.jpg,stim/latef.jpg,AB,1,2,0,45,45,9,,,,,,,,,,4,0,1.19960741195,,,,,,PLC_L_D1S2,P1,60.0201228504,2,C,2016_Jan_06_1833,NHGY,
stim/negf.jpg,stim/posf.jpg,stim/5.jpg,stim/2.jpg,stim/latef.jpg,EF,1,2,0,46,46,48,,,,,,,,,,4,0,0.916365129717,,,,,,PLC_L_D1S2,P1,60.0201228504,2,C,2016_Jan_06_1833,NHGY,
stim/negf.jpg,stim/posf.jpg,stim/1.jpg,stim/3.jpg,stim/latef.jpg,CD,2,4,0,47,47,37,,,,,,,,,,4,1,1.4161971677,,,,,,PLC_L_D1S2,P1,60.0201228504,2,C,2016_Jan_06_1833,NHGY,
stim/negf.jpg,stim/posf.jpg,stim/3.jpg,stim/1.jpg,stim/latef.jpg,CD,1,2,0,48,48,26,,,,,,,,,,4,0,0.933006499927,,,,,,PLC_L_D1S2,P1,60.0201228504,2,C,2016_Jan_06_1833,NHGY,
stim/posf.jpg,stim/negf.jpg,stim/6.jpg,stim/4.jpg,stim/latef.jpg,AB,2,4,0,49,49,14,,,,,,,,,,2,0,1.04964653782,,,,,,PLC_L_D1S2,P1,60.0201228504,2,C,2016_Jan_06_1833,NHGY,
stim/posf.jpg,stim/negf.jpg,stim/5.jpg,stim/2.jpg,stim/latef.jpg,EF,1,2,0,50,50,44,,,,,,,,,,4,0,1.23292432642,,,,,,PLC_L_D1S2,P1,60.0201228504,2,C,2016_Jan_06_1833,NHGY,
stim/posf.jpg,stim/negf.jpg,stim/4.jpg,stim/6.jpg,stim/latef.jpg,AB,1,2,0,51,51,1,,,,,,,,,,4,0,1.41619563088,,,,,,PLC_L_D1S2,P1,60.0201228504,2,C,2016_Jan_06_1833,NHGY,
stim/negf.jpg,stim/posf.jpg,stim/3.jpg,stim/1.jpg,stim/latef.jpg,CD,1,2,0,52,52,28,,,,,,,,,,4,0,1.44957286647,,,,,,PLC_L_D1S2,P1,60.0201228504,2,C,2016_Jan_06_1833,NHGY,
stim/posf.jpg,stim/negf.jpg,stim/6.jpg,stim/4.jpg,stim/latef.jpg,AB,2,4,0,53,53,13,,,,,,,,,,2,0,1.13298658135,,,,,,PLC_L_D1S2,P1,60.0201228504,2,C,2016_Jan_06_1833,NHGY,
stim/negf.jpg,stim/posf.jpg,stim/6.jpg,stim/4.jpg,stim/latef.jpg,AB,2,4,0,54,54,17,,,,,,,,,,4,1,1.13290745744,,,,,,PLC_L_D1S2,P1,60.0201228504,2,C,2016_Jan_06_1833,NHGY,
stim/posf.jpg,stim/negf.jpg,stim/5.jpg,stim/2.jpg,stim/latef.jpg,EF,1,2,0,55,55,40,,,,,,,,,,4,0,1.36616021925,,,,,,PLC_L_D1S2,P1,60.0201228504,2,C,2016_Jan_06_1833,NHGY,
stim/negf.jpg,stim/posf.jpg,stim/5.jpg,stim/2.jpg,stim/latef.jpg,EF,1,2,0,56,56,47,,,,,,,,,,2,1,0.749753658418,,,,,,PLC_L_D1S2,P1,60.0201228504,2,C,2016_Jan_06_1833,NHGY,
stim/negf.jpg,stim/posf.jpg,stim/4.jpg,stim/6.jpg,stim/latef.jpg,AB,1,2,0,57,57,8,,,,,,,,,,4,0,1.29954472694,,,,,,PLC_L_D1S2,P1,60.0201228504,2,C,2016_Jan_06_1833,NHGY,
stim/negf.jpg,stim/posf.jpg,stim/2.jpg,stim/5.jpg,stim/latef.jpg,EF,2,4,0,58,58,55,,,,,,,,,,4,1,1.01632261892,,,,,,PLC_L_D1S2,P1,60.0201228504,2,C,2016_Jan_06_1833,NHGY,
stim/negf.jpg,stim/posf.jpg,stim/1.jpg,stim/3.jpg,stim/latef.jpg,CD,2,4,0,59,59,39,,,,,,,,,,4,1,1.33288573738,,,,,,PLC_L_D1S2,P1,60.0201228504,2,C,2016_Jan_06_1833,NHGY,
,,,,,,,,,,,,,,,,,,,,,,,,0.9984375,1.0,1,0,0,PLC_L_D1S2,P1,60.0201228504,2,C,2016_Jan_06_1833,NHGY,
stim/posf.jpg,stim/negf.jpg,stim/6.jpg,stim/4.jpg,stim/latef.jpg,AB,2,4,,,,,0,0,0,10,,,,,,2,0,1.06632683992,,,,,,PLC_L_D1S2,P1,60.0201228504,2,C,2016_Jan_06_1833,NHGY,
stim/posf.jpg,stim/negf.jpg,stim/2.jpg,stim/5.jpg,stim/latef.jpg,EF,2,4,,,,,0,1,1,51,,,,,,4,1,1.13295403736,,,,,,PLC_L_D1S2,P1,60.0201228504,2,C,2016_Jan_06_1833,NHGY,
stim/posf.jpg,stim/negf.jpg,stim/2.jpg,stim/5.jpg,stim/latef.jpg,EF,2,4,,,,,0,2,2,54,,,,,,4,1,0.816383562592,,,,,,PLC_L_D1S2,P1,60.0201228504,2,C,2016_Jan_06_1833,NHGY,
stim/negf.jpg,stim/posf.jpg,stim/6.jpg,stim/4.jpg,stim/latef.jpg,AB,2,4,,,,,0,3,3,16,,,,,,2,0,1.13293166769,,,,,,PLC_L_D1S2,P1,60.0201228504,2,C,2016_Jan_06_1833,NHGY,
stim/negf.jpg,stim/posf.jpg,stim/3.jpg,stim/1.jpg,stim/latef.jpg,CD,1,2,,,,,0,4,4,29,,,,,,4,0,0.749727327887,,,,,,PLC_L_D1S2,P1,60.0201228504,2,C,2016_Jan_06_1833,NHGY,
stim/negf.jpg,stim/posf.jpg,stim/2.jpg,stim/5.jpg,stim/latef.jpg,EF,2,4,,,,,0,5,5,57,,,,,,4,1,1.13297183265,,,,,,PLC_L_D1S2,P1,60.0201228504,2,C,2016_Jan_06_1833,NHGY,
stim/negf.jpg,stim/posf.jpg,stim/5.jpg,stim/2.jpg,stim/latef.jpg,EF,1,2,,,,,0,6,6,46,,,,,,2,1,1.03303316128,,,,,,PLC_L_D1S2,P1,60.0201228504,2,C,2016_Jan_06_1833,NHGY,
stim/negf.jpg,stim/posf.jpg,stim/1.jpg,stim/3.jpg,stim/latef.jpg,CD,2,4,,,,,0,7,7,37,,,,,,2,0,1.43285580388,,,,,,PLC_L_D1S2,P1,60.0201228504,2,C,2016_Jan_06_1833,NHGY,
stim/posf.jpg,stim/negf.jpg,stim/5.jpg,stim/2.jpg,stim/latef.jpg,EF,1,2,,,,,0,8,8,42,,,,,,2,1,1.39954873291,,,,,,PLC_L_D1S2,P1,60.0201228504,2,C,2016_Jan_06_1833,NHGY,
stim/negf.jpg,stim/posf.jpg,stim/6.jpg,stim/4.jpg,stim/latef.jpg,AB,2,4,,,,,0,9,9,17,,,,,,2,0,0.933017630628,,,,,,PLC_L_D1S2,P1,60.0201228504,2,C,2016_Jan_06_1833,NHGY,
stim/posf.jpg,stim/negf.jpg,stim/3.jpg,stim/1.jpg,stim/latef.jpg,CD,1,2,,,,,0,10,10,23,,,,,,4,0,1.01632549407,,,,,,PLC_L_D1S2,P1,60.0201228504,2,C,2016_Jan_06_1833,NHGY,
stim/posf.jpg,stim/negf.jpg,stim/1.jpg,stim/3.jpg,stim/latef.jpg,CD,2,4,,,,,0,11,11,31,,,,,,2,0,1.04963626726,,,,,,PLC_L_D1S2,P1,60.0201228504,2,C,2016_Jan_06_1833,NHGY,
stim/posf.jpg,stim/negf.jpg,stim/3.jpg,stim/1.jpg,stim/latef.jpg,CD,1,2,,,,,0,12,12,24,,,,,,4,0,0.69977231535,,,,,,PLC_L_D1S2,P1,60.0201228504,2,C,2016_Jan_06_1833,NHGY,
stim/posf.jpg,stim/negf.jpg,stim/1.jpg,stim/3.jpg,stim/latef.jpg,CD,2,4,,,,,0,13,13,34,,,,,,4,1,0.933003561614,,,,,,PLC_L_D1S2,P1,60.0201228504,2,C,2016_Jan_06_1833,NHGY,
stim/posf.jpg,stim/negf.jpg,stim/1.jpg,stim/3.jpg,stim/latef.jpg,CD,2,4,,,,,0,14,14,35,,,,,,2,0,1.24960106164,,,,,,PLC_L_D1S2,P1,60.0201228504,2,C,2016_Jan_06_1833,NHGY,
stim/negf.jpg,stim/posf.jpg,stim/4.jpg,stim/6.jpg,stim/latef.jpg,AB,1,2,,,,,0,15,15,6,,,,,,4,0,1.41625617756,,,,,,PLC_L_D1S2,P1,60.0201228504,2,C,2016_Jan_06_1833,NHGY,
stim/negf.jpg,stim/posf.jpg,stim/5.jpg,stim/2.jpg,stim/latef.jpg,EF,1,2,,,,,0,16,16,48,,,,,,2,1,1.19964585663,,,,,,PLC_L_D1S2,P1,60.0201228504,2,C,2016_Jan_06_1833,NHGY,
stim/negf.jpg,stim/posf.jpg,stim/6.jpg,stim/4.jpg,stim/latef.jpg,AB,2,4,,,,,0,17,17,19,,,,,,2,0,0.949679740454,,,,,,PLC_L_D1S2,P1,60.0201228504,2,C,2016_Jan_06_1833,NHGY,
stim/negf.jpg,stim/posf.jpg,stim/1.jpg,stim/3.jpg,stim/latef.jpg,CD,2,4,,,,,0,18,18,38,,,,,,2,0,1.28290240937,,,,,,PLC_L_D1S2,P1,60.0201228504,2,C,2016_Jan_06_1833,NHGY,
stim/posf.jpg,stim/negf.jpg,stim/6.jpg,stim/4.jpg,stim/latef.jpg,AB,2,4,,,,,0,19,19,12,,,,,,2,0,1.29957296421,,,,,,PLC_L_D1S2,P1,60.0201228504,2,C,2016_Jan_06_1833,NHGY,
stim/posf.jpg,stim/negf.jpg,stim/4.jpg,stim/6.jpg,stim/latef.jpg,AB,1,2,,,,,0,20,20,1,,,,,,4,0,1.46621735244,,,,,,PLC_L_D1S2,P1,60.0201228504,2,C,2016_Jan_06_1833,NHGY,
stim/negf.jpg,stim/posf.jpg,stim/5.jpg,stim/2.jpg,stim/latef.jpg,EF,1,2,,,,,0,21,21,49,,,,,,4,0,1.44954780811,,,,,,PLC_L_D1S2,P1,60.0201228504,2,C,2016_Jan_06_1833,NHGY,
stim/posf.jpg,stim/negf.jpg,stim/5.jpg,stim/2.jpg,stim/latef.jpg,EF,1,2,,,,,0,22,22,41,,,,,,4,0,0.599810763037,,,,,,PLC_L_D1S2,P1,60.0201228504,2,C,2016_Jan_06_1833,NHGY,
stim/posf.jpg,stim/negf.jpg,stim/5.jpg,stim/2.jpg,stim/latef.jpg,EF,1,2,,,,,0,23,23,43,,,,,,4,0,0.533112522791,,,,,,PLC_L_D1S2,P1,60.0201228504,2,C,2016_Jan_06_1833,NHGY,
stim/posf.jpg,stim/negf.jpg,stim/1.jpg,stim/3.jpg,stim/latef.jpg,CD,2,4,,,,,0,24,24,30,,,,,,2,0,1.29961898174,,,,,,PLC_L_D1S2,P1,60.0201228504,2,C,2016_Jan_06_1833,NHGY,
stim/posf.jpg,stim/negf.jpg,stim/4.jpg,stim/6.jpg,stim/latef.jpg,AB,1,2,,,,,0,25,25,0,,,,,,4,0,0.966338265358,,,,,,PLC_L_D1S2,P1,60.0201228504,2,C,2016_Jan_06_1833,NHGY,
stim/negf.jpg,stim/posf.jpg,stim/2.jpg,stim/5.jpg,stim/latef.jpg,EF,2,4,,,,,0,26,26,58,,,,,,2,0,1.01632328056,,,,,,PLC_L_D1S2,P1,60.0201228504,2,C,2016_Jan_06_1833,NHGY,
stim/negf.jpg,stim/posf.jpg,stim/3.jpg,stim/1.jpg,stim/latef.jpg,CD,1,2,,,,,0,27,27,27,,,,,,4,0,1.19961050665,,,,,,PLC_L_D1S2,P1,60.0201228504,2,C,2016_Jan_06_1833,NHGY,
stim/posf.jpg,stim/negf.jpg,stim/6.jpg,stim/4.jpg,stim/latef.jpg,AB,2,4,,,,,0,28,28,15,,,,,,2,0,0.749747814874,,,,,,PLC_L_D1S2,P1,60.0201228504,2,C,2016_Jan_06_1833,NHGY,
stim/negf.jpg,stim/posf.jpg,stim/1.jpg,stim/3.jpg,stim/latef.jpg,CD,2,4,,,,,0,29,29,36,,,,,,2,0,1.26624979117,,,,,,PLC_L_D1S2,P1,60.0201228504,2,C,2016_Jan_06_1833,NHGY,
stim/negf.jpg,stim/posf.jpg,stim/1.jpg,stim/3.jpg,stim/latef.jpg,CD,2,4,,,,,0,30,30,39,,,,,,2,0,0.949635304864,,,,,,PLC_L_D1S2,P1,60.0201228504,2,C,2016_Jan_06_1833,NHGY,
stim/posf.jpg,stim/negf.jpg,stim/1.jpg,stim/3.jpg,stim/latef.jpg,CD,2,4,,,,,0,31,31,32,,,,,,2,0,0.949688444116,,,,,,PLC_L_D1S2,P1,60.0201228504,2,C,2016_Jan_06_1833,NHGY,
stim/posf.jpg,stim/negf.jpg,stim/6.jpg,stim/4.jpg,stim/latef.jpg,AB,2,4,,,,,0,32,32,14,,,,,,2,0,0.933034598857,,,,,,PLC_L_D1S2,P1,60.0201228504,2,C,2016_Jan_06_1833,NHGY,
stim/posf.jpg,stim/negf.jpg,stim/5.jpg,stim/2.jpg,stim/latef.jpg,EF,1,2,,,,,0,33,33,40,,,,,,4,0,1.26625106333,,,,,,PLC_L_D1S2,P1,60.0201228504,2,C,2016_Jan_06_1833,NHGY,
stim/posf.jpg,stim/negf.jpg,stim/1.jpg,stim/3.jpg,stim/latef.jpg,CD,2,4,,,,,0,34,34,33,,,,,,2,0,0.966351889265,,,,,,PLC_L_D1S2,P1,60.0201228504,2,C,2016_Jan_06_1833,NHGY,
stim/negf.jpg,stim/posf.jpg,stim/2.jpg,stim/5.jpg,stim/latef.jpg,EF,2,4,,,,,0,35,35,59,,,,,,2,0,1.28290923035,,,,,,PLC_L_D1S2,P1,60.0201228504,2,C,2016_Jan_06_1833,NHGY,
stim/posf.jpg,stim/negf.jpg,stim/2.jpg,stim/5.jpg,stim/latef.jpg,EF,2,4,,,,,0,36,36,55,,,,,,2,0,0.683100707886,,,,,,PLC_L_D1S2,P1,60.0201228504,2,C,2016_Jan_06_1833,NHGY,
stim/negf.jpg,stim/posf.jpg,stim/6.jpg,stim/4.jpg,stim/latef.jpg,AB,2,4,,,,,0,37,37,18,,,,,,2,0,0.899681014124,,,,,,PLC_L_D1S2,P1,60.0201228504,2,C,2016_Jan_06_1833,NHGY,
stim/posf.jpg,stim/negf.jpg,stim/2.jpg,stim/5.jpg,stim/latef.jpg,EF,2,4,,,,,0,38,38,50,,,,,,2,0,1.41618743548,,,,,,PLC_L_D1S2,P1,60.0201228504,2,C,2016_Jan_06_1833,NHGY,
stim/posf.jpg,stim/negf.jpg,stim/3.jpg,stim/1.jpg,stim/latef.jpg,CD,1,2,,,,,0,39,39,21,,,,,,4,0,1.16628352011,,,,,,PLC_L_D1S2,P1,60.0201228504,2,C,2016_Jan_06_1833,NHGY,
stim/posf.jpg,stim/negf.jpg,stim/6.jpg,stim/4.jpg,stim/latef.jpg,AB,2,4,,,,,0,40,40,13,,,,,,2,0,1.18294110066,,,,,,PLC_L_D1S2,P1,60.0201228504,2,C,2016_Jan_06_1833,NHGY,
stim/negf.jpg,stim/posf.jpg,stim/3.jpg,stim/1.jpg,stim/latef.jpg,CD,1,2,,,,,0,41,41,28,,,,,,4,0,1.19958425431,,,,,,PLC_L_D1S2,P1,60.0201228504,2,C,2016_Jan_06_1833,NHGY,
stim/negf.jpg,stim/posf.jpg,stim/5.jpg,stim/2.jpg,stim/latef.jpg,EF,1,2,,,,,0,42,42,45,,,,,,4,0,1.21625519411,,,,,,PLC_L_D1S2,P1,60.0201228504,2,C,2016_Jan_06_1833,NHGY,
stim/posf.jpg,stim/negf.jpg,stim/4.jpg,stim/6.jpg,stim/latef.jpg,AB,1,2,,,,,0,43,43,5,,,,,,4,0,1.23292587226,,,,,,PLC_L_D1S2,P1,60.0201228504,2,C,2016_Jan_06_1833,NHGY,
stim/posf.jpg,stim/negf.jpg,stim/2.jpg,stim/5.jpg,stim/latef.jpg,EF,2,4,,,,,0,44,44,52,,,,,,2,0,0.932977243114,,,,,,PLC_L_D1S2,P1,60.0201228504,2,C,2016_Jan_06_1833,NHGY,
stim/posf.jpg,stim/negf.jpg,stim/4.jpg,stim/6.jpg,stim/latef.jpg,AB,1,2,,,,,0,45,45,3,,,,,,4,0,1.08300273004,,,,,,PLC_L_D1S2,P1,60.0201228504,2,C,2016_Jan_06_1833,NHGY,
stim/negf.jpg,stim/posf.jpg,stim/3.jpg,stim/1.jpg,stim/latef.jpg,CD,1,2,,,,,0,46,46,26,,,,,,4,0,0.999687414052,,,,,,PLC_L_D1S2,P1,60.0201228504,2,C,2016_Jan_06_1833,NHGY,
stim/negf.jpg,stim/posf.jpg,stim/4.jpg,stim/6.jpg,stim/latef.jpg,AB,1,2,,,,,0,47,47,9,,,,,,4,0,1.11628605692,,,,,,PLC_L_D1S2,P1,60.0201228504,2,C,2016_Jan_06_1833,NHGY,
stim/posf.jpg,stim/negf.jpg,stim/3.jpg,stim/1.jpg,stim/latef.jpg,CD,1,2,,,,,0,48,48,25,,,,,,4,0,0.649775498772,,,,,,PLC_L_D1S2,P1,60.0201228504,2,C,2016_Jan_06_1833,NHGY,
stim/posf.jpg,stim/negf.jpg,stim/6.jpg,stim/4.jpg,stim/latef.jpg,AB,2,4,,,,,0,49,49,11,,,,,,2,0,1.28291151904,,,,,,PLC_L_D1S2,P1,60.0201228504,2,C,2016_Jan_06_1833,NHGY,
stim/posf.jpg,stim/negf.jpg,stim/5.jpg,stim/2.jpg,stim/latef.jpg,EF,1,2,,,,,0,50,50,44,,,,,,4,0,1.38288455093,,,,,,PLC_L_D1S2,P1,60.0201228504,2,C,2016_Jan_06_1833,NHGY,
stim/negf.jpg,stim/posf.jpg,stim/4.jpg,stim/6.jpg,stim/latef.jpg,AB,1,2,,,,,0,51,51,8,,,,,,4,0,1.3161843498,,,,,,PLC_L_D1S2,P1,60.0201228504,2,C,2016_Jan_06_1833,NHGY,
stim/posf.jpg,stim/negf.jpg,stim/3.jpg,stim/1.jpg,stim/latef.jpg,CD,1,2,,,,,0,52,52,22,,,,,,4,0,0.683085240392,,,,,,PLC_L_D1S2,P1,60.0201228504,2,C,2016_Jan_06_1833,NHGY,
stim/posf.jpg,stim/negf.jpg,stim/3.jpg,stim/1.jpg,stim/latef.jpg,CD,1,2,,,,,0,53,53,20,,,,,,4,0,1.16628896667,,,,,,PLC_L_D1S2,P1,60.0201228504,2,C,2016_Jan_06_1833,NHGY,
stim/posf.jpg,stim/negf.jpg,stim/4.jpg,stim/6.jpg,stim/latef.jpg,AB,1,2,,,,,0,54,54,2,,,,,,2,1,1.11627902542,,,,,,PLC_L_D1S2,P1,60.0201228504,2,C,2016_Jan_06_1833,NHGY,
stim/negf.jpg,stim/posf.jpg,stim/5.jpg,stim/2.jpg,stim/latef.jpg,EF,1,2,,,,,0,55,55,47,,,,,,2,1,1.3828911704,,,,,,PLC_L_D1S2,P1,60.0201228504,2,C,2016_Jan_06_1833,NHGY,
stim/negf.jpg,stim/posf.jpg,stim/2.jpg,stim/5.jpg,stim/latef.jpg,EF,2,4,,,,,0,56,56,56,,,,,,2,0,0.733090062894,,,,,,PLC_L_D1S2,P1,60.0201228504,2,C,2016_Jan_06_1833,NHGY,
stim/negf.jpg,stim/posf.jpg,stim/4.jpg,stim/6.jpg,stim/latef.jpg,AB,1,2,,,,,0,57,57,7,,,,,,4,0,1.03299910753,,,,,,PLC_L_D1S2,P1,60.0201228504,2,C,2016_Jan_06_1833,NHGY,
stim/posf.jpg,stim/negf.jpg,stim/4.jpg,stim/6.jpg,stim/latef.jpg,AB,1,2,,,,,0,58,58,4,,,,,,4,0,0.733029038019,,,,,,PLC_L_D1S2,P1,60.0201228504,2,C,2016_Jan_06_1833,NHGY,
stim/posf.jpg,stim/negf.jpg,stim/2.jpg,stim/5.jpg,stim/latef.jpg,EF,2,4,,,,,0,59,59,53,,,,,,2,0,0.783056407635,,,,,,PLC_L_D1S2,P1,60.0201228504,2,C,2016_Jan_06_1833,NHGY,
