fb_corr,fb_incorr,symbol2,symbol1,fb_late,pair,position,correct,block_01.thisRepN,block_01.thisTrialN,block_01.thisN,block_01.thisIndex,block_02.thisRepN,block_02.thisTrialN,block_02.thisN,block_02.thisIndex,mouse.x,mouse.y,mouse.leftButton,mouse.midButton,mouse.rightButton,buttonBox_2.keys,buttonBox_2.corr,buttonBox_2.rt,mouse_2.x,mouse_2.y,mouse_2.leftButton,mouse_2.midButton,mouse_2.rightButton,date,Participant,expName,Group,frameRate,
,,,,,,,,,,,,,,,,0.9984375,0.00390625,1,0,0,,,,,,,,,2016_Jan_12_1519,P5,PLC_L_D1S2,NHGY,60.0154417537,
stim/posf.jpg,stim/negf.jpg,stim/1.jpg,stim/3.jpg,stim/latef.jpg,EF,2,4,0,0,0,50,,,,,,,,,,4,1,0.88308410657,,,,,,2016_Jan_12_1519,P5,PLC_L_D1S2,NHGY,60.0154417537,
stim/posf.jpg,stim/negf.jpg,stim/5.jpg,stim/2.jpg,stim/latef.jpg,AB,1,2,0,1,1,1,,,,,,,,,,2,1,0.766425575652,,,,,,2016_Jan_12_1519,P5,PLC_L_D1S2,NHGY,60.0154417537,
stim/posf.jpg,stim/negf.jpg,stim/3.jpg,stim/1.jpg,stim/latef.jpg,EF,1,2,0,2,2,40,,,,,,,,,,4,0,0.916315999443,,,,,,2016_Jan_12_1519,P5,PLC_L_D1S2,NHGY,60.0154417537,
stim/negf.jpg,stim/posf.jpg,stim/6.jpg,stim/4.jpg,stim/latef.jpg,CD,2,4,0,3,3,38,,,,,,,,,,4,1,0.833053115943,,,,,,2016_Jan_12_1519,P5,PLC_L_D1S2,NHGY,60.0154417537,
stim/negf.jpg,stim/posf.jpg,stim/4.jpg,stim/6.jpg,stim/latef.jpg,CD,1,2,0,4,4,26,,,,,,,,,,4,0,0.84977447322,,,,,,2016_Jan_12_1519,P5,PLC_L_D1S2,NHGY,60.0154417537,
stim/negf.jpg,stim/posf.jpg,stim/4.jpg,stim/6.jpg,stim/latef.jpg,CD,1,2,0,5,5,27,,,,,,,,,,4,0,0.699781885167,,,,,,2016_Jan_12_1519,P5,PLC_L_D1S2,NHGY,60.0154417537,
stim/negf.jpg,stim/posf.jpg,stim/5.jpg,stim/2.jpg,stim/latef.jpg,AB,1,2,0,6,6,7,,,,,,,,,,2,1,0.933013453232,,,,,,2016_Jan_12_1519,P5,PLC_L_D1S2,NHGY,60.0154417537,
stim/negf.jpg,stim/posf.jpg,stim/2.jpg,stim/5.jpg,stim/latef.jpg,AB,2,4,0,7,7,16,,,,,,,,,,4,1,0.982999957144,,,,,,2016_Jan_12_1519,P5,PLC_L_D1S2,NHGY,60.0154417537,
stim/negf.jpg,stim/posf.jpg,stim/5.jpg,stim/2.jpg,stim/latef.jpg,AB,1,2,0,8,8,6,,,,,,,,,,4,0,0.883029707184,,,,,,2016_Jan_12_1519,P5,PLC_L_D1S2,NHGY,60.0154417537,
stim/negf.jpg,stim/posf.jpg,stim/5.jpg,stim/2.jpg,stim/latef.jpg,AB,1,2,0,9,9,8,,,,,,,,,,4,0,0.932962774104,,,,,,2016_Jan_12_1519,P5,PLC_L_D1S2,NHGY,60.0154417537,
stim/posf.jpg,stim/negf.jpg,stim/6.jpg,stim/4.jpg,stim/latef.jpg,CD,2,4,0,10,10,31,,,,,,,,,,2,0,0.766414772766,,,,,,2016_Jan_12_1519,P5,PLC_L_D1S2,NHGY,60.0154417537,
stim/posf.jpg,stim/negf.jpg,stim/2.jpg,stim/5.jpg,stim/latef.jpg,AB,2,4,0,11,11,11,,,,,,,,,,2,0,0.88304434762,,,,,,2016_Jan_12_1519,P5,PLC_L_D1S2,NHGY,60.0154417537,
stim/negf.jpg,stim/posf.jpg,stim/5.jpg,stim/2.jpg,stim/latef.jpg,AB,1,2,0,12,12,9,,,,,,,,,,4,0,0.99967441871,,,,,,2016_Jan_12_1519,P5,PLC_L_D1S2,NHGY,60.0154417537,
stim/posf.jpg,stim/negf.jpg,stim/5.jpg,stim/2.jpg,stim/latef.jpg,AB,1,2,0,13,13,4,,,,,,,,,,4,0,0.616457017401,,,,,,2016_Jan_12_1519,P5,PLC_L_D1S2,NHGY,60.0154417537,
stim/negf.jpg,stim/posf.jpg,stim/1.jpg,stim/3.jpg,stim/latef.jpg,EF,2,4,0,14,14,59,,,,,,,,,,4,1,0.649769429668,,,,,,2016_Jan_12_1519,P5,PLC_L_D1S2,NHGY,60.0154417537,
stim/posf.jpg,stim/negf.jpg,stim/6.jpg,stim/4.jpg,stim/latef.jpg,CD,2,4,0,15,15,30,,,,,,,,,,2,0,0.733031001906,,,,,,2016_Jan_12_1519,P5,PLC_L_D1S2,NHGY,60.0154417537,
stim/posf.jpg,stim/negf.jpg,stim/6.jpg,stim/4.jpg,stim/latef.jpg,CD,2,4,0,16,16,32,,,,,,,,,,2,0,0.683082103585,,,,,,2016_Jan_12_1519,P5,PLC_L_D1S2,NHGY,60.0154417537,
stim/posf.jpg,stim/negf.jpg,stim/4.jpg,stim/6.jpg,stim/latef.jpg,CD,1,2,0,17,17,20,,,,,,,,,,2,1,0.666444820547,,,,,,2016_Jan_12_1519,P5,PLC_L_D1S2,NHGY,60.0154417537,
stim/posf.jpg,stim/negf.jpg,stim/6.jpg,stim/4.jpg,stim/latef.jpg,CD,2,4,0,18,18,33,,,,,,,,,,4,1,0.916375009304,,,,,,2016_Jan_12_1519,P5,PLC_L_D1S2,NHGY,60.0154417537,
stim/posf.jpg,stim/negf.jpg,stim/5.jpg,stim/2.jpg,stim/latef.jpg,AB,1,2,0,19,19,5,,,,,,,,,,2,1,1.04964790021,,,,,,2016_Jan_12_1519,P5,PLC_L_D1S2,NHGY,60.0154417537,
stim/posf.jpg,stim/negf.jpg,stim/4.jpg,stim/6.jpg,stim/latef.jpg,CD,1,2,0,20,20,23,,,,,,,,,,2,1,1.08295759973,,,,,,2016_Jan_12_1519,P5,PLC_L_D1S2,NHGY,60.0154417537,
stim/negf.jpg,stim/posf.jpg,stim/3.jpg,stim/1.jpg,stim/latef.jpg,EF,1,2,0,21,21,49,,,,,,,,,,2,1,0.949695692154,,,,,,2016_Jan_12_1519,P5,PLC_L_D1S2,NHGY,60.0154417537,
stim/negf.jpg,stim/posf.jpg,stim/2.jpg,stim/5.jpg,stim/latef.jpg,AB,2,4,0,22,22,19,,,,,,,,,,2,0,1.24958926629,,,,,,2016_Jan_12_1519,P5,PLC_L_D1S2,NHGY,60.0154417537,
stim/posf.jpg,stim/negf.jpg,stim/2.jpg,stim/5.jpg,stim/latef.jpg,AB,2,4,0,23,23,14,,,,,,,,,,2,0,1.4994847607,,,,,,2016_Jan_12_1519,P5,PLC_L_D1S2,NHGY,60.0154417537,
stim/posf.jpg,stim/negf.jpg,stim/4.jpg,stim/6.jpg,stim/latef.jpg,CD,1,2,0,24,24,24,,,,,,,,,,2,1,0.849724088826,,,,,,2016_Jan_12_1519,P5,PLC_L_D1S2,NHGY,60.0154417537,
stim/negf.jpg,stim/posf.jpg,stim/3.jpg,stim/1.jpg,stim/latef.jpg,EF,1,2,0,25,25,48,,,,,,,,,,2,1,0.733095133514,,,,,,2016_Jan_12_1519,P5,PLC_L_D1S2,NHGY,60.0154417537,
stim/negf.jpg,stim/posf.jpg,stim/1.jpg,stim/3.jpg,stim/latef.jpg,EF,2,4,0,26,26,57,,,,,,,,,,2,0,0.616512355124,,,,,,2016_Jan_12_1519,P5,PLC_L_D1S2,NHGY,60.0154417537,
stim/negf.jpg,stim/posf.jpg,stim/6.jpg,stim/4.jpg,stim/latef.jpg,CD,2,4,0,27,27,37,,,,,,,,,,4,1,1.1496137412,,,,,,2016_Jan_12_1519,P5,PLC_L_D1S2,NHGY,60.0154417537,
stim/posf.jpg,stim/negf.jpg,stim/4.jpg,stim/6.jpg,stim/latef.jpg,CD,1,2,0,28,28,25,,,,,,,,,,2,1,1.08295895911,,,,,,2016_Jan_12_1519,P5,PLC_L_D1S2,NHGY,60.0154417537,
stim/negf.jpg,stim/posf.jpg,stim/4.jpg,stim/6.jpg,stim/latef.jpg,CD,1,2,0,29,29,29,,,,,,,,,,2,1,1.01637614914,,,,,,2016_Jan_12_1519,P5,PLC_L_D1S2,NHGY,60.0154417537,
stim/posf.jpg,stim/negf.jpg,stim/4.jpg,stim/6.jpg,stim/latef.jpg,CD,1,2,0,30,30,21,,,,,,,,,,2,1,0.566436724398,,,,,,2016_Jan_12_1519,P5,PLC_L_D1S2,NHGY,60.0154417537,
stim/negf.jpg,stim/posf.jpg,stim/1.jpg,stim/3.jpg,stim/latef.jpg,EF,2,4,0,31,31,58,,,,,,,,,,2,0,1.166274233,,,,,,2016_Jan_12_1519,P5,PLC_L_D1S2,NHGY,60.0154417537,
stim/posf.jpg,stim/negf.jpg,stim/5.jpg,stim/2.jpg,stim/latef.jpg,AB,1,2,0,32,32,3,,,,,,,,,,4,0,1.04968851629,,,,,,2016_Jan_12_1519,P5,PLC_L_D1S2,NHGY,60.0154417537,
stim/posf.jpg,stim/negf.jpg,stim/5.jpg,stim/2.jpg,stim/latef.jpg,AB,1,2,0,33,33,2,,,,,,,,,,2,1,0.549826409477,,,,,,2016_Jan_12_1519,P5,PLC_L_D1S2,NHGY,60.0154417537,
stim/posf.jpg,stim/negf.jpg,stim/4.jpg,stim/6.jpg,stim/latef.jpg,CD,1,2,0,34,34,22,,,,,,,,,,2,1,0.766424429799,,,,,,2016_Jan_12_1519,P5,PLC_L_D1S2,NHGY,60.0154417537,
stim/negf.jpg,stim/posf.jpg,stim/2.jpg,stim/5.jpg,stim/latef.jpg,AB,2,4,0,35,35,18,,,,,,,,,,4,1,1.08291455961,,,,,,2016_Jan_12_1519,P5,PLC_L_D1S2,NHGY,60.0154417537,
stim/negf.jpg,stim/posf.jpg,stim/4.jpg,stim/6.jpg,stim/latef.jpg,CD,1,2,0,36,36,28,,,,,,,,,,2,1,0.783111916783,,,,,,2016_Jan_12_1519,P5,PLC_L_D1S2,NHGY,60.0154417537,
stim/posf.jpg,stim/negf.jpg,stim/3.jpg,stim/1.jpg,stim/latef.jpg,EF,1,2,0,37,37,42,,,,,,,,,,4,0,1.03290866043,,,,,,2016_Jan_12_1519,P5,PLC_L_D1S2,NHGY,60.0154417537,
stim/posf.jpg,stim/negf.jpg,stim/6.jpg,stim/4.jpg,stim/latef.jpg,CD,2,4,0,38,38,35,,,,,,,,,,4,1,1.11628045097,,,,,,2016_Jan_12_1519,P5,PLC_L_D1S2,NHGY,60.0154417537,
stim/posf.jpg,stim/negf.jpg,stim/3.jpg,stim/1.jpg,stim/latef.jpg,EF,1,2,0,39,39,44,,,,,,,,,,4,0,1.14961477577,,,,,,2016_Jan_12_1519,P5,PLC_L_D1S2,NHGY,60.0154417537,
stim/posf.jpg,stim/negf.jpg,stim/5.jpg,stim/2.jpg,stim/latef.jpg,AB,1,2,0,40,40,0,,,,,,,,,,2,1,0.933044400251,,,,,,2016_Jan_12_1519,P5,PLC_L_D1S2,NHGY,60.0154417537,
stim/posf.jpg,stim/negf.jpg,stim/2.jpg,stim/5.jpg,stim/latef.jpg,AB,2,4,0,41,41,12,,,,,,,,,,2,0,1.14960991568,,,,,,2016_Jan_12_1519,P5,PLC_L_D1S2,NHGY,60.0154417537,
stim/negf.jpg,stim/posf.jpg,stim/3.jpg,stim/1.jpg,stim/latef.jpg,EF,1,2,0,42,42,46,,,,,,,,,,4,0,1.19960208268,,,,,,2016_Jan_12_1519,P5,PLC_L_D1S2,NHGY,60.0154417537,
stim/negf.jpg,stim/posf.jpg,stim/3.jpg,stim/1.jpg,stim/latef.jpg,EF,1,2,0,43,43,47,,,,,,,,,,4,0,0.799729560945,,,,,,2016_Jan_12_1519,P5,PLC_L_D1S2,NHGY,60.0154417537,
stim/negf.jpg,stim/posf.jpg,stim/1.jpg,stim/3.jpg,stim/latef.jpg,EF,2,4,0,44,44,55,,,,,,,,,,2,0,1.39952040541,,,,,,2016_Jan_12_1519,P5,PLC_L_D1S2,NHGY,60.0154417537,
stim/posf.jpg,stim/negf.jpg,stim/2.jpg,stim/5.jpg,stim/latef.jpg,AB,2,4,0,45,45,10,,,,,,,,,,4,1,0.849751496036,,,,,,2016_Jan_12_1519,P5,PLC_L_D1S2,NHGY,60.0154417537,
stim/negf.jpg,stim/posf.jpg,stim/1.jpg,stim/3.jpg,stim/latef.jpg,EF,2,4,0,46,46,56,,,,,,,,,,2,0,0.966372487528,,,,,,2016_Jan_12_1519,P5,PLC_L_D1S2,NHGY,60.0154417537,
stim/negf.jpg,stim/posf.jpg,stim/6.jpg,stim/4.jpg,stim/latef.jpg,CD,2,4,0,47,47,39,,,,,,,,,,4,1,0.7830608136,,,,,,2016_Jan_12_1519,P5,PLC_L_D1S2,NHGY,60.0154417537,
stim/posf.jpg,stim/negf.jpg,stim/1.jpg,stim/3.jpg,stim/latef.jpg,EF,2,4,0,48,48,52,,,,,,,,,,2,0,1.18295555163,,,,,,2016_Jan_12_1519,P5,PLC_L_D1S2,NHGY,60.0154417537,
stim/posf.jpg,stim/negf.jpg,stim/1.jpg,stim/3.jpg,stim/latef.jpg,EF,2,4,0,49,49,51,,,,,,,,,,2,0,0.799757398225,,,,,,2016_Jan_12_1519,P5,PLC_L_D1S2,NHGY,60.0154417537,
stim/posf.jpg,stim/negf.jpg,stim/2.jpg,stim/5.jpg,stim/latef.jpg,AB,2,4,0,50,50,15,,,,,,,,,,4,1,0.933002548091,,,,,,2016_Jan_12_1519,P5,PLC_L_D1S2,NHGY,60.0154417537,
stim/posf.jpg,stim/negf.jpg,stim/3.jpg,stim/1.jpg,stim/latef.jpg,EF,1,2,0,51,51,43,,,,,,,,,,4,0,0.84971595358,,,,,,2016_Jan_12_1519,P5,PLC_L_D1S2,NHGY,60.0154417537,
stim/posf.jpg,stim/negf.jpg,stim/3.jpg,stim/1.jpg,stim/latef.jpg,EF,1,2,0,52,52,45,,,,,,,,,,2,1,1.01631852874,,,,,,2016_Jan_12_1519,P5,PLC_L_D1S2,NHGY,60.0154417537,
stim/negf.jpg,stim/posf.jpg,stim/2.jpg,stim/5.jpg,stim/latef.jpg,AB,2,4,0,53,53,17,,,,,,,,,,4,1,1.21625765123,,,,,,2016_Jan_12_1519,P5,PLC_L_D1S2,NHGY,60.0154417537,
stim/posf.jpg,stim/negf.jpg,stim/1.jpg,stim/3.jpg,stim/latef.jpg,EF,2,4,0,54,54,53,,,,,,,,,,2,0,1.04966871201,,,,,,2016_Jan_12_1519,P5,PLC_L_D1S2,NHGY,60.0154417537,
stim/posf.jpg,stim/negf.jpg,stim/2.jpg,stim/5.jpg,stim/latef.jpg,AB,2,4,0,55,55,13,,,,,,,,,,2,0,0.899681642688,,,,,,2016_Jan_12_1519,P5,PLC_L_D1S2,NHGY,60.0154417537,
stim/negf.jpg,stim/posf.jpg,stim/6.jpg,stim/4.jpg,stim/latef.jpg,CD,2,4,0,56,56,36,,,,,,,,,,2,0,1.13298196186,,,,,,2016_Jan_12_1519,P5,PLC_L_D1S2,NHGY,60.0154417537,
stim/posf.jpg,stim/negf.jpg,stim/1.jpg,stim/3.jpg,stim/latef.jpg,EF,2,4,0,57,57,54,,,,,,,,,,4,1,1.0996892035,,,,,,2016_Jan_12_1519,P5,PLC_L_D1S2,NHGY,60.0154417537,
stim/posf.jpg,stim/negf.jpg,stim/3.jpg,stim/1.jpg,stim/latef.jpg,EF,1,2,0,58,58,41,,,,,,,,,,4,0,1.16626268726,,,,,,2016_Jan_12_1519,P5,PLC_L_D1S2,NHGY,60.0154417537,
stim/posf.jpg,stim/negf.jpg,stim/6.jpg,stim/4.jpg,stim/latef.jpg,CD,2,4,0,59,59,34,,,,,,,,,,2,0,1.1829181716,,,,,,2016_Jan_12_1519,P5,PLC_L_D1S2,NHGY,60.0154417537,
,,,,,,,,,,,,,,,,,,,,,,,,0.9984375,0.00390625,1,0,0,2016_Jan_12_1519,P5,PLC_L_D1S2,NHGY,60.0154417537,
stim/posf.jpg,stim/negf.jpg,stim/2.jpg,stim/5.jpg,stim/latef.jpg,AB,2,4,,,,,0,0,0,13,,,,,,2,0,0.749713511502,,,,,,2016_Jan_12_1519,P5,PLC_L_D1S2,NHGY,60.0154417537,
stim/posf.jpg,stim/negf.jpg,stim/6.jpg,stim/4.jpg,stim/latef.jpg,CD,2,4,,,,,0,1,1,30,,,,,,2,0,0.816384407694,,,,,,2016_Jan_12_1519,P5,PLC_L_D1S2,NHGY,60.0154417537,
stim/negf.jpg,stim/posf.jpg,stim/1.jpg,stim/3.jpg,stim/latef.jpg,EF,2,4,,,,,0,2,2,58,,,,,,2,0,0.766402033059,,,,,,2016_Jan_12_1519,P5,PLC_L_D1S2,NHGY,60.0154417537,
stim/posf.jpg,stim/negf.jpg,stim/6.jpg,stim/4.jpg,stim/latef.jpg,CD,2,4,,,,,0,3,3,35,,,,,,4,1,0.833057636191,,,,,,2016_Jan_12_1519,P5,PLC_L_D1S2,NHGY,60.0154417537,
stim/posf.jpg,stim/negf.jpg,stim/3.jpg,stim/1.jpg,stim/latef.jpg,EF,1,2,,,,,0,4,4,43,,,,,,4,0,0.849679325422,,,,,,2016_Jan_12_1519,P5,PLC_L_D1S2,NHGY,60.0154417537,
stim/posf.jpg,stim/negf.jpg,stim/5.jpg,stim/2.jpg,stim/latef.jpg,AB,1,2,,,,,0,5,5,4,,,,,,2,1,0.716486114819,,,,,,2016_Jan_12_1519,P5,PLC_L_D1S2,NHGY,60.0154417537,
stim/posf.jpg,stim/negf.jpg,stim/5.jpg,stim/2.jpg,stim/latef.jpg,AB,1,2,,,,,0,6,6,5,,,,,,2,1,0.699820453153,,,,,,2016_Jan_12_1519,P5,PLC_L_D1S2,NHGY,60.0154417537,
stim/negf.jpg,stim/posf.jpg,stim/4.jpg,stim/6.jpg,stim/latef.jpg,CD,1,2,,,,,0,7,7,27,,,,,,2,1,0.616452617452,,,,,,2016_Jan_12_1519,P5,PLC_L_D1S2,NHGY,60.0154417537,
stim/negf.jpg,stim/posf.jpg,stim/5.jpg,stim/2.jpg,stim/latef.jpg,AB,1,2,,,,,0,8,8,9,,,,,,2,1,0.716349430646,,,,,,2016_Jan_12_1519,P5,PLC_L_D1S2,NHGY,60.0154417537,
stim/negf.jpg,stim/posf.jpg,stim/5.jpg,stim/2.jpg,stim/latef.jpg,AB,1,2,,,,,0,9,9,7,,,,,,4,0,0.666369744702,,,,,,2016_Jan_12_1519,P5,PLC_L_D1S2,NHGY,60.0154417537,
stim/posf.jpg,stim/negf.jpg,stim/4.jpg,stim/6.jpg,stim/latef.jpg,CD,1,2,,,,,0,10,10,22,,,,,,4,0,0.916341939001,,,,,,2016_Jan_12_1519,P5,PLC_L_D1S2,NHGY,60.0154417537,
stim/negf.jpg,stim/posf.jpg,stim/6.jpg,stim/4.jpg,stim/latef.jpg,CD,2,4,,,,,0,11,11,37,,,,,,4,1,0.949732266178,,,,,,2016_Jan_12_1519,P5,PLC_L_D1S2,NHGY,60.0154417537,
stim/negf.jpg,stim/posf.jpg,stim/6.jpg,stim/4.jpg,stim/latef.jpg,CD,2,4,,,,,0,12,12,36,,,,,,2,0,1.13295611252,,,,,,2016_Jan_12_1519,P5,PLC_L_D1S2,NHGY,60.0154417537,
stim/negf.jpg,stim/posf.jpg,stim/4.jpg,stim/6.jpg,stim/latef.jpg,CD,1,2,,,,,0,13,13,29,,,,,,4,0,0.733062249674,,,,,,2016_Jan_12_1519,P5,PLC_L_D1S2,NHGY,60.0154417537,
stim/posf.jpg,stim/negf.jpg,stim/1.jpg,stim/3.jpg,stim/latef.jpg,EF,2,4,,,,,0,14,14,51,,,,,,2,0,0.83303158235,,,,,,2016_Jan_12_1519,P5,PLC_L_D1S2,NHGY,60.0154417537,
stim/negf.jpg,stim/posf.jpg,stim/3.jpg,stim/1.jpg,stim/latef.jpg,EF,1,2,,,,,0,15,15,45,,,,,,2,1,0.783092274899,,,,,,2016_Jan_12_1519,P5,PLC_L_D1S2,NHGY,60.0154417537,
stim/posf.jpg,stim/negf.jpg,stim/6.jpg,stim/4.jpg,stim/latef.jpg,CD,2,4,,,,,0,16,16,34,,,,,,2,0,1.01627532321,,,,,,2016_Jan_12_1519,P5,PLC_L_D1S2,NHGY,60.0154417537,
stim/posf.jpg,stim/negf.jpg,stim/5.jpg,stim/2.jpg,stim/latef.jpg,AB,1,2,,,,,0,17,17,3,,,,,,4,0,0.982993015868,,,,,,2016_Jan_12_1519,P5,PLC_L_D1S2,NHGY,60.0154417537,
stim/posf.jpg,stim/negf.jpg,stim/2.jpg,stim/5.jpg,stim/latef.jpg,AB,2,4,,,,,0,18,18,15,,,,,,4,1,0.866371368744,,,,,,2016_Jan_12_1519,P5,PLC_L_D1S2,NHGY,60.0154417537,
stim/posf.jpg,stim/negf.jpg,stim/4.jpg,stim/6.jpg,stim/latef.jpg,CD,1,2,,,,,0,19,19,20,,,,,,2,1,0.999676099894,,,,,,2016_Jan_12_1519,P5,PLC_L_D1S2,NHGY,60.0154417537,
stim/negf.jpg,stim/posf.jpg,stim/3.jpg,stim/1.jpg,stim/latef.jpg,EF,1,2,,,,,0,20,20,48,,,,,,2,1,1.09969112228,,,,,,2016_Jan_12_1519,P5,PLC_L_D1S2,NHGY,60.0154417537,
stim/posf.jpg,stim/negf.jpg,stim/6.jpg,stim/4.jpg,stim/latef.jpg,CD,2,4,,,,,0,21,21,33,,,,,,4,1,0.999660776758,,,,,,2016_Jan_12_1519,P5,PLC_L_D1S2,NHGY,60.0154417537,
stim/negf.jpg,stim/posf.jpg,stim/5.jpg,stim/2.jpg,stim/latef.jpg,AB,1,2,,,,,0,22,22,8,,,,,,2,1,0.866372355199,,,,,,2016_Jan_12_1519,P5,PLC_L_D1S2,NHGY,60.0154417537,
stim/negf.jpg,stim/posf.jpg,stim/1.jpg,stim/3.jpg,stim/latef.jpg,EF,2,4,,,,,0,23,23,59,,,,,,4,1,0.816362750797,,,,,,2016_Jan_12_1519,P5,PLC_L_D1S2,NHGY,60.0154417537,
stim/posf.jpg,stim/negf.jpg,stim/3.jpg,stim/1.jpg,stim/latef.jpg,EF,1,2,,,,,0,24,24,40,,,,,,2,1,0.666433328947,,,,,,2016_Jan_12_1519,P5,PLC_L_D1S2,NHGY,60.0154417537,
stim/negf.jpg,stim/posf.jpg,stim/1.jpg,stim/3.jpg,stim/latef.jpg,EF,2,4,,,,,0,25,25,56,,,,,,4,1,0.783063631613,,,,,,2016_Jan_12_1519,P5,PLC_L_D1S2,NHGY,60.0154417537,
stim/negf.jpg,stim/posf.jpg,stim/2.jpg,stim/5.jpg,stim/latef.jpg,AB,2,4,,,,,0,26,26,16,,,,,,2,0,0.533198184983,,,,,,2016_Jan_12_1519,P5,PLC_L_D1S2,NHGY,60.0154417537,
stim/negf.jpg,stim/posf.jpg,stim/2.jpg,stim/5.jpg,stim/latef.jpg,AB,2,4,,,,,0,27,27,18,,,,,,4,1,1.08297029131,,,,,,2016_Jan_12_1519,P5,PLC_L_D1S2,NHGY,60.0154417537,
stim/posf.jpg,stim/negf.jpg,stim/2.jpg,stim/5.jpg,stim/latef.jpg,AB,2,4,,,,,0,28,28,14,,,,,,4,1,0.616464066947,,,,,,2016_Jan_12_1519,P5,PLC_L_D1S2,NHGY,60.0154417537,
stim/posf.jpg,stim/negf.jpg,stim/1.jpg,stim/3.jpg,stim/latef.jpg,EF,2,4,,,,,0,29,29,54,,,,,,4,1,0.699768183065,,,,,,2016_Jan_12_1519,P5,PLC_L_D1S2,NHGY,60.0154417537,
stim/posf.jpg,stim/negf.jpg,stim/1.jpg,stim/3.jpg,stim/latef.jpg,EF,2,4,,,,,0,30,30,53,,,,,,2,0,0.966349077266,,,,,,2016_Jan_12_1519,P5,PLC_L_D1S2,NHGY,60.0154417537,
stim/negf.jpg,stim/posf.jpg,stim/6.jpg,stim/4.jpg,stim/latef.jpg,CD,2,4,,,,,0,31,31,39,,,,,,4,1,0.833008638248,,,,,,2016_Jan_12_1519,P5,PLC_L_D1S2,NHGY,60.0154417537,
stim/posf.jpg,stim/negf.jpg,stim/4.jpg,stim/6.jpg,stim/latef.jpg,CD,1,2,,,,,0,32,32,25,,,,,,4,0,0.832995727115,,,,,,2016_Jan_12_1519,P5,PLC_L_D1S2,NHGY,60.0154417537,
stim/posf.jpg,stim/negf.jpg,stim/4.jpg,stim/6.jpg,stim/latef.jpg,CD,1,2,,,,,0,33,33,24,,,,,,4,0,0.916366495115,,,,,,2016_Jan_12_1519,P5,PLC_L_D1S2,NHGY,60.0154417537,
stim/negf.jpg,stim/posf.jpg,stim/3.jpg,stim/1.jpg,stim/latef.jpg,EF,1,2,,,,,0,34,34,47,,,,,,4,0,0.63312961132,,,,,,2016_Jan_12_1519,P5,PLC_L_D1S2,NHGY,60.0154417537,
stim/posf.jpg,stim/negf.jpg,stim/6.jpg,stim/4.jpg,stim/latef.jpg,CD,2,4,,,,,0,35,35,31,,,,,,2,0,0.73308735315,,,,,,2016_Jan_12_1519,P5,PLC_L_D1S2,NHGY,60.0154417537,
stim/negf.jpg,stim/posf.jpg,stim/5.jpg,stim/2.jpg,stim/latef.jpg,AB,1,2,,,,,0,36,36,6,,,,,,2,1,0.982924475288,,,,,,2016_Jan_12_1519,P5,PLC_L_D1S2,NHGY,60.0154417537,
stim/posf.jpg,stim/negf.jpg,stim/3.jpg,stim/1.jpg,stim/latef.jpg,EF,1,2,,,,,0,37,37,44,,,,,,4,0,1.01629760867,,,,,,2016_Jan_12_1519,P5,PLC_L_D1S2,NHGY,60.0154417537,
stim/posf.jpg,stim/negf.jpg,stim/5.jpg,stim/2.jpg,stim/latef.jpg,AB,1,2,,,,,0,38,38,1,,,,,,2,1,1.04963469735,,,,,,2016_Jan_12_1519,P5,PLC_L_D1S2,NHGY,60.0154417537,
stim/posf.jpg,stim/negf.jpg,stim/3.jpg,stim/1.jpg,stim/latef.jpg,EF,1,2,,,,,0,39,39,41,,,,,,4,0,1.29955931625,,,,,,2016_Jan_12_1519,P5,PLC_L_D1S2,NHGY,60.0154417537,
stim/posf.jpg,stim/negf.jpg,stim/5.jpg,stim/2.jpg,stim/latef.jpg,AB,1,2,,,,,0,40,40,2,,,,,,2,1,0.733087888482,,,,,,2016_Jan_12_1519,P5,PLC_L_D1S2,NHGY,60.0154417537,
stim/posf.jpg,stim/negf.jpg,stim/6.jpg,stim/4.jpg,stim/latef.jpg,CD,2,4,,,,,0,41,41,32,,,,,,4,1,0.699767798107,,,,,,2016_Jan_12_1519,P5,PLC_L_D1S2,NHGY,60.0154417537,
stim/posf.jpg,stim/negf.jpg,stim/2.jpg,stim/5.jpg,stim/latef.jpg,AB,2,4,,,,,0,42,42,10,,,,,,4,1,0.766405584899,,,,,,2016_Jan_12_1519,P5,PLC_L_D1S2,NHGY,60.0154417537,
stim/negf.jpg,stim/posf.jpg,stim/4.jpg,stim/6.jpg,stim/latef.jpg,CD,1,2,,,,,0,43,43,28,,,,,,2,1,0.816393995557,,,,,,2016_Jan_12_1519,P5,PLC_L_D1S2,NHGY,60.0154417537,
stim/negf.jpg,stim/posf.jpg,stim/2.jpg,stim/5.jpg,stim/latef.jpg,AB,2,4,,,,,0,44,44,19,,,,,,4,1,0.916336549588,,,,,,2016_Jan_12_1519,P5,PLC_L_D1S2,NHGY,60.0154417537,
stim/negf.jpg,stim/posf.jpg,stim/3.jpg,stim/1.jpg,stim/latef.jpg,EF,1,2,,,,,0,45,45,46,,,,,,2,1,0.683108082239,,,,,,2016_Jan_12_1519,P5,PLC_L_D1S2,NHGY,60.0154417537,
stim/posf.jpg,stim/negf.jpg,stim/1.jpg,stim/3.jpg,stim/latef.jpg,EF,2,4,,,,,0,46,46,50,,,,,,2,0,0.683104407093,,,,,,2016_Jan_12_1519,P5,PLC_L_D1S2,NHGY,60.0154417537,
stim/negf.jpg,stim/posf.jpg,stim/2.jpg,stim/5.jpg,stim/latef.jpg,AB,2,4,,,,,0,47,47,17,,,,,,4,1,0.833069738312,,,,,,2016_Jan_12_1519,P5,PLC_L_D1S2,NHGY,60.0154417537,
stim/negf.jpg,stim/posf.jpg,stim/3.jpg,stim/1.jpg,stim/latef.jpg,EF,1,2,,,,,0,48,48,49,,,,,,4,0,1.21625913993,,,,,,2016_Jan_12_1519,P5,PLC_L_D1S2,NHGY,60.0154417537,
stim/posf.jpg,stim/negf.jpg,stim/3.jpg,stim/1.jpg,stim/latef.jpg,EF,1,2,,,,,0,49,49,42,,,,,,4,0,0.649780828036,,,,,,2016_Jan_12_1519,P5,PLC_L_D1S2,NHGY,60.0154417537,
stim/posf.jpg,stim/negf.jpg,stim/1.jpg,stim/3.jpg,stim/latef.jpg,EF,2,4,,,,,0,50,50,52,,,,,,4,1,1.1829279369,,,,,,2016_Jan_12_1519,P5,PLC_L_D1S2,NHGY,60.0154417537,
stim/posf.jpg,stim/negf.jpg,stim/4.jpg,stim/6.jpg,stim/latef.jpg,CD,1,2,,,,,0,51,51,23,,,,,,2,1,1.03297822656,,,,,,2016_Jan_12_1519,P5,PLC_L_D1S2,NHGY,60.0154417537,
stim/negf.jpg,stim/posf.jpg,stim/1.jpg,stim/3.jpg,stim/latef.jpg,EF,2,4,,,,,0,52,52,57,,,,,,4,1,1.06633061131,,,,,,2016_Jan_12_1519,P5,PLC_L_D1S2,NHGY,60.0154417537,
stim/negf.jpg,stim/posf.jpg,stim/6.jpg,stim/4.jpg,stim/latef.jpg,CD,2,4,,,,,0,53,53,38,,,,,,4,1,0.916368780803,,,,,,2016_Jan_12_1519,P5,PLC_L_D1S2,NHGY,60.0154417537,
stim/posf.jpg,stim/negf.jpg,stim/5.jpg,stim/2.jpg,stim/latef.jpg,AB,1,2,,,,,0,54,54,0,,,,,,2,1,0.683085141145,,,,,,2016_Jan_12_1519,P5,PLC_L_D1S2,NHGY,60.0154417537,
stim/posf.jpg,stim/negf.jpg,stim/4.jpg,stim/6.jpg,stim/latef.jpg,CD,1,2,,,,,0,55,55,21,,,,,,2,1,0.916377150634,,,,,,2016_Jan_12_1519,P5,PLC_L_D1S2,NHGY,60.0154417537,
stim/posf.jpg,stim/negf.jpg,stim/2.jpg,stim/5.jpg,stim/latef.jpg,AB,2,4,,,,,0,56,56,11,,,,,,4,1,0.799764083863,,,,,,2016_Jan_12_1519,P5,PLC_L_D1S2,NHGY,60.0154417537,
stim/negf.jpg,stim/posf.jpg,stim/4.jpg,stim/6.jpg,stim/latef.jpg,CD,1,2,,,,,0,57,57,26,,,,,,2,1,0.883085526103,,,,,,2016_Jan_12_1519,P5,PLC_L_D1S2,NHGY,60.0154417537,
stim/posf.jpg,stim/negf.jpg,stim/2.jpg,stim/5.jpg,stim/latef.jpg,AB,2,4,,,,,0,58,58,12,,,,,,4,1,0.633044788216,,,,,,2016_Jan_12_1519,P5,PLC_L_D1S2,NHGY,60.0154417537,
stim/posf.jpg,stim/negf.jpg,stim/1.jpg,stim/3.jpg,stim/latef.jpg,EF,2,4,,,,,0,59,59,55,,,,,,4,1,0.716416175757,,,,,,2016_Jan_12_1519,P5,PLC_L_D1S2,NHGY,60.0154417537,
