fb_corr,fb_incorr,symbol2,symbol1,fb_late,pair,position,correct,block_01.thisRepN,block_01.thisTrialN,block_01.thisN,block_01.thisIndex,block_02.thisRepN,block_02.thisTrialN,block_02.thisN,block_02.thisIndex,mouse.x,mouse.y,mouse.leftButton,mouse.midButton,mouse.rightButton,buttonBox_2.keys,buttonBox_2.corr,buttonBox_2.rt,mouse_2.x,mouse_2.y,mouse_2.leftButton,mouse_2.midButton,mouse_2.rightButton,date,Participant,expName,Group,frameRate,
,,,,,,,,,,,,,,,,0.99875,1.0,1,0,0,,,,,,,,,2017_Jan_26_1720,P9,PLC_L_D1S2,NHGY,59.9991818518,
stim/negf.jpg,stim/posf.jpg,stim/1.jpg,stim/6.jpg,stim/latef.jpg,CD,2,4,0,0,0,36,,,,,,,,,,2,0,0.383360089022,,,,,,2017_Jan_26_1720,P9,PLC_L_D1S2,NHGY,59.9991818518,
stim/posf.jpg,stim/negf.jpg,stim/6.jpg,stim/1.jpg,stim/latef.jpg,CD,1,2,0,1,1,23,,,,,,,,,,4,0,0.90004924775,,,,,,2017_Jan_26_1720,P9,PLC_L_D1S2,NHGY,59.9991818518,
stim/negf.jpg,stim/posf.jpg,stim/6.jpg,stim/1.jpg,stim/latef.jpg,CD,1,2,0,2,2,27,,,,,,,,,,2,1,0.783337075662,,,,,,2017_Jan_26_1720,P9,PLC_L_D1S2,NHGY,59.9991818518,
stim/negf.jpg,stim/posf.jpg,stim/2.jpg,stim/3.jpg,stim/latef.jpg,EF,1,2,0,3,3,47,,,,,,,,,,4,0,0.983285686574,,,,,,2017_Jan_26_1720,P9,PLC_L_D1S2,NHGY,59.9991818518,
stim/posf.jpg,stim/negf.jpg,stim/4.jpg,stim/5.jpg,stim/latef.jpg,AB,2,4,0,4,4,13,,,,,,,,,,2,0,1.00000539846,,,,,,2017_Jan_26_1720,P9,PLC_L_D1S2,NHGY,59.9991818518,
stim/negf.jpg,stim/posf.jpg,stim/3.jpg,stim/2.jpg,stim/latef.jpg,EF,2,4,0,5,5,55,,,,,,,,,,4,1,1.09996510101,,,,,,2017_Jan_26_1720,P9,PLC_L_D1S2,NHGY,59.9991818518,
stim/posf.jpg,stim/negf.jpg,stim/2.jpg,stim/3.jpg,stim/latef.jpg,EF,1,2,0,6,6,40,,,,,,,,,,2,1,1.01666066872,,,,,,2017_Jan_26_1720,P9,PLC_L_D1S2,NHGY,59.9991818518,
stim/negf.jpg,stim/posf.jpg,stim/3.jpg,stim/2.jpg,stim/latef.jpg,EF,2,4,0,7,7,58,,,,,,,,,,4,1,0.966654091323,,,,,,2017_Jan_26_1720,P9,PLC_L_D1S2,NHGY,59.9991818518,
stim/negf.jpg,stim/posf.jpg,stim/1.jpg,stim/6.jpg,stim/latef.jpg,CD,2,4,0,8,8,38,,,,,,,,,,2,0,1.01665075902,,,,,,2017_Jan_26_1720,P9,PLC_L_D1S2,NHGY,59.9991818518,
stim/negf.jpg,stim/posf.jpg,stim/1.jpg,stim/6.jpg,stim/latef.jpg,CD,2,4,0,9,9,39,,,,,,,,,,2,0,1.18328842339,,,,,,2017_Jan_26_1720,P9,PLC_L_D1S2,NHGY,59.9991818518,
stim/negf.jpg,stim/posf.jpg,stim/3.jpg,stim/2.jpg,stim/latef.jpg,EF,2,4,0,10,10,59,,,,,,,,,,4,1,1.26664537861,,,,,,2017_Jan_26_1720,P9,PLC_L_D1S2,NHGY,59.9991818518,
stim/negf.jpg,stim/posf.jpg,stim/2.jpg,stim/3.jpg,stim/latef.jpg,EF,1,2,0,11,11,49,,,,,,,,,,4,0,1.55001040594,,,,,,2017_Jan_26_1720,P9,PLC_L_D1S2,NHGY,59.9991818518,
stim/posf.jpg,stim/negf.jpg,stim/3.jpg,stim/2.jpg,stim/latef.jpg,EF,2,4,0,12,12,54,,,,,,,,,,2,0,1.58333545763,,,,,,2017_Jan_26_1720,P9,PLC_L_D1S2,NHGY,59.9991818518,
stim/posf.jpg,stim/negf.jpg,stim/3.jpg,stim/2.jpg,stim/latef.jpg,EF,2,4,0,13,13,53,,,,,,,,,,4,1,1.63334046812,,,,,,2017_Jan_26_1720,P9,PLC_L_D1S2,NHGY,59.9991818518,
stim/posf.jpg,stim/negf.jpg,stim/6.jpg,stim/1.jpg,stim/latef.jpg,CD,1,2,0,14,14,21,,,,,,,,,,4,0,1.21673378095,,,,,,2017_Jan_26_1720,P9,PLC_L_D1S2,NHGY,59.9991818518,
stim/posf.jpg,stim/negf.jpg,stim/4.jpg,stim/5.jpg,stim/latef.jpg,AB,2,4,0,15,15,15,,,,,,,,,,2,0,1.08327753325,,,,,,2017_Jan_26_1720,P9,PLC_L_D1S2,NHGY,59.9991818518,
stim/posf.jpg,stim/negf.jpg,stim/2.jpg,stim/3.jpg,stim/latef.jpg,EF,1,2,0,16,16,42,,,,,,,,,,2,1,1.13333665762,,,,,,2017_Jan_26_1720,P9,PLC_L_D1S2,NHGY,59.9991818518,
stim/posf.jpg,stim/negf.jpg,stim/1.jpg,stim/6.jpg,stim/latef.jpg,CD,2,4,0,17,17,31,,,,,,,,,,2,0,1.06664939061,,,,,,2017_Jan_26_1720,P9,PLC_L_D1S2,NHGY,59.9991818518,
stim/posf.jpg,stim/negf.jpg,stim/2.jpg,stim/3.jpg,stim/latef.jpg,EF,1,2,0,18,18,41,,,,,,,,,,2,1,1.18332895241,,,,,,2017_Jan_26_1720,P9,PLC_L_D1S2,NHGY,59.9991818518,
stim/negf.jpg,stim/posf.jpg,stim/4.jpg,stim/5.jpg,stim/latef.jpg,AB,2,4,0,19,19,17,,,,,,,,,,4,1,1.11665521011,,,,,,2017_Jan_26_1720,P9,PLC_L_D1S2,NHGY,59.9991818518,
stim/negf.jpg,stim/posf.jpg,stim/4.jpg,stim/5.jpg,stim/latef.jpg,AB,2,4,0,20,20,16,,,,,,,,,,2,0,1.18332499756,,,,,,2017_Jan_26_1720,P9,PLC_L_D1S2,NHGY,59.9991818518,
stim/posf.jpg,stim/negf.jpg,stim/2.jpg,stim/3.jpg,stim/latef.jpg,EF,1,2,0,21,21,44,,,,,,,,,,2,1,1.08334907557,,,,,,2017_Jan_26_1720,P9,PLC_L_D1S2,NHGY,59.9991818518,
stim/posf.jpg,stim/negf.jpg,stim/6.jpg,stim/1.jpg,stim/latef.jpg,CD,1,2,0,22,22,20,,,,,,,,,,2,1,1.06666999797,,,,,,2017_Jan_26_1720,P9,PLC_L_D1S2,NHGY,59.9991818518,
stim/posf.jpg,stim/negf.jpg,stim/6.jpg,stim/1.jpg,stim/latef.jpg,CD,1,2,0,23,23,22,,,,,,,,,,2,1,1.23333843505,,,,,,2017_Jan_26_1720,P9,PLC_L_D1S2,NHGY,59.9991818518,
stim/posf.jpg,stim/negf.jpg,stim/5.jpg,stim/4.jpg,stim/latef.jpg,AB,1,2,0,24,24,1,,,,,,,,,,4,0,1.01667338742,,,,,,2017_Jan_26_1720,P9,PLC_L_D1S2,NHGY,59.9991818518,
stim/posf.jpg,stim/negf.jpg,stim/3.jpg,stim/2.jpg,stim/latef.jpg,EF,2,4,0,25,25,52,,,,,,,,,,4,1,0.899993230127,,,,,,2017_Jan_26_1720,P9,PLC_L_D1S2,NHGY,59.9991818518,
stim/posf.jpg,stim/negf.jpg,stim/2.jpg,stim/3.jpg,stim/latef.jpg,EF,1,2,0,26,26,45,,,,,,,,,,2,1,0.933333704257,,,,,,2017_Jan_26_1720,P9,PLC_L_D1S2,NHGY,59.9991818518,
stim/negf.jpg,stim/posf.jpg,stim/4.jpg,stim/5.jpg,stim/latef.jpg,AB,2,4,0,27,27,19,,,,,,,,,,4,1,1.16667112578,,,,,,2017_Jan_26_1720,P9,PLC_L_D1S2,NHGY,59.9991818518,
stim/negf.jpg,stim/posf.jpg,stim/6.jpg,stim/1.jpg,stim/latef.jpg,CD,1,2,0,28,28,26,,,,,,,,,,2,1,1.24990075563,,,,,,2017_Jan_26_1720,P9,PLC_L_D1S2,NHGY,59.9991818518,
stim/negf.jpg,stim/posf.jpg,stim/4.jpg,stim/5.jpg,stim/latef.jpg,AB,2,4,0,29,29,18,,,,,,,,,,2,0,1.2499937414,,,,,,2017_Jan_26_1720,P9,PLC_L_D1S2,NHGY,59.9991818518,
stim/negf.jpg,stim/posf.jpg,stim/1.jpg,stim/6.jpg,stim/latef.jpg,CD,2,4,0,30,30,37,,,,,,,,,,4,1,1.03330328043,,,,,,2017_Jan_26_1720,P9,PLC_L_D1S2,NHGY,59.9991818518,
stim/negf.jpg,stim/posf.jpg,stim/5.jpg,stim/4.jpg,stim/latef.jpg,AB,1,2,0,31,31,7,,,,,,,,,,2,1,1.23333998692,,,,,,2017_Jan_26_1720,P9,PLC_L_D1S2,NHGY,59.9991818518,
stim/negf.jpg,stim/posf.jpg,stim/5.jpg,stim/4.jpg,stim/latef.jpg,AB,1,2,0,32,32,6,,,,,,,,,,4,0,1.05001684198,,,,,,2017_Jan_26_1720,P9,PLC_L_D1S2,NHGY,59.9991818518,
stim/negf.jpg,stim/posf.jpg,stim/2.jpg,stim/3.jpg,stim/latef.jpg,EF,1,2,0,33,33,46,,,,,,,,,,2,1,0.816624828385,,,,,,2017_Jan_26_1720,P9,PLC_L_D1S2,NHGY,59.9991818518,
stim/posf.jpg,stim/negf.jpg,stim/5.jpg,stim/4.jpg,stim/latef.jpg,AB,1,2,0,34,34,5,,,,,,,,,,4,0,0.799988757979,,,,,,2017_Jan_26_1720,P9,PLC_L_D1S2,NHGY,59.9991818518,
stim/posf.jpg,stim/negf.jpg,stim/1.jpg,stim/6.jpg,stim/latef.jpg,CD,2,4,0,35,35,35,,,,,,,,,,2,0,0.966726577995,,,,,,2017_Jan_26_1720,P9,PLC_L_D1S2,NHGY,59.9991818518,
stim/posf.jpg,stim/negf.jpg,stim/1.jpg,stim/6.jpg,stim/latef.jpg,CD,2,4,0,36,36,34,,,,,,,,,,4,1,0.983325878753,,,,,,2017_Jan_26_1720,P9,PLC_L_D1S2,NHGY,59.9991818518,
stim/posf.jpg,stim/negf.jpg,stim/4.jpg,stim/5.jpg,stim/latef.jpg,AB,2,4,0,37,37,12,,,,,,,,,,2,0,0.950043283885,,,,,,2017_Jan_26_1720,P9,PLC_L_D1S2,NHGY,59.9991818518,
stim/posf.jpg,stim/negf.jpg,stim/6.jpg,stim/1.jpg,stim/latef.jpg,CD,1,2,0,38,38,25,,,,,,,,,,4,0,1.06665834693,,,,,,2017_Jan_26_1720,P9,PLC_L_D1S2,NHGY,59.9991818518,
stim/posf.jpg,stim/negf.jpg,stim/4.jpg,stim/5.jpg,stim/latef.jpg,AB,2,4,0,39,39,11,,,,,,,,,,2,0,1.28312528477,,,,,,2017_Jan_26_1720,P9,PLC_L_D1S2,NHGY,59.9991818518,
stim/posf.jpg,stim/negf.jpg,stim/5.jpg,stim/4.jpg,stim/latef.jpg,AB,1,2,0,40,40,4,,,,,,,,,,2,1,1.3333433884,,,,,,2017_Jan_26_1720,P9,PLC_L_D1S2,NHGY,59.9991818518,
stim/posf.jpg,stim/negf.jpg,stim/5.jpg,stim/4.jpg,stim/latef.jpg,AB,1,2,0,41,41,3,,,,,,,,,,2,1,1.11664256359,,,,,,2017_Jan_26_1720,P9,PLC_L_D1S2,NHGY,59.9991818518,
stim/posf.jpg,stim/negf.jpg,stim/3.jpg,stim/2.jpg,stim/latef.jpg,EF,2,4,0,42,42,51,,,,,,,,,,4,1,0.916651318411,,,,,,2017_Jan_26_1720,P9,PLC_L_D1S2,NHGY,59.9991818518,
stim/posf.jpg,stim/negf.jpg,stim/1.jpg,stim/6.jpg,stim/latef.jpg,CD,2,4,0,43,43,30,,,,,,,,,,4,1,1.13333943053,,,,,,2017_Jan_26_1720,P9,PLC_L_D1S2,NHGY,59.9991818518,
stim/posf.jpg,stim/negf.jpg,stim/1.jpg,stim/6.jpg,stim/latef.jpg,CD,2,4,0,44,44,32,,,,,,,,,,4,1,1.05008839031,,,,,,2017_Jan_26_1720,P9,PLC_L_D1S2,NHGY,59.9991818518,
stim/posf.jpg,stim/negf.jpg,stim/1.jpg,stim/6.jpg,stim/latef.jpg,CD,2,4,0,45,45,33,,,,,,,,,,4,1,1.29998787979,,,,,,2017_Jan_26_1720,P9,PLC_L_D1S2,NHGY,59.9991818518,
stim/posf.jpg,stim/negf.jpg,stim/3.jpg,stim/2.jpg,stim/latef.jpg,EF,2,4,0,46,46,50,,,,,,,,,,4,1,0.88333358095,,,,,,2017_Jan_26_1720,P9,PLC_L_D1S2,NHGY,59.9991818518,
stim/posf.jpg,stim/negf.jpg,stim/6.jpg,stim/1.jpg,stim/latef.jpg,CD,1,2,0,47,47,24,,,,,,,,,,4,0,1.3999881655,,,,,,2017_Jan_26_1720,P9,PLC_L_D1S2,NHGY,59.9991818518,
stim/negf.jpg,stim/posf.jpg,stim/5.jpg,stim/4.jpg,stim/latef.jpg,AB,1,2,0,48,48,9,,,,,,,,,,2,1,1.20001830964,,,,,,2017_Jan_26_1720,P9,PLC_L_D1S2,NHGY,59.9991818518,
stim/negf.jpg,stim/posf.jpg,stim/6.jpg,stim/1.jpg,stim/latef.jpg,CD,1,2,0,49,49,29,,,,,,,,,,4,0,1.18331740363,,,,,,2017_Jan_26_1720,P9,PLC_L_D1S2,NHGY,59.9991818518,
stim/negf.jpg,stim/posf.jpg,stim/2.jpg,stim/3.jpg,stim/latef.jpg,EF,1,2,0,50,50,48,,,,,,,,,,2,1,0.799988929407,,,,,,2017_Jan_26_1720,P9,PLC_L_D1S2,NHGY,59.9991818518,
stim/posf.jpg,stim/negf.jpg,stim/5.jpg,stim/4.jpg,stim/latef.jpg,AB,1,2,0,51,51,0,,,,,,,,,,4,0,0.983318188585,,,,,,2017_Jan_26_1720,P9,PLC_L_D1S2,NHGY,59.9991818518,
stim/negf.jpg,stim/posf.jpg,stim/3.jpg,stim/2.jpg,stim/latef.jpg,EF,2,4,0,52,52,56,,,,,,,,,,4,1,0.916674166359,,,,,,2017_Jan_26_1720,P9,PLC_L_D1S2,NHGY,59.9991818518,
stim/posf.jpg,stim/negf.jpg,stim/4.jpg,stim/5.jpg,stim/latef.jpg,AB,2,4,0,53,53,14,,,,,,,,,,2,0,0.699995145901,,,,,,2017_Jan_26_1720,P9,PLC_L_D1S2,NHGY,59.9991818518,
stim/negf.jpg,stim/posf.jpg,stim/5.jpg,stim/4.jpg,stim/latef.jpg,AB,1,2,0,54,54,8,,,,,,,,,,2,1,1.35004785227,,,,,,2017_Jan_26_1720,P9,PLC_L_D1S2,NHGY,59.9991818518,
stim/posf.jpg,stim/negf.jpg,stim/5.jpg,stim/4.jpg,stim/latef.jpg,AB,1,2,0,55,55,2,,,,,,,,,,4,0,1.03332880505,,,,,,2017_Jan_26_1720,P9,PLC_L_D1S2,NHGY,59.9991818518,
stim/negf.jpg,stim/posf.jpg,stim/3.jpg,stim/2.jpg,stim/latef.jpg,EF,2,4,0,56,56,57,,,,,,,,,,4,1,0.799998427079,,,,,,2017_Jan_26_1720,P9,PLC_L_D1S2,NHGY,59.9991818518,
stim/negf.jpg,stim/posf.jpg,stim/6.jpg,stim/1.jpg,stim/latef.jpg,CD,1,2,0,57,57,28,,,,,,,,,,4,0,1.10002622537,,,,,,2017_Jan_26_1720,P9,PLC_L_D1S2,NHGY,59.9991818518,
stim/posf.jpg,stim/negf.jpg,stim/4.jpg,stim/5.jpg,stim/latef.jpg,AB,2,4,0,58,58,10,,,,,,,,,,2,0,0.899989930903,,,,,,2017_Jan_26_1720,P9,PLC_L_D1S2,NHGY,59.9991818518,
stim/posf.jpg,stim/negf.jpg,stim/2.jpg,stim/3.jpg,stim/latef.jpg,EF,1,2,0,59,59,43,,,,,,,,,,2,1,0.866664936354,,,,,,2017_Jan_26_1720,P9,PLC_L_D1S2,NHGY,59.9991818518,
,,,,,,,,,,,,,,,,,,,,,,,,0.99875,1.0,1,0,0,2017_Jan_26_1720,P9,PLC_L_D1S2,NHGY,59.9991818518,
stim/posf.jpg,stim/negf.jpg,stim/6.jpg,stim/1.jpg,stim/latef.jpg,CD,1,2,,,,,0,0,0,21,,,,,,4,0,0.916647540996,,,,,,2017_Jan_26_1720,P9,PLC_L_D1S2,NHGY,59.9991818518,
stim/posf.jpg,stim/negf.jpg,stim/6.jpg,stim/1.jpg,stim/latef.jpg,CD,1,2,,,,,0,1,1,23,,,,,,2,1,1.29999634589,,,,,,2017_Jan_26_1720,P9,PLC_L_D1S2,NHGY,59.9991818518,
stim/negf.jpg,stim/posf.jpg,stim/2.jpg,stim/3.jpg,stim/latef.jpg,EF,1,2,,,,,0,2,2,49,,,,,,2,1,0.833325171991,,,,,,2017_Jan_26_1720,P9,PLC_L_D1S2,NHGY,59.9991818518,
stim/negf.jpg,stim/posf.jpg,stim/5.jpg,stim/4.jpg,stim/latef.jpg,AB,1,2,,,,,0,3,3,9,,,,,,4,0,0.983348182344,,,,,,2017_Jan_26_1720,P9,PLC_L_D1S2,NHGY,59.9991818518,
stim/negf.jpg,stim/posf.jpg,stim/2.jpg,stim/3.jpg,stim/latef.jpg,EF,1,2,,,,,0,4,4,45,,,,,,2,1,0.850004589439,,,,,,2017_Jan_26_1720,P9,PLC_L_D1S2,NHGY,59.9991818518,
stim/posf.jpg,stim/negf.jpg,stim/4.jpg,stim/5.jpg,stim/latef.jpg,AB,2,4,,,,,0,5,5,13,,,,,,2,0,1.08332562011,,,,,,2017_Jan_26_1720,P9,PLC_L_D1S2,NHGY,59.9991818518,
stim/negf.jpg,stim/posf.jpg,stim/5.jpg,stim/4.jpg,stim/latef.jpg,AB,1,2,,,,,0,6,6,7,,,,,,2,1,1.11670819618,,,,,,2017_Jan_26_1720,P9,PLC_L_D1S2,NHGY,59.9991818518,
stim/posf.jpg,stim/negf.jpg,stim/2.jpg,stim/3.jpg,stim/latef.jpg,EF,1,2,,,,,0,7,7,43,,,,,,2,1,1.55001842091,,,,,,2017_Jan_26_1720,P9,PLC_L_D1S2,NHGY,59.9991818518,
stim/posf.jpg,stim/negf.jpg,stim/1.jpg,stim/6.jpg,stim/latef.jpg,CD,2,4,,,,,0,8,8,34,,,,,,2,0,1.28332414944,,,,,,2017_Jan_26_1720,P9,PLC_L_D1S2,NHGY,59.9991818518,
stim/posf.jpg,stim/negf.jpg,stim/5.jpg,stim/4.jpg,stim/latef.jpg,AB,1,2,,,,,0,9,9,0,,,,,,4,0,0.749994842144,,,,,,2017_Jan_26_1720,P9,PLC_L_D1S2,NHGY,59.9991818518,
stim/posf.jpg,stim/negf.jpg,stim/5.jpg,stim/4.jpg,stim/latef.jpg,AB,1,2,,,,,0,10,10,1,,,,,,2,1,0.700007503703,,,,,,2017_Jan_26_1720,P9,PLC_L_D1S2,NHGY,59.9991818518,
stim/posf.jpg,stim/negf.jpg,stim/1.jpg,stim/6.jpg,stim/latef.jpg,CD,2,4,,,,,0,11,11,35,,,,,,2,0,0.933338946324,,,,,,2017_Jan_26_1720,P9,PLC_L_D1S2,NHGY,59.9991818518,
stim/negf.jpg,stim/posf.jpg,stim/6.jpg,stim/1.jpg,stim/latef.jpg,CD,1,2,,,,,0,12,12,27,,,,,,4,0,0.983325866723,,,,,,2017_Jan_26_1720,P9,PLC_L_D1S2,NHGY,59.9991818518,
stim/posf.jpg,stim/negf.jpg,stim/1.jpg,stim/6.jpg,stim/latef.jpg,CD,2,4,,,,,0,13,13,33,,,,,,2,0,1.05001125706,,,,,,2017_Jan_26_1720,P9,PLC_L_D1S2,NHGY,59.9991818518,
stim/posf.jpg,stim/negf.jpg,stim/5.jpg,stim/4.jpg,stim/latef.jpg,AB,1,2,,,,,0,14,14,3,,,,,,2,1,1.13332138555,,,,,,2017_Jan_26_1720,P9,PLC_L_D1S2,NHGY,59.9991818518,
stim/posf.jpg,stim/negf.jpg,stim/4.jpg,stim/5.jpg,stim/latef.jpg,AB,2,4,,,,,0,15,15,15,,,,,,2,0,0.833328320839,,,,,,2017_Jan_26_1720,P9,PLC_L_D1S2,NHGY,59.9991818518,
stim/negf.jpg,stim/posf.jpg,stim/3.jpg,stim/2.jpg,stim/latef.jpg,EF,2,4,,,,,0,16,16,56,,,,,,4,1,0.966657342426,,,,,,2017_Jan_26_1720,P9,PLC_L_D1S2,NHGY,59.9991818518,
stim/negf.jpg,stim/posf.jpg,stim/6.jpg,stim/1.jpg,stim/latef.jpg,CD,1,2,,,,,0,17,17,29,,,,,,2,1,1.14998604221,,,,,,2017_Jan_26_1720,P9,PLC_L_D1S2,NHGY,59.9991818518,
stim/negf.jpg,stim/posf.jpg,stim/1.jpg,stim/6.jpg,stim/latef.jpg,CD,2,4,,,,,0,18,18,38,,,,,,4,1,1.03334534928,,,,,,2017_Jan_26_1720,P9,PLC_L_D1S2,NHGY,59.9991818518,
stim/negf.jpg,stim/posf.jpg,stim/2.jpg,stim/3.jpg,stim/latef.jpg,EF,1,2,,,,,0,19,19,47,,,,,,4,0,1.01667561898,,,,,,2017_Jan_26_1720,P9,PLC_L_D1S2,NHGY,59.9991818518,
stim/posf.jpg,stim/negf.jpg,stim/3.jpg,stim/2.jpg,stim/latef.jpg,EF,2,4,,,,,0,20,20,53,,,,,,2,0,0.900004312749,,,,,,2017_Jan_26_1720,P9,PLC_L_D1S2,NHGY,59.9991818518,
stim/posf.jpg,stim/negf.jpg,stim/4.jpg,stim/5.jpg,stim/latef.jpg,AB,2,4,,,,,0,21,21,10,,,,,,2,0,1.11662707498,,,,,,2017_Jan_26_1720,P9,PLC_L_D1S2,NHGY,59.9991818518,
stim/posf.jpg,stim/negf.jpg,stim/2.jpg,stim/3.jpg,stim/latef.jpg,EF,1,2,,,,,0,22,22,42,,,,,,2,1,1.05002533816,,,,,,2017_Jan_26_1720,P9,PLC_L_D1S2,NHGY,59.9991818518,
stim/negf.jpg,stim/posf.jpg,stim/2.jpg,stim/3.jpg,stim/latef.jpg,EF,1,2,,,,,0,23,23,46,,,,,,4,0,0.850000631574,,,,,,2017_Jan_26_1720,P9,PLC_L_D1S2,NHGY,59.9991818518,
stim/negf.jpg,stim/posf.jpg,stim/1.jpg,stim/6.jpg,stim/latef.jpg,CD,2,4,,,,,0,24,24,36,,,,,,2,0,0.883322002091,,,,,,2017_Jan_26_1720,P9,PLC_L_D1S2,NHGY,59.9991818518,
stim/negf.jpg,stim/posf.jpg,stim/3.jpg,stim/2.jpg,stim/latef.jpg,EF,2,4,,,,,0,25,25,59,,,,,,4,1,1.049988364,,,,,,2017_Jan_26_1720,P9,PLC_L_D1S2,NHGY,59.9991818518,
stim/posf.jpg,stim/negf.jpg,stim/4.jpg,stim/5.jpg,stim/latef.jpg,AB,2,4,,,,,0,26,26,14,,,,,,2,0,0.750000303757,,,,,,2017_Jan_26_1720,P9,PLC_L_D1S2,NHGY,59.9991818518,
stim/negf.jpg,stim/posf.jpg,stim/4.jpg,stim/5.jpg,stim/latef.jpg,AB,2,4,,,,,0,27,27,16,,,,,,4,1,0.616624467485,,,,,,2017_Jan_26_1720,P9,PLC_L_D1S2,NHGY,59.9991818518,
stim/posf.jpg,stim/negf.jpg,stim/6.jpg,stim/1.jpg,stim/latef.jpg,CD,1,2,,,,,0,28,28,22,,,,,,4,0,1.08337043481,,,,,,2017_Jan_26_1720,P9,PLC_L_D1S2,NHGY,59.9991818518,
stim/posf.jpg,stim/negf.jpg,stim/6.jpg,stim/1.jpg,stim/latef.jpg,CD,1,2,,,,,0,29,29,24,,,,,,2,1,0.816663673206,,,,,,2017_Jan_26_1720,P9,PLC_L_D1S2,NHGY,59.9991818518,
stim/negf.jpg,stim/posf.jpg,stim/3.jpg,stim/2.jpg,stim/latef.jpg,EF,2,4,,,,,0,30,30,58,,,,,,4,1,0.849987121901,,,,,,2017_Jan_26_1720,P9,PLC_L_D1S2,NHGY,59.9991818518,
stim/posf.jpg,stim/negf.jpg,stim/6.jpg,stim/1.jpg,stim/latef.jpg,CD,1,2,,,,,0,31,31,20,,,,,,4,0,1.11667890317,,,,,,2017_Jan_26_1720,P9,PLC_L_D1S2,NHGY,59.9991818518,
stim/posf.jpg,stim/negf.jpg,stim/3.jpg,stim/2.jpg,stim/latef.jpg,EF,2,4,,,,,0,32,32,52,,,,,,2,0,0.966673480651,,,,,,2017_Jan_26_1720,P9,PLC_L_D1S2,NHGY,59.9991818518,
stim/posf.jpg,stim/negf.jpg,stim/6.jpg,stim/1.jpg,stim/latef.jpg,CD,1,2,,,,,0,33,33,25,,,,,,2,1,0.800010216465,,,,,,2017_Jan_26_1720,P9,PLC_L_D1S2,NHGY,59.9991818518,
stim/posf.jpg,stim/negf.jpg,stim/1.jpg,stim/6.jpg,stim/latef.jpg,CD,2,4,,,,,0,34,34,32,,,,,,2,0,0.966649962031,,,,,,2017_Jan_26_1720,P9,PLC_L_D1S2,NHGY,59.9991818518,
stim/posf.jpg,stim/negf.jpg,stim/1.jpg,stim/6.jpg,stim/latef.jpg,CD,2,4,,,,,0,35,35,31,,,,,,4,1,0.483321184051,,,,,,2017_Jan_26_1720,P9,PLC_L_D1S2,NHGY,59.9991818518,
stim/negf.jpg,stim/posf.jpg,stim/5.jpg,stim/4.jpg,stim/latef.jpg,AB,1,2,,,,,0,36,36,8,,,,,,2,1,0.916654719889,,,,,,2017_Jan_26_1720,P9,PLC_L_D1S2,NHGY,59.9991818518,
stim/posf.jpg,stim/negf.jpg,stim/3.jpg,stim/2.jpg,stim/latef.jpg,EF,2,4,,,,,0,37,37,55,,,,,,4,1,0.750012998398,,,,,,2017_Jan_26_1720,P9,PLC_L_D1S2,NHGY,59.9991818518,
stim/posf.jpg,stim/negf.jpg,stim/5.jpg,stim/4.jpg,stim/latef.jpg,AB,1,2,,,,,0,38,38,4,,,,,,2,1,0.866673835535,,,,,,2017_Jan_26_1720,P9,PLC_L_D1S2,NHGY,59.9991818518,
stim/posf.jpg,stim/negf.jpg,stim/3.jpg,stim/2.jpg,stim/latef.jpg,EF,2,4,,,,,0,39,39,54,,,,,,4,1,0.766667297239,,,,,,2017_Jan_26_1720,P9,PLC_L_D1S2,NHGY,59.9991818518,
stim/negf.jpg,stim/posf.jpg,stim/2.jpg,stim/3.jpg,stim/latef.jpg,EF,1,2,,,,,0,40,40,48,,,,,,4,0,1.18323272156,,,,,,2017_Jan_26_1720,P9,PLC_L_D1S2,NHGY,59.9991818518,
stim/negf.jpg,stim/posf.jpg,stim/6.jpg,stim/1.jpg,stim/latef.jpg,CD,1,2,,,,,0,41,41,26,,,,,,2,1,0.783321987053,,,,,,2017_Jan_26_1720,P9,PLC_L_D1S2,NHGY,59.9991818518,
stim/posf.jpg,stim/negf.jpg,stim/3.jpg,stim/2.jpg,stim/latef.jpg,EF,2,4,,,,,0,42,42,51,,,,,,4,1,0.883325587026,,,,,,2017_Jan_26_1720,P9,PLC_L_D1S2,NHGY,59.9991818518,
stim/posf.jpg,stim/negf.jpg,stim/2.jpg,stim/3.jpg,stim/latef.jpg,EF,1,2,,,,,0,43,43,41,,,,,,4,0,1.05002667348,,,,,,2017_Jan_26_1720,P9,PLC_L_D1S2,NHGY,59.9991818518,
stim/negf.jpg,stim/posf.jpg,stim/1.jpg,stim/6.jpg,stim/latef.jpg,CD,2,4,,,,,0,44,44,39,,,,,,4,1,0.86660511124,,,,,,2017_Jan_26_1720,P9,PLC_L_D1S2,NHGY,59.9991818518,
stim/posf.jpg,stim/negf.jpg,stim/5.jpg,stim/4.jpg,stim/latef.jpg,AB,1,2,,,,,0,45,45,2,,,,,,2,1,1.1000036511,,,,,,2017_Jan_26_1720,P9,PLC_L_D1S2,NHGY,59.9991818518,
stim/posf.jpg,stim/negf.jpg,stim/2.jpg,stim/3.jpg,stim/latef.jpg,EF,1,2,,,,,0,46,46,40,,,,,,2,1,0.966657450696,,,,,,2017_Jan_26_1720,P9,PLC_L_D1S2,NHGY,59.9991818518,
stim/negf.jpg,stim/posf.jpg,stim/6.jpg,stim/1.jpg,stim/latef.jpg,CD,1,2,,,,,0,47,47,28,,,,,,4,0,0.816647565056,,,,,,2017_Jan_26_1720,P9,PLC_L_D1S2,NHGY,59.9991818518,
stim/negf.jpg,stim/posf.jpg,stim/5.jpg,stim/4.jpg,stim/latef.jpg,AB,1,2,,,,,0,48,48,6,,,,,,2,1,0.933312943512,,,,,,2017_Jan_26_1720,P9,PLC_L_D1S2,NHGY,59.9991818518,
stim/posf.jpg,stim/negf.jpg,stim/4.jpg,stim/5.jpg,stim/latef.jpg,AB,2,4,,,,,0,49,49,11,,,,,,2,0,0.683344735754,,,,,,2017_Jan_26_1720,P9,PLC_L_D1S2,NHGY,59.9991818518,
stim/posf.jpg,stim/negf.jpg,stim/1.jpg,stim/6.jpg,stim/latef.jpg,CD,2,4,,,,,0,50,50,30,,,,,,4,1,1.0500497079,,,,,,2017_Jan_26_1720,P9,PLC_L_D1S2,NHGY,59.9991818518,
stim/posf.jpg,stim/negf.jpg,stim/2.jpg,stim/3.jpg,stim/latef.jpg,EF,1,2,,,,,0,51,51,44,,,,,,2,1,1.1833317163,,,,,,2017_Jan_26_1720,P9,PLC_L_D1S2,NHGY,59.9991818518,
stim/negf.jpg,stim/posf.jpg,stim/1.jpg,stim/6.jpg,stim/latef.jpg,CD,2,4,,,,,0,52,52,37,,,,,,4,1,0.983337295209,,,,,,2017_Jan_26_1720,P9,PLC_L_D1S2,NHGY,59.9991818518,
stim/posf.jpg,stim/negf.jpg,stim/5.jpg,stim/4.jpg,stim/latef.jpg,AB,1,2,,,,,0,53,53,5,,,,,,2,1,0.666719344968,,,,,,2017_Jan_26_1720,P9,PLC_L_D1S2,NHGY,59.9991818518,
stim/negf.jpg,stim/posf.jpg,stim/3.jpg,stim/2.jpg,stim/latef.jpg,EF,2,4,,,,,0,54,54,57,,,,,,4,1,0.949996562432,,,,,,2017_Jan_26_1720,P9,PLC_L_D1S2,NHGY,59.9991818518,
stim/negf.jpg,stim/posf.jpg,stim/4.jpg,stim/5.jpg,stim/latef.jpg,AB,2,4,,,,,0,55,55,19,,,,,,2,0,1.0499956271,,,,,,2017_Jan_26_1720,P9,PLC_L_D1S2,NHGY,59.9991818518,
stim/negf.jpg,stim/posf.jpg,stim/4.jpg,stim/5.jpg,stim/latef.jpg,AB,2,4,,,,,0,56,56,17,,,,,,4,1,0.800011852542,,,,,,2017_Jan_26_1720,P9,PLC_L_D1S2,NHGY,59.9991818518,
stim/posf.jpg,stim/negf.jpg,stim/4.jpg,stim/5.jpg,stim/latef.jpg,AB,2,4,,,,,0,57,57,12,,,,,,2,0,0.733340293682,,,,,,2017_Jan_26_1720,P9,PLC_L_D1S2,NHGY,59.9991818518,
stim/posf.jpg,stim/negf.jpg,stim/3.jpg,stim/2.jpg,stim/latef.jpg,EF,2,4,,,,,0,58,58,50,,,,,,4,1,1.01666351682,,,,,,2017_Jan_26_1720,P9,PLC_L_D1S2,NHGY,59.9991818518,
stim/negf.jpg,stim/posf.jpg,stim/4.jpg,stim/5.jpg,stim/latef.jpg,AB,2,4,,,,,0,59,59,18,,,,,,2,0,0.649991398561,,,,,,2017_Jan_26_1720,P9,PLC_L_D1S2,NHGY,59.9991818518,
