symbol2,symbol1,decisionID,correct,block_01.thisRepN,block_01.thisTrialN,block_01.thisN,block_01.thisIndex,mouse.x,mouse.y,mouse.leftButton,mouse.midButton,mouse.rightButton,buttonBox_2.keys,buttonBox_2.corr,buttonBox_2.rt,date,Participant,expName,Group,frameRate,
,,,,,,,,0.9984375,1.0,1,0,0,,,,2015_Dez_04_1516,P15,PLC_T_D2S1,NHG,60.0188051495,
stim/6.jpg,stim/4.jpg,8,2,0,0,0,21,,,,,,2,1,1.18302369757,2015_Dez_04_1516,P15,PLC_T_D2S1,NHG,60.0188051495,
stim/3.jpg,stim/2.jpg,2,2,0,1,1,1,,,,,,2,1,1.13292203818,2015_Dez_04_1516,P15,PLC_T_D2S1,NHG,60.0188051495,
stim/1.jpg,stim/3.jpg,10,2,0,2,2,12,,,,,,2,1,1.08296921076,2015_Dez_04_1516,P15,PLC_T_D2S1,NHG,60.0188051495,
stim/3.jpg,stim/6.jpg,6,4,0,3,3,6,,,,,,4,1,1.11630751949,2015_Dez_04_1516,P15,PLC_T_D2S1,NHG,60.0188051495,
stim/1.jpg,stim/2.jpg,3,2,0,4,4,2,,,,,,2,1,1.08297039571,2015_Dez_04_1516,P15,PLC_T_D2S1,NHG,60.0188051495,
stim/4.jpg,stim/2.jpg,4,2,0,5,5,3,,,,,,2,1,0.999640772627,2015_Dez_04_1516,P15,PLC_T_D2S1,NHG,60.0188051495,
stim/2.jpg,stim/1.jpg,3,4,0,6,6,15,,,,,,4,1,1.09965365373,2015_Dez_04_1516,P15,PLC_T_D2S1,NHG,60.0188051495,
stim/5.jpg,stim/1.jpg,14,4,0,7,7,19,,,,,,2,0,1.28289257675,2015_Dez_04_1516,P15,PLC_T_D2S1,NHG,60.0188051495,
stim/4.jpg,stim/6.jpg,8,4,0,8,8,8,,,,,,4,1,1.19963068849,2015_Dez_04_1516,P15,PLC_T_D2S1,NHG,60.0188051495,
stim/1.jpg,stim/5.jpg,14,2,0,9,9,28,,,,,,4,0,1.36620296088,2015_Dez_04_1516,P15,PLC_T_D2S1,NHG,60.0188051495,
stim/5.jpg,stim/6.jpg,9,4,0,10,10,9,,,,,,None,0,,2015_Dez_04_1516,P15,PLC_T_D2S1,NHG,60.0188051495,
stim/5.jpg,stim/2.jpg,5,2,0,11,11,4,,,,,,2,1,0.96636038526,2015_Dez_04_1516,P15,PLC_T_D2S1,NHG,60.0188051495,
stim/5.jpg,stim/4.jpg,15,2,0,12,12,24,,,,,,2,1,1.08295890106,2015_Dez_04_1516,P15,PLC_T_D2S1,NHG,60.0188051495,
stim/1.jpg,stim/4.jpg,13,2,0,13,13,23,,,,,,2,1,0.783082903135,2015_Dez_04_1516,P15,PLC_T_D2S1,NHG,60.0188051495,
stim/2.jpg,stim/3.jpg,2,4,0,14,14,10,,,,,,4,1,1.34954157638,2015_Dez_04_1516,P15,PLC_T_D2S1,NHG,60.0188051495,
stim/6.jpg,stim/3.jpg,6,2,0,15,15,11,,,,,,2,1,0.916409792408,2015_Dez_04_1516,P15,PLC_T_D2S1,NHG,60.0188051495,
stim/3.jpg,stim/1.jpg,10,4,0,16,16,17,,,,,,4,1,1.03298631439,2015_Dez_04_1516,P15,PLC_T_D2S1,NHG,60.0188051495,
stim/3.jpg,stim/5.jpg,12,4,0,17,17,27,,,,,,4,1,0.833058196555,2015_Dez_04_1516,P15,PLC_T_D2S1,NHG,60.0188051495,
stim/1.jpg,stim/6.jpg,7,4,0,18,18,7,,,,,,4,1,0.766410306689,2015_Dez_04_1516,P15,PLC_T_D2S1,NHG,60.0188051495,
stim/6.jpg,stim/5.jpg,9,2,0,19,19,26,,,,,,2,1,0.849681852016,2015_Dez_04_1516,P15,PLC_T_D2S1,NHG,60.0188051495,
stim/2.jpg,stim/5.jpg,5,4,0,20,20,25,,,,,,4,1,1.29956538071,2015_Dez_04_1516,P15,PLC_T_D2S1,NHG,60.0188051495,
stim/5.jpg,stim/3.jpg,12,2,0,21,21,14,,,,,,2,1,1.13291223976,2015_Dez_04_1516,P15,PLC_T_D2S1,NHG,60.0188051495,
stim/3.jpg,stim/4.jpg,11,4,0,22,22,22,,,,,,4,1,0.999667689717,2015_Dez_04_1516,P15,PLC_T_D2S1,NHG,60.0188051495,
stim/4.jpg,stim/1.jpg,13,4,0,23,23,18,,,,,,4,1,1.16628853918,2015_Dez_04_1516,P15,PLC_T_D2S1,NHG,60.0188051495,
stim/2.jpg,stim/4.jpg,4,4,0,24,24,20,,,,,,4,1,1.06628820535,2015_Dez_04_1516,P15,PLC_T_D2S1,NHG,60.0188051495,
stim/4.jpg,stim/3.jpg,11,2,0,25,25,13,,,,,,2,1,0.866383849745,2015_Dez_04_1516,P15,PLC_T_D2S1,NHG,60.0188051495,
stim/2.jpg,stim/6.jpg,1,4,0,26,26,5,,,,,,4,1,0.916362267953,2015_Dez_04_1516,P15,PLC_T_D2S1,NHG,60.0188051495,
stim/4.jpg,stim/5.jpg,15,4,0,27,27,29,,,,,,4,1,1.03299023316,2015_Dez_04_1516,P15,PLC_T_D2S1,NHG,60.0188051495,
stim/6.jpg,stim/2.jpg,1,2,0,28,28,0,,,,,,2,1,0.966346986865,2015_Dez_04_1516,P15,PLC_T_D2S1,NHG,60.0188051495,
stim/6.jpg,stim/1.jpg,7,2,0,29,29,16,,,,,,2,1,0.949693268471,2015_Dez_04_1516,P15,PLC_T_D2S1,NHG,60.0188051495,
stim/4.jpg,stim/1.jpg,13,4,1,0,30,18,,,,,,2,0,1.2329287449,2015_Dez_04_1516,P15,PLC_T_D2S1,NHG,60.0188051495,
stim/5.jpg,stim/6.jpg,9,4,1,1,31,9,,,,,,4,1,0.799685761762,2015_Dez_04_1516,P15,PLC_T_D2S1,NHG,60.0188051495,
stim/3.jpg,stim/6.jpg,6,4,1,2,32,6,,,,,,4,1,0.849724612597,2015_Dez_04_1516,P15,PLC_T_D2S1,NHG,60.0188051495,
stim/1.jpg,stim/5.jpg,14,2,1,3,33,28,,,,,,4,0,1.29955619582,2015_Dez_04_1516,P15,PLC_T_D2S1,NHG,60.0188051495,
stim/4.jpg,stim/3.jpg,11,2,1,4,34,13,,,,,,4,0,1.13294438087,2015_Dez_04_1516,P15,PLC_T_D2S1,NHG,60.0188051495,
stim/1.jpg,stim/4.jpg,13,2,1,5,35,23,,,,,,2,1,1.08299579101,2015_Dez_04_1516,P15,PLC_T_D2S1,NHG,60.0188051495,
stim/1.jpg,stim/6.jpg,7,4,1,6,36,7,,,,,,4,1,1.01631385027,2015_Dez_04_1516,P15,PLC_T_D2S1,NHG,60.0188051495,
stim/4.jpg,stim/6.jpg,8,4,1,7,37,8,,,,,,4,1,1.08297093405,2015_Dez_04_1516,P15,PLC_T_D2S1,NHG,60.0188051495,
stim/1.jpg,stim/2.jpg,3,2,1,8,38,2,,,,,,2,1,0.83306653935,2015_Dez_04_1516,P15,PLC_T_D2S1,NHG,60.0188051495,
stim/2.jpg,stim/3.jpg,2,4,1,9,39,10,,,,,,4,1,1.09960949767,2015_Dez_04_1516,P15,PLC_T_D2S1,NHG,60.0188051495,
stim/2.jpg,stim/6.jpg,1,4,1,10,40,5,,,,,,4,1,0.966354466509,2015_Dez_04_1516,P15,PLC_T_D2S1,NHG,60.0188051495,
stim/3.jpg,stim/5.jpg,12,4,1,11,41,27,,,,,,4,1,1.14968657378,2015_Dez_04_1516,P15,PLC_T_D2S1,NHG,60.0188051495,
stim/5.jpg,stim/4.jpg,15,2,1,12,42,24,,,,,,2,1,0.999664173954,2015_Dez_04_1516,P15,PLC_T_D2S1,NHG,60.0188051495,
stim/1.jpg,stim/3.jpg,10,2,1,13,43,12,,,,,,2,1,1.04965186728,2015_Dez_04_1516,P15,PLC_T_D2S1,NHG,60.0188051495,
stim/6.jpg,stim/1.jpg,7,2,1,14,44,16,,,,,,2,1,1.21624104481,2015_Dez_04_1516,P15,PLC_T_D2S1,NHG,60.0188051495,
stim/6.jpg,stim/2.jpg,1,2,1,15,45,0,,,,,,2,1,1.19961447508,2015_Dez_04_1516,P15,PLC_T_D2S1,NHG,60.0188051495,
stim/3.jpg,stim/4.jpg,11,4,1,16,46,22,,,,,,4,1,1.06632361561,2015_Dez_04_1516,P15,PLC_T_D2S1,NHG,60.0188051495,
stim/6.jpg,stim/4.jpg,8,2,1,17,47,21,,,,,,2,1,1.44949056323,2015_Dez_04_1516,P15,PLC_T_D2S1,NHG,60.0188051495,
stim/5.jpg,stim/3.jpg,12,2,1,18,48,14,,,,,,2,1,1.31623001331,2015_Dez_04_1516,P15,PLC_T_D2S1,NHG,60.0188051495,
stim/5.jpg,stim/1.jpg,14,4,1,19,49,19,,,,,,None,0,,2015_Dez_04_1516,P15,PLC_T_D2S1,NHG,60.0188051495,
stim/6.jpg,stim/3.jpg,6,2,1,20,50,11,,,,,,2,1,0.783082966294,2015_Dez_04_1516,P15,PLC_T_D2S1,NHG,60.0188051495,
stim/2.jpg,stim/5.jpg,5,4,1,21,51,25,,,,,,4,1,0.766447166561,2015_Dez_04_1516,P15,PLC_T_D2S1,NHG,60.0188051495,
stim/3.jpg,stim/2.jpg,2,2,1,22,52,1,,,,,,2,1,0.799762618326,2015_Dez_04_1516,P15,PLC_T_D2S1,NHG,60.0188051495,
stim/2.jpg,stim/4.jpg,4,4,1,23,53,20,,,,,,2,0,0.799715024699,2015_Dez_04_1516,P15,PLC_T_D2S1,NHG,60.0188051495,
stim/3.jpg,stim/1.jpg,10,4,1,24,54,17,,,,,,4,1,0.899752080059,2015_Dez_04_1516,P15,PLC_T_D2S1,NHG,60.0188051495,
stim/4.jpg,stim/2.jpg,4,2,1,25,55,3,,,,,,2,1,1.08296622732,2015_Dez_04_1516,P15,PLC_T_D2S1,NHG,60.0188051495,
stim/4.jpg,stim/5.jpg,15,4,1,26,56,29,,,,,,4,1,0.983018392344,2015_Dez_04_1516,P15,PLC_T_D2S1,NHG,60.0188051495,
stim/5.jpg,stim/2.jpg,5,2,1,27,57,4,,,,,,2,1,0.916361194277,2015_Dez_04_1516,P15,PLC_T_D2S1,NHG,60.0188051495,
stim/6.jpg,stim/5.jpg,9,2,1,28,58,26,,,,,,2,1,1.03300980895,2015_Dez_04_1516,P15,PLC_T_D2S1,NHG,60.0188051495,
stim/2.jpg,stim/1.jpg,3,4,1,29,59,15,,,,,,4,1,1.04966254389,2015_Dez_04_1516,P15,PLC_T_D2S1,NHG,60.0188051495,
stim/6.jpg,stim/4.jpg,8,2,2,0,60,21,,,,,,2,1,0.982981752017,2015_Dez_04_1516,P15,PLC_T_D2S1,NHG,60.0188051495,
stim/3.jpg,stim/5.jpg,12,4,2,1,61,27,,,,,,4,1,0.916365699506,2015_Dez_04_1516,P15,PLC_T_D2S1,NHG,60.0188051495,
stim/5.jpg,stim/6.jpg,9,4,2,2,62,9,,,,,,2,0,1.06633154638,2015_Dez_04_1516,P15,PLC_T_D2S1,NHG,60.0188051495,
stim/4.jpg,stim/6.jpg,8,4,2,3,63,8,,,,,,4,1,0.666438898956,2015_Dez_04_1516,P15,PLC_T_D2S1,NHG,60.0188051495,
stim/6.jpg,stim/1.jpg,7,2,2,4,64,16,,,,,,2,1,0.74972394794,2015_Dez_04_1516,P15,PLC_T_D2S1,NHG,60.0188051495,
stim/1.jpg,stim/3.jpg,10,2,2,5,65,12,,,,,,2,1,0.982013476591,2015_Dez_04_1516,P15,PLC_T_D2S1,NHG,60.0188051495,
stim/5.jpg,stim/1.jpg,14,4,2,6,66,19,,,,,,2,0,1.2495902497,2015_Dez_04_1516,P15,PLC_T_D2S1,NHG,60.0188051495,
stim/1.jpg,stim/4.jpg,13,2,2,7,67,23,,,,,,2,1,1.29954875828,2015_Dez_04_1516,P15,PLC_T_D2S1,NHG,60.0188051495,
stim/5.jpg,stim/3.jpg,12,2,2,8,68,14,,,,,,2,1,1.43285270036,2015_Dez_04_1516,P15,PLC_T_D2S1,NHG,60.0188051495,
stim/2.jpg,stim/4.jpg,4,4,2,9,69,20,,,,,,4,1,1.36621572169,2015_Dez_04_1516,P15,PLC_T_D2S1,NHG,60.0188051495,
stim/2.jpg,stim/5.jpg,5,4,2,10,70,25,,,,,,4,1,0.999656119879,2015_Dez_04_1516,P15,PLC_T_D2S1,NHG,60.0188051495,
stim/1.jpg,stim/2.jpg,3,2,2,11,71,2,,,,,,2,1,0.983001896228,2015_Dez_04_1516,P15,PLC_T_D2S1,NHG,60.0188051495,
stim/3.jpg,stim/2.jpg,2,2,2,12,72,1,,,,,,4,0,1.24959735641,2015_Dez_04_1516,P15,PLC_T_D2S1,NHG,60.0188051495,
stim/5.jpg,stim/2.jpg,5,2,2,13,73,4,,,,,,2,1,1.14963164487,2015_Dez_04_1516,P15,PLC_T_D2S1,NHG,60.0188051495,
stim/6.jpg,stim/2.jpg,1,2,2,14,74,0,,,,,,2,1,0.999583185088,2015_Dez_04_1516,P15,PLC_T_D2S1,NHG,60.0188051495,
stim/2.jpg,stim/6.jpg,1,4,2,15,75,5,,,,,,4,1,0.866364628837,2015_Dez_04_1516,P15,PLC_T_D2S1,NHG,60.0188051495,
stim/3.jpg,stim/6.jpg,6,4,2,16,76,6,,,,,,4,1,1.16628158886,2015_Dez_04_1516,P15,PLC_T_D2S1,NHG,60.0188051495,
stim/1.jpg,stim/6.jpg,7,4,2,17,77,7,,,,,,4,1,0.816428655424,2015_Dez_04_1516,P15,PLC_T_D2S1,NHG,60.0188051495,
stim/4.jpg,stim/2.jpg,4,2,2,18,78,3,,,,,,2,1,0.982998064675,2015_Dez_04_1516,P15,PLC_T_D2S1,NHG,60.0188051495,
stim/2.jpg,stim/1.jpg,3,4,2,19,79,15,,,,,,4,1,1.01635549507,2015_Dez_04_1516,P15,PLC_T_D2S1,NHG,60.0188051495,
stim/6.jpg,stim/3.jpg,6,2,2,20,80,11,,,,,,2,1,1.16628960384,2015_Dez_04_1516,P15,PLC_T_D2S1,NHG,60.0188051495,
stim/2.jpg,stim/3.jpg,2,4,2,21,81,10,,,,,,4,1,1.11620656687,2015_Dez_04_1516,P15,PLC_T_D2S1,NHG,60.0188051495,
stim/6.jpg,stim/5.jpg,9,2,2,22,82,26,,,,,,2,1,0.916401136834,2015_Dez_04_1516,P15,PLC_T_D2S1,NHG,60.0188051495,
stim/5.jpg,stim/4.jpg,15,2,2,23,83,24,,,,,,2,1,1.01630358869,2015_Dez_04_1516,P15,PLC_T_D2S1,NHG,60.0188051495,
stim/3.jpg,stim/4.jpg,11,4,2,24,84,22,,,,,,2,0,0.982963544635,2015_Dez_04_1516,P15,PLC_T_D2S1,NHG,60.0188051495,
stim/4.jpg,stim/3.jpg,11,2,2,25,85,13,,,,,,2,1,0.849681620439,2015_Dez_04_1516,P15,PLC_T_D2S1,NHG,60.0188051495,
stim/1.jpg,stim/5.jpg,14,2,2,26,86,28,,,,,,4,0,1.3162261998,2015_Dez_04_1516,P15,PLC_T_D2S1,NHG,60.0188051495,
stim/4.jpg,stim/1.jpg,13,4,2,27,87,18,,,,,,4,1,1.61610236615,2015_Dez_04_1516,P15,PLC_T_D2S1,NHG,60.0188051495,
stim/4.jpg,stim/5.jpg,15,4,2,28,88,29,,,,,,2,0,1.51611083826,2015_Dez_04_1516,P15,PLC_T_D2S1,NHG,60.0188051495,
stim/3.jpg,stim/1.jpg,10,4,2,29,89,17,,,,,,4,1,1.03307197991,2015_Dez_04_1516,P15,PLC_T_D2S1,NHG,60.0188051495,
stim/5.jpg,stim/2.jpg,5,2,3,0,90,4,,,,,,2,1,0.84977759265,2015_Dez_04_1516,P15,PLC_T_D2S1,NHG,60.0188051495,
stim/6.jpg,stim/4.jpg,8,2,3,1,91,21,,,,,,2,1,1.14959004519,2015_Dez_04_1516,P15,PLC_T_D2S1,NHG,60.0188051495,
stim/1.jpg,stim/6.jpg,7,4,3,2,92,7,,,,,,4,1,0.949702200734,2015_Dez_04_1516,P15,PLC_T_D2S1,NHG,60.0188051495,
stim/4.jpg,stim/6.jpg,8,4,3,3,93,8,,,,,,4,1,0.883055321388,2015_Dez_04_1516,P15,PLC_T_D2S1,NHG,60.0188051495,
stim/5.jpg,stim/4.jpg,15,2,3,4,94,24,,,,,,2,1,1.016331396,2015_Dez_04_1516,P15,PLC_T_D2S1,NHG,60.0188051495,
stim/1.jpg,stim/5.jpg,14,2,3,5,95,28,,,,,,2,1,1.44945013346,2015_Dez_04_1516,P15,PLC_T_D2S1,NHG,60.0188051495,
stim/2.jpg,stim/1.jpg,3,4,3,6,96,15,,,,,,4,1,1.14961410816,2015_Dez_04_1516,P15,PLC_T_D2S1,NHG,60.0188051495,
stim/6.jpg,stim/1.jpg,7,2,3,7,97,16,,,,,,2,1,0.866382619679,2015_Dez_04_1516,P15,PLC_T_D2S1,NHG,60.0188051495,
stim/2.jpg,stim/4.jpg,4,4,3,8,98,20,,,,,,4,1,0.749745189885,2015_Dez_04_1516,P15,PLC_T_D2S1,NHG,60.0188051495,
stim/1.jpg,stim/3.jpg,10,2,3,9,99,12,,,,,,2,1,1.09965046579,2015_Dez_04_1516,P15,PLC_T_D2S1,NHG,60.0188051495,
stim/4.jpg,stim/2.jpg,4,2,3,10,100,3,,,,,,2,1,1.09963989744,2015_Dez_04_1516,P15,PLC_T_D2S1,NHG,60.0188051495,
stim/4.jpg,stim/5.jpg,15,4,3,11,101,29,,,,,,4,1,1.23291758709,2015_Dez_04_1516,P15,PLC_T_D2S1,NHG,60.0188051495,
stim/3.jpg,stim/6.jpg,6,4,3,12,102,6,,,,,,2,0,1.44946420253,2015_Dez_04_1516,P15,PLC_T_D2S1,NHG,60.0188051495,
stim/3.jpg,stim/2.jpg,2,2,3,13,103,1,,,,,,2,1,0.749750846986,2015_Dez_04_1516,P15,PLC_T_D2S1,NHG,60.0188051495,
stim/4.jpg,stim/3.jpg,11,2,3,14,104,13,,,,,,2,1,1.21624883121,2015_Dez_04_1516,P15,PLC_T_D2S1,NHG,60.0188051495,
stim/6.jpg,stim/3.jpg,6,2,3,15,105,11,,,,,,2,1,0.949693241404,2015_Dez_04_1516,P15,PLC_T_D2S1,NHG,60.0188051495,
stim/2.jpg,stim/5.jpg,5,4,3,16,106,25,,,,,,4,1,0.849714366059,2015_Dez_04_1516,P15,PLC_T_D2S1,NHG,60.0188051495,
stim/1.jpg,stim/2.jpg,3,2,3,17,107,2,,,,,,2,1,0.982970106992,2015_Dez_04_1516,P15,PLC_T_D2S1,NHG,60.0188051495,
stim/5.jpg,stim/3.jpg,12,2,3,18,108,14,,,,,,2,1,1.01628862941,2015_Dez_04_1516,P15,PLC_T_D2S1,NHG,60.0188051495,
stim/3.jpg,stim/1.jpg,10,4,3,19,109,17,,,,,,4,1,1.09956698972,2015_Dez_04_1516,P15,PLC_T_D2S1,NHG,60.0188051495,
stim/4.jpg,stim/1.jpg,13,4,3,20,110,18,,,,,,4,1,1.16627451523,2015_Dez_04_1516,P15,PLC_T_D2S1,NHG,60.0188051495,
stim/2.jpg,stim/6.jpg,1,4,3,21,111,5,,,,,,4,1,0.83303606439,2015_Dez_04_1516,P15,PLC_T_D2S1,NHG,60.0188051495,
stim/1.jpg,stim/4.jpg,13,2,3,22,112,23,,,,,,2,1,1.23294883196,2015_Dez_04_1516,P15,PLC_T_D2S1,NHG,60.0188051495,
stim/3.jpg,stim/5.jpg,12,4,3,23,113,27,,,,,,4,1,1.63281085706,2015_Dez_04_1516,P15,PLC_T_D2S1,NHG,60.0188051495,
stim/6.jpg,stim/5.jpg,9,2,3,24,114,26,,,,,,None,0,,2015_Dez_04_1516,P15,PLC_T_D2S1,NHG,60.0188051495,
stim/3.jpg,stim/4.jpg,11,4,3,25,115,22,,,,,,4,1,1.08295660033,2015_Dez_04_1516,P15,PLC_T_D2S1,NHG,60.0188051495,
stim/5.jpg,stim/1.jpg,14,4,3,26,116,19,,,,,,2,0,0.999674985902,2015_Dez_04_1516,P15,PLC_T_D2S1,NHG,60.0188051495,
stim/2.jpg,stim/3.jpg,2,4,3,27,117,10,,,,,,4,1,1.34954913422,2015_Dez_04_1516,P15,PLC_T_D2S1,NHG,60.0188051495,
stim/6.jpg,stim/2.jpg,1,2,3,28,118,0,,,,,,2,1,1.03294350569,2015_Dez_04_1516,P15,PLC_T_D2S1,NHG,60.0188051495,
stim/5.jpg,stim/6.jpg,9,4,3,29,119,9,,,,,,4,1,1.43286224916,2015_Dez_04_1516,P15,PLC_T_D2S1,NHG,60.0188051495,
stim/6.jpg,stim/2.jpg,1,2,4,0,120,0,,,,,,2,1,0.79972703664,2015_Dez_04_1516,P15,PLC_T_D2S1,NHG,60.0188051495,
stim/6.jpg,stim/1.jpg,7,2,4,1,121,16,,,,,,2,1,0.716413260052,2015_Dez_04_1516,P15,PLC_T_D2S1,NHG,60.0188051495,
stim/4.jpg,stim/1.jpg,13,4,4,2,122,18,,,,,,4,1,0.966346250028,2015_Dez_04_1516,P15,PLC_T_D2S1,NHG,60.0188051495,
stim/3.jpg,stim/6.jpg,6,4,4,3,123,6,,,,,,4,1,0.899668928803,2015_Dez_04_1516,P15,PLC_T_D2S1,NHG,60.0188051495,
stim/5.jpg,stim/3.jpg,12,2,4,4,124,14,,,,,,2,1,1.04967034233,2015_Dez_04_1516,P15,PLC_T_D2S1,NHG,60.0188051495,
stim/2.jpg,stim/3.jpg,2,4,4,5,125,10,,,,,,4,1,0.683086070028,2015_Dez_04_1516,P15,PLC_T_D2S1,NHG,60.0188051495,
stim/1.jpg,stim/5.jpg,14,2,4,6,126,28,,,,,,2,1,1.21626202209,2015_Dez_04_1516,P15,PLC_T_D2S1,NHG,60.0188051495,
stim/6.jpg,stim/4.jpg,8,2,4,7,127,21,,,,,,2,1,1.13297842272,2015_Dez_04_1516,P15,PLC_T_D2S1,NHG,60.0188051495,
stim/3.jpg,stim/4.jpg,11,4,4,8,128,22,,,,,,4,1,1.29959371433,2015_Dez_04_1516,P15,PLC_T_D2S1,NHG,60.0188051495,
stim/4.jpg,stim/6.jpg,8,4,4,9,129,8,,,,,,4,1,1.66607107315,2015_Dez_04_1516,P15,PLC_T_D2S1,NHG,60.0188051495,
stim/6.jpg,stim/5.jpg,9,2,4,10,130,26,,,,,,2,1,0.831987723401,2015_Dez_04_1516,P15,PLC_T_D2S1,NHG,60.0188051495,
stim/3.jpg,stim/2.jpg,2,2,4,11,131,1,,,,,,2,1,0.699734389967,2015_Dez_04_1516,P15,PLC_T_D2S1,NHG,60.0188051495,
stim/4.jpg,stim/5.jpg,15,4,4,12,132,29,,,,,,4,1,0.749782329456,2015_Dez_04_1516,P15,PLC_T_D2S1,NHG,60.0188051495,
stim/5.jpg,stim/4.jpg,15,2,4,13,133,24,,,,,,2,1,1.18291725025,2015_Dez_04_1516,P15,PLC_T_D2S1,NHG,60.0188051495,
stim/2.jpg,stim/1.jpg,3,4,4,14,134,15,,,,,,4,1,1.03300456688,2015_Dez_04_1516,P15,PLC_T_D2S1,NHG,60.0188051495,
stim/2.jpg,stim/6.jpg,1,4,4,15,135,5,,,,,,4,1,0.783116590103,2015_Dez_04_1516,P15,PLC_T_D2S1,NHG,60.0188051495,
stim/4.jpg,stim/2.jpg,4,2,4,16,136,3,,,,,,2,1,0.982993670725,2015_Dez_04_1516,P15,PLC_T_D2S1,NHG,60.0188051495,
stim/2.jpg,stim/4.jpg,4,4,4,17,137,20,,,,,,4,1,1.18287739491,2015_Dez_04_1516,P15,PLC_T_D2S1,NHG,60.0188051495,
stim/2.jpg,stim/5.jpg,5,4,4,18,138,25,,,,,,4,1,0.983014341246,2015_Dez_04_1516,P15,PLC_T_D2S1,NHG,60.0188051495,
stim/5.jpg,stim/2.jpg,5,2,4,19,139,4,,,,,,2,1,0.999667028067,2015_Dez_04_1516,P15,PLC_T_D2S1,NHG,60.0188051495,
stim/5.jpg,stim/6.jpg,9,4,4,20,140,9,,,,,,4,1,1.21626232585,2015_Dez_04_1516,P15,PLC_T_D2S1,NHG,60.0188051495,
stim/3.jpg,stim/5.jpg,12,4,4,21,141,27,,,,,,4,1,1.1163026293,2015_Dez_04_1516,P15,PLC_T_D2S1,NHG,60.0188051495,
stim/1.jpg,stim/6.jpg,7,4,4,22,142,7,,,,,,4,1,1.01628444297,2015_Dez_04_1516,P15,PLC_T_D2S1,NHG,60.0188051495,
stim/4.jpg,stim/3.jpg,11,2,4,23,143,13,,,,,,2,1,1.01632928775,2015_Dez_04_1516,P15,PLC_T_D2S1,NHG,60.0188051495,
stim/6.jpg,stim/3.jpg,6,2,4,24,144,11,,,,,,2,1,0.949610899166,2015_Dez_04_1516,P15,PLC_T_D2S1,NHG,60.0188051495,
stim/1.jpg,stim/3.jpg,10,2,4,25,145,12,,,,,,2,1,0.999672784415,2015_Dez_04_1516,P15,PLC_T_D2S1,NHG,60.0188051495,
stim/5.jpg,stim/1.jpg,14,4,4,26,146,19,,,,,,4,1,1.53281381945,2015_Dez_04_1516,P15,PLC_T_D2S1,NHG,60.0188051495,
stim/3.jpg,stim/1.jpg,10,4,4,27,147,17,,,,,,4,1,1.19960790069,2015_Dez_04_1516,P15,PLC_T_D2S1,NHG,60.0188051495,
stim/1.jpg,stim/4.jpg,13,2,4,28,148,23,,,,,,4,0,1.11631484876,2015_Dez_04_1516,P15,PLC_T_D2S1,NHG,60.0188051495,
stim/1.jpg,stim/2.jpg,3,2,4,29,149,2,,,,,,2,1,0.71648462192,2015_Dez_04_1516,P15,PLC_T_D2S1,NHG,60.0188051495,
stim/3.jpg,stim/6.jpg,6,4,5,0,150,6,,,,,,4,1,0.683143889144,2015_Dez_04_1516,P15,PLC_T_D2S1,NHG,60.0188051495,
stim/1.jpg,stim/6.jpg,7,4,5,1,151,7,,,,,,4,1,0.716402544342,2015_Dez_04_1516,P15,PLC_T_D2S1,NHG,60.0188051495,
stim/6.jpg,stim/5.jpg,9,2,5,2,152,26,,,,,,2,1,1.11627587762,2015_Dez_04_1516,P15,PLC_T_D2S1,NHG,60.0188051495,
stim/3.jpg,stim/4.jpg,11,4,5,3,153,22,,,,,,4,1,1.16626149578,2015_Dez_04_1516,P15,PLC_T_D2S1,NHG,60.0188051495,
stim/5.jpg,stim/3.jpg,12,2,5,4,154,14,,,,,,2,1,0.999655686799,2015_Dez_04_1516,P15,PLC_T_D2S1,NHG,60.0188051495,
stim/1.jpg,stim/2.jpg,3,2,5,5,155,2,,,,,,2,1,0.833044088389,2015_Dez_04_1516,P15,PLC_T_D2S1,NHG,60.0188051495,
stim/2.jpg,stim/5.jpg,5,4,5,6,156,25,,,,,,4,1,0.99968288058,2015_Dez_04_1516,P15,PLC_T_D2S1,NHG,60.0188051495,
stim/6.jpg,stim/1.jpg,7,2,5,7,157,16,,,,,,2,1,0.86637579868,2015_Dez_04_1516,P15,PLC_T_D2S1,NHG,60.0188051495,
stim/5.jpg,stim/2.jpg,5,2,5,8,158,4,,,,,,2,1,0.949615404395,2015_Dez_04_1516,P15,PLC_T_D2S1,NHG,60.0188051495,
stim/6.jpg,stim/4.jpg,8,2,5,9,159,21,,,,,,2,1,0.949674390418,2015_Dez_04_1516,P15,PLC_T_D2S1,NHG,60.0188051495,
stim/3.jpg,stim/1.jpg,10,4,5,10,160,17,,,,,,4,1,1.03298815498,2015_Dez_04_1516,P15,PLC_T_D2S1,NHG,60.0188051495,
stim/4.jpg,stim/6.jpg,8,4,5,11,161,8,,,,,,4,1,0.916415765296,2015_Dez_04_1516,P15,PLC_T_D2S1,NHG,60.0188051495,
stim/1.jpg,stim/5.jpg,14,2,5,12,162,28,,,,,,2,1,1.21627031376,2015_Dez_04_1516,P15,PLC_T_D2S1,NHG,60.0188051495,
stim/4.jpg,stim/2.jpg,4,2,5,13,163,3,,,,,,2,1,1.33293678093,2015_Dez_04_1516,P15,PLC_T_D2S1,NHG,60.0188051495,
stim/6.jpg,stim/2.jpg,1,2,5,14,164,0,,,,,,2,1,0.616457990542,2015_Dez_04_1516,P15,PLC_T_D2S1,NHG,60.0188051495,
stim/3.jpg,stim/5.jpg,12,4,5,15,165,27,,,,,,4,1,0.883074749814,2015_Dez_04_1516,P15,PLC_T_D2S1,NHG,60.0188051495,
stim/5.jpg,stim/1.jpg,14,4,5,16,166,19,,,,,,4,1,1.3495648544,2015_Dez_04_1516,P15,PLC_T_D2S1,NHG,60.0188051495,
stim/1.jpg,stim/4.jpg,13,2,5,17,167,23,,,,,,2,1,1.14963147946,2015_Dez_04_1516,P15,PLC_T_D2S1,NHG,60.0188051495,
stim/2.jpg,stim/4.jpg,4,4,5,18,168,20,,,,,,2,0,0.799739932783,2015_Dez_04_1516,P15,PLC_T_D2S1,NHG,60.0188051495,
stim/6.jpg,stim/3.jpg,6,2,5,19,169,11,,,,,,2,1,0.683115026202,2015_Dez_04_1516,P15,PLC_T_D2S1,NHG,60.0188051495,
stim/5.jpg,stim/6.jpg,9,4,5,20,170,9,,,,,,4,1,0.78306675589,2015_Dez_04_1516,P15,PLC_T_D2S1,NHG,60.0188051495,
stim/4.jpg,stim/5.jpg,15,4,5,21,171,29,,,,,,4,1,1.28291231795,2015_Dez_04_1516,P15,PLC_T_D2S1,NHG,60.0188051495,
stim/1.jpg,stim/3.jpg,10,2,5,22,172,12,,,,,,2,1,1.19961301644,2015_Dez_04_1516,P15,PLC_T_D2S1,NHG,60.0188051495,
stim/3.jpg,stim/2.jpg,2,2,5,23,173,1,,,,,,2,1,1.24960462854,2015_Dez_04_1516,P15,PLC_T_D2S1,NHG,60.0188051495,
stim/4.jpg,stim/3.jpg,11,2,5,24,174,13,,,,,,2,1,1.21624254254,2015_Dez_04_1516,P15,PLC_T_D2S1,NHG,60.0188051495,
stim/4.jpg,stim/1.jpg,13,4,5,25,175,18,,,,,,4,1,1.4495320757,2015_Dez_04_1516,P15,PLC_T_D2S1,NHG,60.0188051495,
stim/2.jpg,stim/1.jpg,3,4,5,26,176,15,,,,,,4,1,1.08296919271,2015_Dez_04_1516,P15,PLC_T_D2S1,NHG,60.0188051495,
stim/2.jpg,stim/6.jpg,1,4,5,27,177,5,,,,,,4,1,0.699765331088,2015_Dez_04_1516,P15,PLC_T_D2S1,NHG,60.0188051495,
stim/2.jpg,stim/3.jpg,2,4,5,28,178,10,,,,,,4,1,0.783077525733,2015_Dez_04_1516,P15,PLC_T_D2S1,NHG,60.0188051495,
stim/5.jpg,stim/4.jpg,15,2,5,29,179,24,,,,,,2,1,0.999676348298,2015_Dez_04_1516,P15,PLC_T_D2S1,NHG,60.0188051495,
