symbol2,symbol1,decisionID,correct,block_01.thisRepN,block_01.thisTrialN,block_01.thisN,block_01.thisIndex,mouse.x,mouse.y,mouse.leftButton,mouse.midButton,mouse.rightButton,buttonBox_2.keys,buttonBox_2.corr,buttonBox_2.rt,date,Participant,expName,Group,frameRate,
,,,,,,,,0.2,0.478515625,1,0,0,,,,2016_Sep_02_0837,P11,PLC_T_D2S1,NHGX,60.0239342961,
stim/4.jpg,stim/6.jpg,5,2,0,0,0,4,,,,,,2,1,0.716443813204,2016_Sep_02_0837,P11,PLC_T_D2S1,NHGX,60.0239342961,
stim/6.jpg,stim/1.jpg,1,4,0,1,1,5,,,,,,4,1,0.649758083022,2016_Sep_02_0837,P11,PLC_T_D2S1,NHGX,60.0239342961,
stim/2.jpg,stim/1.jpg,8,4,0,2,2,8,,,,,,4,1,1.08295612514,2016_Sep_02_0837,P11,PLC_T_D2S1,NHGX,60.0239342961,
stim/1.jpg,stim/5.jpg,7,2,0,3,3,16,,,,,,4,0,1.08294044105,2016_Sep_02_0837,P11,PLC_T_D2S1,NHGX,60.0239342961,
stim/4.jpg,stim/1.jpg,9,4,0,4,4,9,,,,,,4,1,1.46618956549,2016_Sep_02_0837,P11,PLC_T_D2S1,NHGX,60.0239342961,
stim/3.jpg,stim/5.jpg,10,4,0,5,5,17,,,,,,4,1,1.18294261246,2016_Sep_02_0837,P11,PLC_T_D2S1,NHGX,60.0239342961,
stim/4.jpg,stim/5.jpg,14,4,0,6,6,19,,,,,,4,1,1.0330023654,2016_Sep_02_0837,P11,PLC_T_D2S1,NHGX,60.0239342961,
stim/1.jpg,stim/2.jpg,8,2,0,7,7,21,,,,,,2,1,1.1163137811,2016_Sep_02_0837,P11,PLC_T_D2S1,NHGX,60.0239342961,
stim/4.jpg,stim/2.jpg,15,2,0,8,8,24,,,,,,2,1,1.2495878046,2016_Sep_02_0837,P11,PLC_T_D2S1,NHGX,60.0239342961,
stim/2.jpg,stim/4.jpg,15,4,0,9,9,29,,,,,,4,1,1.14960532928,2016_Sep_02_0837,P11,PLC_T_D2S1,NHGX,60.0239342961,
stim/6.jpg,stim/2.jpg,4,4,0,10,10,20,,,,,,4,1,0.949714402147,2016_Sep_02_0837,P11,PLC_T_D2S1,NHGX,60.0239342961,
stim/5.jpg,stim/6.jpg,3,2,0,11,11,2,,,,,,2,1,0.783062136375,2016_Sep_02_0837,P11,PLC_T_D2S1,NHGX,60.0239342961,
stim/3.jpg,stim/1.jpg,6,4,0,12,12,6,,,,,,4,1,0.933058761964,2016_Sep_02_0837,P11,PLC_T_D2S1,NHGX,60.0239342961,
stim/5.jpg,stim/2.jpg,13,2,0,13,13,23,,,,,,2,1,0.916345756799,2016_Sep_02_0837,P11,PLC_T_D2S1,NHGX,60.0239342961,
stim/2.jpg,stim/3.jpg,11,2,0,14,14,13,,,,,,4,0,0.866378782114,2016_Sep_02_0837,P11,PLC_T_D2S1,NHGX,60.0239342961,
stim/2.jpg,stim/6.jpg,4,2,0,15,15,3,,,,,,2,1,0.74975403794,2016_Sep_02_0837,P11,PLC_T_D2S1,NHGX,60.0239342961,
stim/3.jpg,stim/4.jpg,12,4,0,16,16,27,,,,,,4,1,0.899723532906,2016_Sep_02_0837,P11,PLC_T_D2S1,NHGX,60.0239342961,
stim/5.jpg,stim/3.jpg,10,2,0,17,17,12,,,,,,2,1,0.966358397305,2016_Sep_02_0837,P11,PLC_T_D2S1,NHGX,60.0239342961,
stim/1.jpg,stim/3.jpg,6,2,0,18,18,11,,,,,,2,1,0.932954308614,2016_Sep_02_0837,P11,PLC_T_D2S1,NHGX,60.0239342961,
stim/6.jpg,stim/4.jpg,5,4,0,19,19,25,,,,,,4,1,0.849688928655,2016_Sep_02_0837,P11,PLC_T_D2S1,NHGX,60.0239342961,
stim/2.jpg,stim/5.jpg,13,4,0,20,20,18,,,,,,4,1,0.99966333787,2016_Sep_02_0837,P11,PLC_T_D2S1,NHGX,60.0239342961,
stim/6.jpg,stim/5.jpg,3,4,0,21,21,15,,,,,,4,1,0.733081017436,2016_Sep_02_0837,P11,PLC_T_D2S1,NHGX,60.0239342961,
stim/5.jpg,stim/1.jpg,7,4,0,22,22,7,,,,,,2,0,1.4328487064,2016_Sep_02_0837,P11,PLC_T_D2S1,NHGX,60.0239342961,
stim/1.jpg,stim/6.jpg,1,2,0,23,23,0,,,,,,2,1,0.683146568822,2016_Sep_02_0837,P11,PLC_T_D2S1,NHGX,60.0239342961,
stim/6.jpg,stim/3.jpg,2,4,0,24,24,10,,,,,,4,1,1.18295179134,2016_Sep_02_0837,P11,PLC_T_D2S1,NHGX,60.0239342961,
stim/1.jpg,stim/4.jpg,9,2,0,25,25,26,,,,,,2,1,0.699780299396,2016_Sep_02_0837,P11,PLC_T_D2S1,NHGX,60.0239342961,
stim/4.jpg,stim/3.jpg,12,2,0,26,26,14,,,,,,2,1,0.933008386403,2016_Sep_02_0837,P11,PLC_T_D2S1,NHGX,60.0239342961,
stim/3.jpg,stim/6.jpg,2,2,0,27,27,1,,,,,,2,1,1.01635710408,2016_Sep_02_0837,P11,PLC_T_D2S1,NHGX,60.0239342961,
stim/3.jpg,stim/2.jpg,11,4,0,28,28,22,,,,,,4,1,1.31623485237,2016_Sep_02_0837,P11,PLC_T_D2S1,NHGX,60.0239342961,
stim/5.jpg,stim/4.jpg,14,2,0,29,29,28,,,,,,2,1,1.26625420862,2016_Sep_02_0837,P11,PLC_T_D2S1,NHGX,60.0239342961,
stim/1.jpg,stim/5.jpg,7,2,1,0,30,16,,,,,,2,1,0.916371582169,2016_Sep_02_0837,P11,PLC_T_D2S1,NHGX,60.0239342961,
stim/5.jpg,stim/1.jpg,7,4,1,1,31,7,,,,,,4,1,1.04968586101,2016_Sep_02_0837,P11,PLC_T_D2S1,NHGX,60.0239342961,
stim/2.jpg,stim/6.jpg,4,2,1,2,32,3,,,,,,2,1,0.883123928391,2016_Sep_02_0837,P11,PLC_T_D2S1,NHGX,60.0239342961,
stim/1.jpg,stim/4.jpg,9,2,1,3,33,26,,,,,,2,1,1.29956446944,2016_Sep_02_0837,P11,PLC_T_D2S1,NHGX,60.0239342961,
stim/2.jpg,stim/5.jpg,13,4,1,4,34,18,,,,,,4,1,1.26621699085,2016_Sep_02_0837,P11,PLC_T_D2S1,NHGX,60.0239342961,
stim/4.jpg,stim/1.jpg,9,4,1,5,35,9,,,,,,4,1,1.26625063872,2016_Sep_02_0837,P11,PLC_T_D2S1,NHGX,60.0239342961,
stim/1.jpg,stim/2.jpg,8,2,1,6,36,21,,,,,,2,1,1.13297470846,2016_Sep_02_0837,P11,PLC_T_D2S1,NHGX,60.0239342961,
stim/6.jpg,stim/5.jpg,3,4,1,7,37,15,,,,,,4,1,0.749753352231,2016_Sep_02_0837,P11,PLC_T_D2S1,NHGX,60.0239342961,
stim/3.jpg,stim/1.jpg,6,4,1,8,38,6,,,,,,4,1,0.899721382546,2016_Sep_02_0837,P11,PLC_T_D2S1,NHGX,60.0239342961,
stim/1.jpg,stim/3.jpg,6,2,1,9,39,11,,,,,,2,1,1.29957946782,2016_Sep_02_0837,P11,PLC_T_D2S1,NHGX,60.0239342961,
stim/6.jpg,stim/2.jpg,4,4,1,10,40,20,,,,,,4,1,0.866401527808,2016_Sep_02_0837,P11,PLC_T_D2S1,NHGX,60.0239342961,
stim/2.jpg,stim/3.jpg,11,2,1,11,41,13,,,,,,2,1,0.983000807513,2016_Sep_02_0837,P11,PLC_T_D2S1,NHGX,60.0239342961,
stim/4.jpg,stim/6.jpg,5,2,1,12,42,4,,,,,,2,1,0.733084436959,2016_Sep_02_0837,P11,PLC_T_D2S1,NHGX,60.0239342961,
stim/5.jpg,stim/6.jpg,3,2,1,13,43,2,,,,,,2,1,0.649783815159,2016_Sep_02_0837,P11,PLC_T_D2S1,NHGX,60.0239342961,
stim/4.jpg,stim/5.jpg,14,4,1,14,44,19,,,,,,4,1,1.19959428576,2016_Sep_02_0837,P11,PLC_T_D2S1,NHGX,60.0239342961,
stim/4.jpg,stim/2.jpg,15,2,1,15,45,24,,,,,,2,1,1.03299344516,2016_Sep_02_0837,P11,PLC_T_D2S1,NHGX,60.0239342961,
stim/3.jpg,stim/2.jpg,11,4,1,16,46,22,,,,,,4,1,0.949642775618,2016_Sep_02_0837,P11,PLC_T_D2S1,NHGX,60.0239342961,
stim/3.jpg,stim/4.jpg,12,4,1,17,47,27,,,,,,4,1,0.749749240983,2016_Sep_02_0837,P11,PLC_T_D2S1,NHGX,60.0239342961,
stim/6.jpg,stim/3.jpg,2,4,1,18,48,10,,,,,,4,1,0.899703933053,2016_Sep_02_0837,P11,PLC_T_D2S1,NHGX,60.0239342961,
stim/4.jpg,stim/3.jpg,12,2,1,19,49,14,,,,,,2,1,1.03300662702,2016_Sep_02_0837,P11,PLC_T_D2S1,NHGX,60.0239342961,
stim/3.jpg,stim/6.jpg,2,2,1,20,50,1,,,,,,2,1,0.83297510545,2016_Sep_02_0837,P11,PLC_T_D2S1,NHGX,60.0239342961,
stim/5.jpg,stim/2.jpg,13,2,1,21,51,23,,,,,,2,1,0.883046506417,2016_Sep_02_0837,P11,PLC_T_D2S1,NHGX,60.0239342961,
stim/2.jpg,stim/4.jpg,15,4,1,22,52,29,,,,,,4,1,0.899703836813,2016_Sep_02_0837,P11,PLC_T_D2S1,NHGX,60.0239342961,
stim/1.jpg,stim/6.jpg,1,2,1,23,53,0,,,,,,2,1,0.766420947211,2016_Sep_02_0837,P11,PLC_T_D2S1,NHGX,60.0239342961,
stim/5.jpg,stim/3.jpg,10,2,1,24,54,12,,,,,,2,1,0.966365666424,2016_Sep_02_0837,P11,PLC_T_D2S1,NHGX,60.0239342961,
stim/6.jpg,stim/4.jpg,5,4,1,25,55,25,,,,,,4,1,0.916376394163,2016_Sep_02_0837,P11,PLC_T_D2S1,NHGX,60.0239342961,
stim/3.jpg,stim/5.jpg,10,4,1,26,56,17,,,,,,4,1,0.916325522364,2016_Sep_02_0837,P11,PLC_T_D2S1,NHGX,60.0239342961,
stim/5.jpg,stim/4.jpg,14,2,1,27,57,28,,,,,,2,1,0.98295355674,2016_Sep_02_0837,P11,PLC_T_D2S1,NHGX,60.0239342961,
stim/6.jpg,stim/1.jpg,1,4,1,28,58,5,,,,,,4,1,0.749718155502,2016_Sep_02_0837,P11,PLC_T_D2S1,NHGX,60.0239342961,
stim/2.jpg,stim/1.jpg,8,4,1,29,59,8,,,,,,4,1,0.883044494402,2016_Sep_02_0837,P11,PLC_T_D2S1,NHGX,60.0239342961,
stim/6.jpg,stim/5.jpg,3,4,2,0,60,15,,,,,,4,1,0.633065119811,2016_Sep_02_0837,P11,PLC_T_D2S1,NHGX,60.0239342961,
stim/1.jpg,stim/6.jpg,1,2,2,1,61,0,,,,,,2,1,0.949601004504,2016_Sep_02_0837,P11,PLC_T_D2S1,NHGX,60.0239342961,
stim/5.jpg,stim/2.jpg,13,2,2,2,62,23,,,,,,2,1,1.09961874572,2016_Sep_02_0837,P11,PLC_T_D2S1,NHGX,60.0239342961,
stim/3.jpg,stim/4.jpg,12,4,2,3,63,27,,,,,,4,1,0.699751662018,2016_Sep_02_0837,P11,PLC_T_D2S1,NHGX,60.0239342961,
stim/2.jpg,stim/4.jpg,15,4,2,4,64,29,,,,,,4,1,0.949709283389,2016_Sep_02_0837,P11,PLC_T_D2S1,NHGX,60.0239342961,
stim/6.jpg,stim/3.jpg,2,4,2,5,65,10,,,,,,2,0,0.716402006,2016_Sep_02_0837,P11,PLC_T_D2S1,NHGX,60.0239342961,
stim/3.jpg,stim/1.jpg,6,4,2,6,66,6,,,,,,4,1,0.766394577485,2016_Sep_02_0837,P11,PLC_T_D2S1,NHGX,60.0239342961,
stim/5.jpg,stim/1.jpg,7,4,2,7,67,7,,,,,,2,0,0.816397428591,2016_Sep_02_0837,P11,PLC_T_D2S1,NHGX,60.0239342961,
stim/3.jpg,stim/2.jpg,11,4,2,8,68,22,,,,,,4,1,1.28290771648,2016_Sep_02_0837,P11,PLC_T_D2S1,NHGX,60.0239342961,
stim/2.jpg,stim/1.jpg,8,4,2,9,69,8,,,,,,4,1,0.932964931091,2016_Sep_02_0837,P11,PLC_T_D2S1,NHGX,60.0239342961,
stim/2.jpg,stim/5.jpg,13,4,2,10,70,18,,,,,,4,1,0.616461557432,2016_Sep_02_0837,P11,PLC_T_D2S1,NHGX,60.0239342961,
stim/2.jpg,stim/3.jpg,11,2,2,11,71,13,,,,,,2,1,0.866361513071,2016_Sep_02_0837,P11,PLC_T_D2S1,NHGX,60.0239342961,
stim/4.jpg,stim/2.jpg,15,2,2,12,72,24,,,,,,2,1,0.866385212141,2016_Sep_02_0837,P11,PLC_T_D2S1,NHGX,60.0239342961,
stim/6.jpg,stim/2.jpg,4,4,2,13,73,20,,,,,,4,1,0.899696721077,2016_Sep_02_0837,P11,PLC_T_D2S1,NHGX,60.0239342961,
stim/1.jpg,stim/3.jpg,6,2,2,14,74,11,,,,,,2,1,0.883049150006,2016_Sep_02_0837,P11,PLC_T_D2S1,NHGX,60.0239342961,
stim/1.jpg,stim/4.jpg,9,2,2,15,75,26,,,,,,2,1,1.09967643251,2016_Sep_02_0837,P11,PLC_T_D2S1,NHGX,60.0239342961,
stim/5.jpg,stim/4.jpg,14,2,2,16,76,28,,,,,,2,1,1.34952950128,2016_Sep_02_0837,P11,PLC_T_D2S1,NHGX,60.0239342961,
stim/4.jpg,stim/3.jpg,12,2,2,17,77,14,,,,,,2,1,0.649760377742,2016_Sep_02_0837,P11,PLC_T_D2S1,NHGX,60.0239342961,
stim/5.jpg,stim/3.jpg,10,2,2,18,78,12,,,,,,2,1,0.783041739536,2016_Sep_02_0837,P11,PLC_T_D2S1,NHGX,60.0239342961,
stim/6.jpg,stim/4.jpg,5,4,2,19,79,25,,,,,,4,1,0.716412727724,2016_Sep_02_0837,P11,PLC_T_D2S1,NHGX,60.0239342961,
stim/4.jpg,stim/6.jpg,5,2,2,20,80,4,,,,,,2,1,0.766465897249,2016_Sep_02_0837,P11,PLC_T_D2S1,NHGX,60.0239342961,
stim/3.jpg,stim/5.jpg,10,4,2,21,81,17,,,,,,4,1,0.783067760393,2016_Sep_02_0837,P11,PLC_T_D2S1,NHGX,60.0239342961,
stim/1.jpg,stim/5.jpg,7,2,2,22,82,16,,,,,,2,1,0.849702847347,2016_Sep_02_0837,P11,PLC_T_D2S1,NHGX,60.0239342961,
stim/6.jpg,stim/1.jpg,1,4,2,23,83,5,,,,,,4,1,0.749774525003,2016_Sep_02_0837,P11,PLC_T_D2S1,NHGX,60.0239342961,
stim/4.jpg,stim/1.jpg,9,4,2,24,84,9,,,,,,4,1,1.23292629379,2016_Sep_02_0837,P11,PLC_T_D2S1,NHGX,60.0239342961,
stim/3.jpg,stim/6.jpg,2,2,2,25,85,1,,,,,,2,1,1.03296579725,2016_Sep_02_0837,P11,PLC_T_D2S1,NHGX,60.0239342961,
stim/5.jpg,stim/6.jpg,3,2,2,26,86,2,,,,,,2,1,0.916359377749,2016_Sep_02_0837,P11,PLC_T_D2S1,NHGX,60.0239342961,
stim/4.jpg,stim/5.jpg,14,4,2,27,87,19,,,,,,4,1,0.616480889617,2016_Sep_02_0837,P11,PLC_T_D2S1,NHGX,60.0239342961,
stim/2.jpg,stim/6.jpg,4,2,2,28,88,3,,,,,,2,1,0.68310572101,2016_Sep_02_0837,P11,PLC_T_D2S1,NHGX,60.0239342961,
stim/1.jpg,stim/2.jpg,8,2,2,29,89,21,,,,,,2,1,1.04964764175,2016_Sep_02_0837,P11,PLC_T_D2S1,NHGX,60.0239342961,
stim/5.jpg,stim/2.jpg,13,2,3,0,90,23,,,,,,2,1,0.783080391876,2016_Sep_02_0837,P11,PLC_T_D2S1,NHGX,60.0239342961,
stim/3.jpg,stim/5.jpg,10,4,3,1,91,17,,,,,,4,1,0.733063375463,2016_Sep_02_0837,P11,PLC_T_D2S1,NHGX,60.0239342961,
stim/1.jpg,stim/5.jpg,7,2,3,2,92,16,,,,,,2,1,0.999675824994,2016_Sep_02_0837,P11,PLC_T_D2S1,NHGX,60.0239342961,
stim/2.jpg,stim/3.jpg,11,2,3,3,93,13,,,,,,2,1,1.18294033278,2016_Sep_02_0837,P11,PLC_T_D2S1,NHGX,60.0239342961,
stim/4.jpg,stim/6.jpg,5,2,3,4,94,4,,,,,,2,1,0.783066822054,2016_Sep_02_0837,P11,PLC_T_D2S1,NHGX,60.0239342961,
stim/2.jpg,stim/5.jpg,13,4,3,5,95,18,,,,,,4,1,0.849718874294,2016_Sep_02_0837,P11,PLC_T_D2S1,NHGX,60.0239342961,
stim/2.jpg,stim/4.jpg,15,4,3,6,96,29,,,,,,4,1,0.916349410907,2016_Sep_02_0837,P11,PLC_T_D2S1,NHGX,60.0239342961,
stim/4.jpg,stim/5.jpg,14,4,3,7,97,19,,,,,,4,1,0.866320502853,2016_Sep_02_0837,P11,PLC_T_D2S1,NHGX,60.0239342961,
stim/6.jpg,stim/5.jpg,3,4,3,8,98,15,,,,,,4,1,0.599792780505,2016_Sep_02_0837,P11,PLC_T_D2S1,NHGX,60.0239342961,
stim/4.jpg,stim/3.jpg,12,2,3,9,99,14,,,,,,2,1,1.01631424726,2016_Sep_02_0837,P11,PLC_T_D2S1,NHGX,60.0239342961,
stim/6.jpg,stim/4.jpg,5,4,3,10,100,25,,,,,,4,1,0.716471978406,2016_Sep_02_0837,P11,PLC_T_D2S1,NHGX,60.0239342961,
stim/3.jpg,stim/4.jpg,12,4,3,11,101,27,,,,,,4,1,0.633151335704,2016_Sep_02_0837,P11,PLC_T_D2S1,NHGX,60.0239342961,
stim/5.jpg,stim/1.jpg,7,4,3,12,102,7,,,,,,4,1,0.99964684476,2016_Sep_02_0837,P11,PLC_T_D2S1,NHGX,60.0239342961,
stim/6.jpg,stim/1.jpg,1,4,3,13,103,5,,,,,,4,1,0.799754212374,2016_Sep_02_0837,P11,PLC_T_D2S1,NHGX,60.0239342961,
stim/3.jpg,stim/6.jpg,2,2,3,14,104,1,,,,,,2,1,0.999649665792,2016_Sep_02_0837,P11,PLC_T_D2S1,NHGX,60.0239342961,
stim/1.jpg,stim/4.jpg,9,2,3,15,105,26,,,,,,2,1,0.899699484966,2016_Sep_02_0837,P11,PLC_T_D2S1,NHGX,60.0239342961,
stim/6.jpg,stim/3.jpg,2,4,3,16,106,10,,,,,,2,0,1.28293589672,2016_Sep_02_0837,P11,PLC_T_D2S1,NHGX,60.0239342961,
stim/6.jpg,stim/2.jpg,4,4,3,17,107,20,,,,,,4,1,0.783095200788,2016_Sep_02_0837,P11,PLC_T_D2S1,NHGX,60.0239342961,
stim/2.jpg,stim/6.jpg,4,2,3,18,108,3,,,,,,2,1,0.733098704521,2016_Sep_02_0837,P11,PLC_T_D2S1,NHGX,60.0239342961,
stim/4.jpg,stim/1.jpg,9,4,3,19,109,9,,,,,,4,1,1.0828962489,2016_Sep_02_0837,P11,PLC_T_D2S1,NHGX,60.0239342961,
stim/5.jpg,stim/3.jpg,10,2,3,20,110,12,,,,,,2,1,0.833031917053,2016_Sep_02_0837,P11,PLC_T_D2S1,NHGX,60.0239342961,
stim/1.jpg,stim/2.jpg,8,2,3,21,111,21,,,,,,2,1,1.39954079744,2016_Sep_02_0837,P11,PLC_T_D2S1,NHGX,60.0239342961,
stim/1.jpg,stim/6.jpg,1,2,3,22,112,0,,,,,,2,1,0.716443485388,2016_Sep_02_0837,P11,PLC_T_D2S1,NHGX,60.0239342961,
stim/3.jpg,stim/2.jpg,11,4,3,23,113,22,,,,,,4,1,1.11626641003,2016_Sep_02_0837,P11,PLC_T_D2S1,NHGX,60.0239342961,
stim/2.jpg,stim/1.jpg,8,4,3,24,114,8,,,,,,4,1,1.0329874843,2016_Sep_02_0837,P11,PLC_T_D2S1,NHGX,60.0239342961,
stim/5.jpg,stim/6.jpg,3,2,3,25,115,2,,,,,,2,1,0.683108981136,2016_Sep_02_0837,P11,PLC_T_D2S1,NHGX,60.0239342961,
stim/1.jpg,stim/3.jpg,6,2,3,26,116,11,,,,,,2,1,0.982985977549,2016_Sep_02_0837,P11,PLC_T_D2S1,NHGX,60.0239342961,
stim/3.jpg,stim/1.jpg,6,4,3,27,117,6,,,,,,4,1,0.899707277389,2016_Sep_02_0837,P11,PLC_T_D2S1,NHGX,60.0239342961,
stim/5.jpg,stim/4.jpg,14,2,3,28,118,28,,,,,,4,0,1.18295149961,2016_Sep_02_0837,P11,PLC_T_D2S1,NHGX,60.0239342961,
stim/4.jpg,stim/2.jpg,15,2,3,29,119,24,,,,,,2,1,1.09964730491,2016_Sep_02_0837,P11,PLC_T_D2S1,NHGX,60.0239342961,
stim/6.jpg,stim/1.jpg,1,4,4,0,120,5,,,,,,4,1,0.666446068827,2016_Sep_02_0837,P11,PLC_T_D2S1,NHGX,60.0239342961,
stim/5.jpg,stim/2.jpg,13,2,4,1,121,23,,,,,,2,1,0.799733650123,2016_Sep_02_0837,P11,PLC_T_D2S1,NHGX,60.0239342961,
stim/5.jpg,stim/4.jpg,14,2,4,2,122,28,,,,,,2,1,0.916450327441,2016_Sep_02_0837,P11,PLC_T_D2S1,NHGX,60.0239342961,
stim/6.jpg,stim/5.jpg,3,4,4,3,123,15,,,,,,4,1,0.68310972098,2016_Sep_02_0837,P11,PLC_T_D2S1,NHGX,60.0239342961,
stim/2.jpg,stim/3.jpg,11,2,4,4,124,13,,,,,,2,1,1.03300946609,2016_Sep_02_0837,P11,PLC_T_D2S1,NHGX,60.0239342961,
stim/5.jpg,stim/6.jpg,3,2,4,5,125,2,,,,,,2,1,0.933031390741,2016_Sep_02_0837,P11,PLC_T_D2S1,NHGX,60.0239342961,
stim/6.jpg,stim/2.jpg,4,4,4,6,126,20,,,,,,4,1,0.79973833881,2016_Sep_02_0837,P11,PLC_T_D2S1,NHGX,60.0239342961,
stim/6.jpg,stim/4.jpg,5,4,4,7,127,25,,,,,,4,1,0.749754092074,2016_Sep_02_0837,P11,PLC_T_D2S1,NHGX,60.0239342961,
stim/3.jpg,stim/2.jpg,11,4,4,8,128,22,,,,,,4,1,0.783063210051,2016_Sep_02_0837,P11,PLC_T_D2S1,NHGX,60.0239342961,
stim/5.jpg,stim/1.jpg,7,4,4,9,129,7,,,,,,4,1,0.949679921204,2016_Sep_02_0837,P11,PLC_T_D2S1,NHGX,60.0239342961,
stim/1.jpg,stim/6.jpg,1,2,4,10,130,0,,,,,,2,1,0.716338911737,2016_Sep_02_0837,P11,PLC_T_D2S1,NHGX,60.0239342961,
stim/1.jpg,stim/4.jpg,9,2,4,11,131,26,,,,,,2,1,0.999676345291,2016_Sep_02_0837,P11,PLC_T_D2S1,NHGX,60.0239342961,
stim/2.jpg,stim/4.jpg,15,4,4,12,132,29,,,,,,4,1,1.29961619537,2016_Sep_02_0837,P11,PLC_T_D2S1,NHGX,60.0239342961,
stim/4.jpg,stim/2.jpg,15,2,4,13,133,24,,,,,,2,1,0.783069068654,2016_Sep_02_0837,P11,PLC_T_D2S1,NHGX,60.0239342961,
stim/2.jpg,stim/6.jpg,4,2,4,14,134,3,,,,,,2,1,0.649779851279,2016_Sep_02_0837,P11,PLC_T_D2S1,NHGX,60.0239342961,
stim/4.jpg,stim/3.jpg,12,2,4,15,135,14,,,,,,2,1,0.933019688573,2016_Sep_02_0837,P11,PLC_T_D2S1,NHGX,60.0239342961,
stim/1.jpg,stim/3.jpg,6,2,4,16,136,11,,,,,,2,1,0.683095648905,2016_Sep_02_0837,P11,PLC_T_D2S1,NHGX,60.0239342961,
stim/3.jpg,stim/1.jpg,6,4,4,17,137,6,,,,,,4,1,0.832999830076,2016_Sep_02_0837,P11,PLC_T_D2S1,NHGX,60.0239342961,
stim/3.jpg,stim/6.jpg,2,2,4,18,138,1,,,,,,2,1,0.73314492673,2016_Sep_02_0837,P11,PLC_T_D2S1,NHGX,60.0239342961,
stim/4.jpg,stim/6.jpg,5,2,4,19,139,4,,,,,,2,1,0.749742555319,2016_Sep_02_0837,P11,PLC_T_D2S1,NHGX,60.0239342961,
stim/4.jpg,stim/1.jpg,9,4,4,20,140,9,,,,,,4,1,0.849709015722,2016_Sep_02_0837,P11,PLC_T_D2S1,NHGX,60.0239342961,
stim/3.jpg,stim/4.jpg,12,4,4,21,141,27,,,,,,4,1,0.833042208705,2016_Sep_02_0837,P11,PLC_T_D2S1,NHGX,60.0239342961,
stim/4.jpg,stim/5.jpg,14,4,4,22,142,19,,,,,,4,1,1.03297241073,2016_Sep_02_0837,P11,PLC_T_D2S1,NHGX,60.0239342961,
stim/1.jpg,stim/5.jpg,7,2,4,23,143,16,,,,,,4,0,1.29957067992,2016_Sep_02_0837,P11,PLC_T_D2S1,NHGX,60.0239342961,
stim/3.jpg,stim/5.jpg,10,4,4,24,144,17,,,,,,4,1,0.833037904978,2016_Sep_02_0837,P11,PLC_T_D2S1,NHGX,60.0239342961,
stim/2.jpg,stim/5.jpg,13,4,4,25,145,18,,,,,,4,1,1.1995721566,2016_Sep_02_0837,P11,PLC_T_D2S1,NHGX,60.0239342961,
stim/5.jpg,stim/3.jpg,10,2,4,26,146,12,,,,,,2,1,0.899717851746,2016_Sep_02_0837,P11,PLC_T_D2S1,NHGX,60.0239342961,
stim/6.jpg,stim/3.jpg,2,4,4,27,147,10,,,,,,4,1,0.899711139014,2016_Sep_02_0837,P11,PLC_T_D2S1,NHGX,60.0239342961,
stim/2.jpg,stim/1.jpg,8,4,4,28,148,8,,,,,,4,1,0.949750152255,2016_Sep_02_0837,P11,PLC_T_D2S1,NHGX,60.0239342961,
stim/1.jpg,stim/2.jpg,8,2,4,29,149,21,,,,,,2,1,0.999669118277,2016_Sep_02_0837,P11,PLC_T_D2S1,NHGX,60.0239342961,
stim/2.jpg,stim/1.jpg,8,4,5,0,150,8,,,,,,2,0,0.715463095766,2016_Sep_02_0837,P11,PLC_T_D2S1,NHGX,60.0239342961,
stim/3.jpg,stim/6.jpg,2,2,5,1,151,1,,,,,,2,1,0.916406905211,2016_Sep_02_0837,P11,PLC_T_D2S1,NHGX,60.0239342961,
stim/1.jpg,stim/6.jpg,1,2,5,2,152,0,,,,,,2,1,0.916359822858,2016_Sep_02_0837,P11,PLC_T_D2S1,NHGX,60.0239342961,
stim/2.jpg,stim/6.jpg,4,2,5,3,153,3,,,,,,2,1,0.866362078481,2016_Sep_02_0837,P11,PLC_T_D2S1,NHGX,60.0239342961,
stim/1.jpg,stim/2.jpg,8,2,5,4,154,21,,,,,,2,1,0.949690706085,2016_Sep_02_0837,P11,PLC_T_D2S1,NHGX,60.0239342961,
stim/3.jpg,stim/5.jpg,10,4,5,5,155,17,,,,,,4,1,0.733151615401,2016_Sep_02_0837,P11,PLC_T_D2S1,NHGX,60.0239342961,
stim/5.jpg,stim/4.jpg,14,2,5,6,156,28,,,,,,2,1,0.866384484327,2016_Sep_02_0837,P11,PLC_T_D2S1,NHGX,60.0239342961,
stim/3.jpg,stim/2.jpg,11,4,5,7,157,22,,,,,,4,1,0.883088863993,2016_Sep_02_0837,P11,PLC_T_D2S1,NHGX,60.0239342961,
stim/4.jpg,stim/1.jpg,9,4,5,8,158,9,,,,,,4,1,0.999686805363,2016_Sep_02_0837,P11,PLC_T_D2S1,NHGX,60.0239342961,
stim/2.jpg,stim/5.jpg,13,4,5,9,159,18,,,,,,4,1,0.699772912986,2016_Sep_02_0837,P11,PLC_T_D2S1,NHGX,60.0239342961,
stim/5.jpg,stim/6.jpg,3,2,5,10,160,2,,,,,,2,1,0.633128629108,2016_Sep_02_0837,P11,PLC_T_D2S1,NHGX,60.0239342961,
stim/1.jpg,stim/4.jpg,9,2,5,11,161,26,,,,,,2,1,0.983025553192,2016_Sep_02_0837,P11,PLC_T_D2S1,NHGX,60.0239342961,
stim/1.jpg,stim/3.jpg,6,2,5,12,162,11,,,,,,2,1,0.916357080022,2016_Sep_02_0837,P11,PLC_T_D2S1,NHGX,60.0239342961,
stim/6.jpg,stim/4.jpg,5,4,5,13,163,25,,,,,,4,1,0.816400932324,2016_Sep_02_0837,P11,PLC_T_D2S1,NHGX,60.0239342961,
stim/2.jpg,stim/4.jpg,15,4,5,14,164,29,,,,,,4,1,1.0163326381,2016_Sep_02_0837,P11,PLC_T_D2S1,NHGX,60.0239342961,
stim/5.jpg,stim/2.jpg,13,2,5,15,165,23,,,,,,2,1,0.916360604807,2016_Sep_02_0837,P11,PLC_T_D2S1,NHGX,60.0239342961,
stim/4.jpg,stim/2.jpg,15,2,5,16,166,24,,,,,,2,1,0.833056530402,2016_Sep_02_0837,P11,PLC_T_D2S1,NHGX,60.0239342961,
stim/5.jpg,stim/3.jpg,10,2,5,17,167,12,,,,,,2,1,0.983031778709,2016_Sep_02_0837,P11,PLC_T_D2S1,NHGX,60.0239342961,
stim/6.jpg,stim/3.jpg,2,4,5,18,168,10,,,,,,4,1,0.816391741416,2016_Sep_02_0837,P11,PLC_T_D2S1,NHGX,60.0239342961,
stim/6.jpg,stim/5.jpg,3,4,5,19,169,15,,,,,,4,1,0.699758819859,2016_Sep_02_0837,P11,PLC_T_D2S1,NHGX,60.0239342961,
stim/6.jpg,stim/1.jpg,1,4,5,20,170,5,,,,,,4,1,0.633129907294,2016_Sep_02_0837,P11,PLC_T_D2S1,NHGX,60.0239342961,
stim/2.jpg,stim/3.jpg,11,2,5,21,171,13,,,,,,2,1,0.949703033812,2016_Sep_02_0837,P11,PLC_T_D2S1,NHGX,60.0239342961,
stim/3.jpg,stim/1.jpg,6,4,5,22,172,6,,,,,,4,1,0.833030401275,2016_Sep_02_0837,P11,PLC_T_D2S1,NHGX,60.0239342961,
stim/5.jpg,stim/1.jpg,7,4,5,23,173,7,,,,,,2,0,0.849719190081,2016_Sep_02_0837,P11,PLC_T_D2S1,NHGX,60.0239342961,
stim/4.jpg,stim/6.jpg,5,2,5,24,174,4,,,,,,2,1,0.699748732716,2016_Sep_02_0837,P11,PLC_T_D2S1,NHGX,60.0239342961,
stim/4.jpg,stim/3.jpg,12,2,5,25,175,14,,,,,,2,1,0.916373131029,2016_Sep_02_0837,P11,PLC_T_D2S1,NHGX,60.0239342961,
stim/1.jpg,stim/5.jpg,7,2,5,26,176,16,,,,,,2,1,1.03301312622,2016_Sep_02_0837,P11,PLC_T_D2S1,NHGX,60.0239342961,
stim/4.jpg,stim/5.jpg,14,4,5,27,177,19,,,,,,4,1,0.866369762633,2016_Sep_02_0837,P11,PLC_T_D2S1,NHGX,60.0239342961,
stim/6.jpg,stim/2.jpg,4,4,5,28,178,20,,,,,,4,1,0.76638992188,2016_Sep_02_0837,P11,PLC_T_D2S1,NHGX,60.0239342961,
stim/3.jpg,stim/4.jpg,12,4,5,29,179,27,,,,,,4,1,0.932939201961,2016_Sep_02_0837,P11,PLC_T_D2S1,NHGX,60.0239342961,
