symbol2,symbol1,decisionID,correct,block_01.thisRepN,block_01.thisTrialN,block_01.thisN,block_01.thisIndex,mouse.x,mouse.y,mouse.leftButton,mouse.midButton,mouse.rightButton,buttonBox_2.keys,buttonBox_2.corr,buttonBox_2.rt,date,Participant,expName,Group,frameRate,
,,,,,,,,0.9984375,0.953125,1,0,0,,,,2016_Aug_30_1104,P7,PLC_T_D2S1,NHGX,60.0283514768,
stim/4.jpg,stim/3.jpg,15,2,0,0,0,24,,,,,,2,1,1.04975330654,2016_Aug_30_1104,P7,PLC_T_D2S1,NHGX,60.0283514768,
stim/2.jpg,stim/4.jpg,5,4,0,1,1,25,,,,,,4,1,0.68310557099,2016_Aug_30_1104,P7,PLC_T_D2S1,NHGX,60.0283514768,
stim/3.jpg,stim/4.jpg,15,4,0,2,2,29,,,,,,4,1,0.749723400112,2016_Aug_30_1104,P7,PLC_T_D2S1,NHGX,60.0283514768,
stim/6.jpg,stim/2.jpg,1,2,0,3,3,0,,,,,,2,1,0.783081547201,2016_Aug_30_1104,P7,PLC_T_D2S1,NHGX,60.0283514768,
stim/1.jpg,stim/5.jpg,10,2,0,4,4,12,,,,,,2,1,0.766344809645,2016_Aug_30_1104,P7,PLC_T_D2S1,NHGX,60.0283514768,
stim/4.jpg,stim/6.jpg,9,4,0,5,5,9,,,,,,4,1,0.949694711714,2016_Aug_30_1104,P7,PLC_T_D2S1,NHGX,60.0283514768,
stim/2.jpg,stim/1.jpg,3,4,0,6,6,15,,,,,,4,1,0.649834066533,2016_Aug_30_1104,P7,PLC_T_D2S1,NHGX,60.0283514768,
stim/2.jpg,stim/6.jpg,1,4,0,7,7,5,,,,,,4,1,0.516503771762,2016_Aug_30_1104,P7,PLC_T_D2S1,NHGX,60.0283514768,
stim/2.jpg,stim/5.jpg,2,4,0,8,8,10,,,,,,4,1,0.466514317508,2016_Aug_30_1104,P7,PLC_T_D2S1,NHGX,60.0283514768,
stim/5.jpg,stim/2.jpg,2,2,0,9,9,1,,,,,,4,0,0.683124178299,2016_Aug_30_1104,P7,PLC_T_D2S1,NHGX,60.0283514768,
stim/6.jpg,stim/1.jpg,7,2,0,10,10,16,,,,,,2,1,0.783085035883,2016_Aug_30_1104,P7,PLC_T_D2S1,NHGX,60.0283514768,
stim/3.jpg,stim/1.jpg,13,4,0,11,11,18,,,,,,4,1,0.716408891629,2016_Aug_30_1104,P7,PLC_T_D2S1,NHGX,60.0283514768,
stim/1.jpg,stim/2.jpg,3,2,0,12,12,2,,,,,,2,1,0.849736780413,2016_Aug_30_1104,P7,PLC_T_D2S1,NHGX,60.0283514768,
stim/6.jpg,stim/3.jpg,8,2,0,13,13,21,,,,,,2,1,0.799726222637,2016_Aug_30_1104,P7,PLC_T_D2S1,NHGX,60.0283514768,
stim/4.jpg,stim/1.jpg,14,4,0,14,14,19,,,,,,2,0,1.13298821442,2016_Aug_30_1104,P7,PLC_T_D2S1,NHGX,60.0283514768,
stim/5.jpg,stim/4.jpg,12,4,0,15,15,27,,,,,,4,1,0.949677129957,2016_Aug_30_1104,P7,PLC_T_D2S1,NHGX,60.0283514768,
stim/4.jpg,stim/5.jpg,12,2,0,16,16,14,,,,,,2,1,0.899701582313,2016_Aug_30_1104,P7,PLC_T_D2S1,NHGX,60.0283514768,
stim/3.jpg,stim/6.jpg,8,4,0,17,17,8,,,,,,4,1,0.749759592185,2016_Aug_30_1104,P7,PLC_T_D2S1,NHGX,60.0283514768,
stim/2.jpg,stim/3.jpg,4,4,0,18,18,20,,,,,,4,1,0.583107790514,2016_Aug_30_1104,P7,PLC_T_D2S1,NHGX,60.0283514768,
stim/1.jpg,stim/4.jpg,14,2,0,19,19,28,,,,,,4,0,0.883044194239,2016_Aug_30_1104,P7,PLC_T_D2S1,NHGX,60.0283514768,
stim/4.jpg,stim/2.jpg,5,2,0,20,20,4,,,,,,2,1,0.883048392687,2016_Aug_30_1104,P7,PLC_T_D2S1,NHGX,60.0283514768,
stim/5.jpg,stim/1.jpg,10,4,0,21,21,17,,,,,,4,1,0.866356767405,2016_Aug_30_1104,P7,PLC_T_D2S1,NHGX,60.0283514768,
stim/6.jpg,stim/5.jpg,6,2,0,22,22,11,,,,,,2,1,1.06624748743,2016_Aug_30_1104,P7,PLC_T_D2S1,NHGX,60.0283514768,
stim/3.jpg,stim/2.jpg,4,2,0,23,23,3,,,,,,4,0,0.59978014684,2016_Aug_30_1104,P7,PLC_T_D2S1,NHGX,60.0283514768,
stim/5.jpg,stim/3.jpg,11,4,0,24,24,22,,,,,,2,0,0.899694635023,2016_Aug_30_1104,P7,PLC_T_D2S1,NHGX,60.0283514768,
stim/3.jpg,stim/5.jpg,11,2,0,25,25,13,,,,,,4,0,0.98302594482,2016_Aug_30_1104,P7,PLC_T_D2S1,NHGX,60.0283514768,
stim/1.jpg,stim/3.jpg,13,2,0,26,26,23,,,,,,2,1,0.69977387022,2016_Aug_30_1104,P7,PLC_T_D2S1,NHGX,60.0283514768,
stim/6.jpg,stim/4.jpg,9,2,0,27,27,26,,,,,,4,0,1.31624621677,2016_Aug_30_1104,P7,PLC_T_D2S1,NHGX,60.0283514768,
stim/1.jpg,stim/6.jpg,7,4,0,28,28,7,,,,,,4,1,0.933037377774,2016_Aug_30_1104,P7,PLC_T_D2S1,NHGX,60.0283514768,
stim/5.jpg,stim/6.jpg,6,4,0,29,29,6,,,,,,4,1,0.883027508713,2016_Aug_30_1104,P7,PLC_T_D2S1,NHGX,60.0283514768,
stim/2.jpg,stim/5.jpg,2,4,1,0,30,10,,,,,,4,1,0.916384407695,2016_Aug_30_1104,P7,PLC_T_D2S1,NHGX,60.0283514768,
stim/3.jpg,stim/1.jpg,13,4,1,1,31,18,,,,,,4,1,0.633135933053,2016_Aug_30_1104,P7,PLC_T_D2S1,NHGX,60.0283514768,
stim/2.jpg,stim/3.jpg,4,4,1,2,32,20,,,,,,4,1,1.06628816968,2016_Aug_30_1104,P7,PLC_T_D2S1,NHGX,60.0283514768,
stim/2.jpg,stim/4.jpg,5,4,1,3,33,25,,,,,,4,1,0.533158104232,2016_Aug_30_1104,P7,PLC_T_D2S1,NHGX,60.0283514768,
stim/5.jpg,stim/3.jpg,11,4,1,4,34,22,,,,,,4,1,0.716431426713,2016_Aug_30_1104,P7,PLC_T_D2S1,NHGX,60.0283514768,
stim/1.jpg,stim/5.jpg,10,2,1,5,35,12,,,,,,2,1,0.916383427255,2016_Aug_30_1104,P7,PLC_T_D2S1,NHGX,60.0283514768,
stim/4.jpg,stim/2.jpg,5,2,1,6,36,4,,,,,,2,1,0.749769697334,2016_Aug_30_1104,P7,PLC_T_D2S1,NHGX,60.0283514768,
stim/5.jpg,stim/2.jpg,2,2,1,7,37,1,,,,,,2,1,0.566476197637,2016_Aug_30_1104,P7,PLC_T_D2S1,NHGX,60.0283514768,
stim/6.jpg,stim/2.jpg,1,2,1,8,38,0,,,,,,2,1,0.499814567505,2016_Aug_30_1104,P7,PLC_T_D2S1,NHGX,60.0283514768,
stim/2.jpg,stim/1.jpg,3,4,1,9,39,15,,,,,,4,1,0.733020968937,2016_Aug_30_1104,P7,PLC_T_D2S1,NHGX,60.0283514768,
stim/3.jpg,stim/5.jpg,11,2,1,10,40,13,,,,,,4,0,0.68311047319,2016_Aug_30_1104,P7,PLC_T_D2S1,NHGX,60.0283514768,
stim/5.jpg,stim/1.jpg,10,4,1,11,41,17,,,,,,4,1,0.666464543633,2016_Aug_30_1104,P7,PLC_T_D2S1,NHGX,60.0283514768,
stim/2.jpg,stim/6.jpg,1,4,1,12,42,5,,,,,,4,1,0.599790333192,2016_Aug_30_1104,P7,PLC_T_D2S1,NHGX,60.0283514768,
stim/6.jpg,stim/5.jpg,6,2,1,13,43,11,,,,,,2,1,0.899708989748,2016_Aug_30_1104,P7,PLC_T_D2S1,NHGX,60.0283514768,
stim/3.jpg,stim/6.jpg,8,4,1,14,44,8,,,,,,4,1,0.999660232404,2016_Aug_30_1104,P7,PLC_T_D2S1,NHGX,60.0283514768,
stim/6.jpg,stim/3.jpg,8,2,1,15,45,21,,,,,,2,1,1.08296894396,2016_Aug_30_1104,P7,PLC_T_D2S1,NHGX,60.0283514768,
stim/5.jpg,stim/6.jpg,6,4,1,16,46,6,,,,,,4,1,1.1496495844,2016_Aug_30_1104,P7,PLC_T_D2S1,NHGX,60.0283514768,
stim/6.jpg,stim/4.jpg,9,2,1,17,47,26,,,,,,2,1,1.14954017812,2016_Aug_30_1104,P7,PLC_T_D2S1,NHGX,60.0283514768,
stim/4.jpg,stim/5.jpg,12,2,1,18,48,14,,,,,,2,1,1.04966269102,2016_Aug_30_1104,P7,PLC_T_D2S1,NHGX,60.0283514768,
stim/5.jpg,stim/4.jpg,12,4,1,19,49,27,,,,,,4,1,0.79972360011,2016_Aug_30_1104,P7,PLC_T_D2S1,NHGX,60.0283514768,
stim/1.jpg,stim/3.jpg,13,2,1,20,50,23,,,,,,2,1,0.866364003414,2016_Aug_30_1104,P7,PLC_T_D2S1,NHGX,60.0283514768,
stim/6.jpg,stim/1.jpg,7,2,1,21,51,16,,,,,,4,0,1.08291741371,2016_Aug_30_1104,P7,PLC_T_D2S1,NHGX,60.0283514768,
stim/4.jpg,stim/3.jpg,15,2,1,22,52,24,,,,,,2,1,0.816377890475,2016_Aug_30_1104,P7,PLC_T_D2S1,NHGX,60.0283514768,
stim/4.jpg,stim/6.jpg,9,4,1,23,53,9,,,,,,4,1,0.616464818818,2016_Aug_30_1104,P7,PLC_T_D2S1,NHGX,60.0283514768,
stim/1.jpg,stim/6.jpg,7,4,1,24,54,7,,,,,,2,0,0.633117124243,2016_Aug_30_1104,P7,PLC_T_D2S1,NHGX,60.0283514768,
stim/1.jpg,stim/2.jpg,3,2,1,25,55,2,,,,,,2,1,0.866373320602,2016_Aug_30_1104,P7,PLC_T_D2S1,NHGX,60.0283514768,
stim/1.jpg,stim/4.jpg,14,2,1,26,56,28,,,,,,2,1,1.0330126382,2016_Aug_30_1104,P7,PLC_T_D2S1,NHGX,60.0283514768,
stim/4.jpg,stim/1.jpg,14,4,1,27,57,19,,,,,,4,1,1.09962568242,2016_Aug_30_1104,P7,PLC_T_D2S1,NHGX,60.0283514768,
stim/3.jpg,stim/4.jpg,15,4,1,28,58,29,,,,,,4,1,0.866388739977,2016_Aug_30_1104,P7,PLC_T_D2S1,NHGX,60.0283514768,
stim/3.jpg,stim/2.jpg,4,2,1,29,59,3,,,,,,2,1,1.13296927328,2016_Aug_30_1104,P7,PLC_T_D2S1,NHGX,60.0283514768,
stim/3.jpg,stim/5.jpg,11,2,2,0,60,13,,,,,,4,0,0.599776880712,2016_Aug_30_1104,P7,PLC_T_D2S1,NHGX,60.0283514768,
stim/2.jpg,stim/5.jpg,2,4,2,1,61,10,,,,,,4,1,0.583136322522,2016_Aug_30_1104,P7,PLC_T_D2S1,NHGX,60.0283514768,
stim/6.jpg,stim/3.jpg,8,2,2,2,62,21,,,,,,2,1,0.899674229238,2016_Aug_30_1104,P7,PLC_T_D2S1,NHGX,60.0283514768,
stim/1.jpg,stim/3.jpg,13,2,2,3,63,23,,,,,,2,1,0.683016576505,2016_Aug_30_1104,P7,PLC_T_D2S1,NHGX,60.0283514768,
stim/4.jpg,stim/5.jpg,12,2,2,4,64,14,,,,,,2,1,0.966345970534,2016_Aug_30_1104,P7,PLC_T_D2S1,NHGX,60.0283514768,
stim/6.jpg,stim/5.jpg,6,2,2,5,65,11,,,,,,2,1,0.899707248414,2016_Aug_30_1104,P7,PLC_T_D2S1,NHGX,60.0283514768,
stim/4.jpg,stim/6.jpg,9,4,2,6,66,9,,,,,,4,1,1.2162702947,2016_Aug_30_1104,P7,PLC_T_D2S1,NHGX,60.0283514768,
stim/1.jpg,stim/6.jpg,7,4,2,7,67,7,,,,,,4,1,0.583142132984,2016_Aug_30_1104,P7,PLC_T_D2S1,NHGX,60.0283514768,
stim/1.jpg,stim/5.jpg,10,2,2,8,68,12,,,,,,2,1,0.616464226343,2016_Aug_30_1104,P7,PLC_T_D2S1,NHGX,60.0283514768,
stim/5.jpg,stim/6.jpg,6,4,2,9,69,6,,,,,,4,1,0.783111071679,2016_Aug_30_1104,P7,PLC_T_D2S1,NHGX,60.0283514768,
stim/6.jpg,stim/4.jpg,9,2,2,10,70,26,,,,,,2,1,1.032994073,2016_Aug_30_1104,P7,PLC_T_D2S1,NHGX,60.0283514768,
stim/3.jpg,stim/4.jpg,15,4,2,11,71,29,,,,,,4,1,0.766421383217,2016_Aug_30_1104,P7,PLC_T_D2S1,NHGX,60.0283514768,
stim/4.jpg,stim/3.jpg,15,2,2,12,72,24,,,,,,2,1,0.833047359616,2016_Aug_30_1104,P7,PLC_T_D2S1,NHGX,60.0283514768,
stim/5.jpg,stim/2.jpg,2,2,2,13,73,1,,,,,,2,1,0.766395813581,2016_Aug_30_1104,P7,PLC_T_D2S1,NHGX,60.0283514768,
stim/1.jpg,stim/2.jpg,3,2,2,14,74,2,,,,,,2,1,0.583138478889,2016_Aug_30_1104,P7,PLC_T_D2S1,NHGX,60.0283514768,
stim/3.jpg,stim/6.jpg,8,4,2,15,75,8,,,,,,4,1,0.733071230024,2016_Aug_30_1104,P7,PLC_T_D2S1,NHGX,60.0283514768,
stim/6.jpg,stim/1.jpg,7,2,2,16,76,16,,,,,,2,1,0.666430095901,2016_Aug_30_1104,P7,PLC_T_D2S1,NHGX,60.0283514768,
stim/1.jpg,stim/4.jpg,14,2,2,17,77,28,,,,,,4,0,0.966354878704,2016_Aug_30_1104,P7,PLC_T_D2S1,NHGX,60.0283514768,
stim/2.jpg,stim/6.jpg,1,4,2,18,78,5,,,,,,4,1,0.783069499216,2016_Aug_30_1104,P7,PLC_T_D2S1,NHGX,60.0283514768,
stim/5.jpg,stim/4.jpg,12,4,2,19,79,27,,,,,,4,1,0.849639629628,2016_Aug_30_1104,P7,PLC_T_D2S1,NHGX,60.0283514768,
stim/5.jpg,stim/3.jpg,11,4,2,20,80,22,,,,,,2,0,1.08293586163,2016_Aug_30_1104,P7,PLC_T_D2S1,NHGX,60.0283514768,
stim/6.jpg,stim/2.jpg,1,2,2,21,81,0,,,,,,2,1,0.816358546333,2016_Aug_30_1104,P7,PLC_T_D2S1,NHGX,60.0283514768,
stim/4.jpg,stim/1.jpg,14,4,2,22,82,19,,,,,,4,1,0.616448767871,2016_Aug_30_1104,P7,PLC_T_D2S1,NHGX,60.0283514768,
stim/3.jpg,stim/2.jpg,4,2,2,23,83,3,,,,,,4,0,0.999656614399,2016_Aug_30_1104,P7,PLC_T_D2S1,NHGX,60.0283514768,
stim/2.jpg,stim/4.jpg,5,4,2,24,84,25,,,,,,4,1,0.766417894535,2016_Aug_30_1104,P7,PLC_T_D2S1,NHGX,60.0283514768,
stim/5.jpg,stim/1.jpg,10,4,2,25,85,17,,,,,,4,1,1.0329988128,2016_Aug_30_1104,P7,PLC_T_D2S1,NHGX,60.0283514768,
stim/4.jpg,stim/2.jpg,5,2,2,26,86,4,,,,,,2,1,1.04957602132,2016_Aug_30_1104,P7,PLC_T_D2S1,NHGX,60.0283514768,
stim/2.jpg,stim/3.jpg,4,4,2,27,87,20,,,,,,4,1,0.599800624805,2016_Aug_30_1104,P7,PLC_T_D2S1,NHGX,60.0283514768,
stim/2.jpg,stim/1.jpg,3,4,2,28,88,15,,,,,,4,1,0.49980553302,2016_Aug_30_1104,P7,PLC_T_D2S1,NHGX,60.0283514768,
stim/3.jpg,stim/1.jpg,13,4,2,29,89,18,,,,,,4,1,0.666445954369,2016_Aug_30_1104,P7,PLC_T_D2S1,NHGX,60.0283514768,
stim/5.jpg,stim/4.jpg,12,4,3,0,90,27,,,,,,4,1,1.11629796055,2016_Aug_30_1104,P7,PLC_T_D2S1,NHGX,60.0283514768,
stim/5.jpg,stim/3.jpg,11,4,3,1,91,22,,,,,,2,0,0.966351287767,2016_Aug_30_1104,P7,PLC_T_D2S1,NHGX,60.0283514768,
stim/6.jpg,stim/3.jpg,8,2,3,2,92,21,,,,,,2,1,0.866369374782,2016_Aug_30_1104,P7,PLC_T_D2S1,NHGX,60.0283514768,
stim/1.jpg,stim/3.jpg,13,2,3,3,93,23,,,,,,2,1,0.833068418026,2016_Aug_30_1104,P7,PLC_T_D2S1,NHGX,60.0283514768,
stim/3.jpg,stim/1.jpg,13,4,3,4,94,18,,,,,,4,1,0.799748168254,2016_Aug_30_1104,P7,PLC_T_D2S1,NHGX,60.0283514768,
stim/2.jpg,stim/1.jpg,3,4,3,5,95,15,,,,,,4,1,0.699747876528,2016_Aug_30_1104,P7,PLC_T_D2S1,NHGX,60.0283514768,
stim/5.jpg,stim/2.jpg,2,2,3,6,96,1,,,,,,2,1,0.748730298531,2016_Aug_30_1104,P7,PLC_T_D2S1,NHGX,60.0283514768,
stim/4.jpg,stim/2.jpg,5,2,3,7,97,4,,,,,,2,1,0.933021666673,2016_Aug_30_1104,P7,PLC_T_D2S1,NHGX,60.0283514768,
stim/4.jpg,stim/6.jpg,9,4,3,8,98,9,,,,,,4,1,1.09962843727,2016_Aug_30_1104,P7,PLC_T_D2S1,NHGX,60.0283514768,
stim/5.jpg,stim/1.jpg,10,4,3,9,99,17,,,,,,4,1,0.699786871577,2016_Aug_30_1104,P7,PLC_T_D2S1,NHGX,60.0283514768,
stim/4.jpg,stim/1.jpg,14,4,3,10,100,19,,,,,,4,1,0.849697421458,2016_Aug_30_1104,P7,PLC_T_D2S1,NHGX,60.0283514768,
stim/6.jpg,stim/5.jpg,6,2,3,11,101,11,,,,,,2,1,0.966340689391,2016_Aug_30_1104,P7,PLC_T_D2S1,NHGX,60.0283514768,
stim/3.jpg,stim/5.jpg,11,2,3,12,102,13,,,,,,4,0,0.583106629625,2016_Aug_30_1104,P7,PLC_T_D2S1,NHGX,60.0283514768,
stim/3.jpg,stim/2.jpg,4,2,3,13,103,3,,,,,,2,1,0.61649368165,2016_Aug_30_1104,P7,PLC_T_D2S1,NHGX,60.0283514768,
stim/5.jpg,stim/6.jpg,6,4,3,14,104,6,,,,,,4,1,0.883019662184,2016_Aug_30_1104,P7,PLC_T_D2S1,NHGX,60.0283514768,
stim/4.jpg,stim/3.jpg,15,2,3,15,105,24,,,,,,2,1,0.799727654199,2016_Aug_30_1104,P7,PLC_T_D2S1,NHGX,60.0283514768,
stim/6.jpg,stim/1.jpg,7,2,3,16,106,16,,,,,,4,0,1.09963917099,2016_Aug_30_1104,P7,PLC_T_D2S1,NHGX,60.0283514768,
stim/3.jpg,stim/4.jpg,15,4,3,17,107,29,,,,,,4,1,0.633120790367,2016_Aug_30_1104,P7,PLC_T_D2S1,NHGX,60.0283514768,
stim/6.jpg,stim/4.jpg,9,2,3,18,108,26,,,,,,2,1,0.73312762638,2016_Aug_30_1104,P7,PLC_T_D2S1,NHGX,60.0283514768,
stim/2.jpg,stim/6.jpg,1,4,3,19,109,5,,,,,,2,0,0.633130871456,2016_Aug_30_1104,P7,PLC_T_D2S1,NHGX,60.0283514768,
stim/2.jpg,stim/4.jpg,5,4,3,20,110,25,,,,,,4,1,0.74975663282,2016_Aug_30_1104,P7,PLC_T_D2S1,NHGX,60.0283514768,
stim/1.jpg,stim/2.jpg,3,2,3,21,111,2,,,,,,2,1,0.633098631219,2016_Aug_30_1104,P7,PLC_T_D2S1,NHGX,60.0283514768,
stim/3.jpg,stim/6.jpg,8,4,3,22,112,8,,,,,,4,1,0.699766414664,2016_Aug_30_1104,P7,PLC_T_D2S1,NHGX,60.0283514768,
stim/1.jpg,stim/5.jpg,10,2,3,23,113,12,,,,,,2,1,0.78307124055,2016_Aug_30_1104,P7,PLC_T_D2S1,NHGX,60.0283514768,
stim/2.jpg,stim/5.jpg,2,4,3,24,114,10,,,,,,4,1,0.583144295365,2016_Aug_30_1104,P7,PLC_T_D2S1,NHGX,60.0283514768,
stim/2.jpg,stim/3.jpg,4,4,3,25,115,20,,,,,,4,1,0.599790793337,2016_Aug_30_1104,P7,PLC_T_D2S1,NHGX,60.0283514768,
stim/6.jpg,stim/2.jpg,1,2,3,26,116,0,,,,,,2,1,0.599762363583,2016_Aug_30_1104,P7,PLC_T_D2S1,NHGX,60.0283514768,
stim/1.jpg,stim/6.jpg,7,4,3,27,117,7,,,,,,4,1,0.583194923366,2016_Aug_30_1104,P7,PLC_T_D2S1,NHGX,60.0283514768,
stim/4.jpg,stim/5.jpg,12,2,3,28,118,14,,,,,,2,1,0.699778534829,2016_Aug_30_1104,P7,PLC_T_D2S1,NHGX,60.0283514768,
stim/1.jpg,stim/4.jpg,14,2,3,29,119,28,,,,,,2,1,0.966379173167,2016_Aug_30_1104,P7,PLC_T_D2S1,NHGX,60.0283514768,
stim/4.jpg,stim/1.jpg,14,4,4,0,120,19,,,,,,2,0,1.08299328654,2016_Aug_30_1104,P7,PLC_T_D2S1,NHGX,60.0283514768,
stim/5.jpg,stim/4.jpg,12,4,4,1,121,27,,,,,,4,1,0.566489971917,2016_Aug_30_1104,P7,PLC_T_D2S1,NHGX,60.0283514768,
stim/6.jpg,stim/1.jpg,7,2,4,2,122,16,,,,,,2,1,0.833086646391,2016_Aug_30_1104,P7,PLC_T_D2S1,NHGX,60.0283514768,
stim/3.jpg,stim/5.jpg,11,2,4,3,123,13,,,,,,4,0,0.683021875693,2016_Aug_30_1104,P7,PLC_T_D2S1,NHGX,60.0283514768,
stim/2.jpg,stim/4.jpg,5,4,4,4,124,25,,,,,,4,1,0.683095571103,2016_Aug_30_1104,P7,PLC_T_D2S1,NHGX,60.0283514768,
stim/1.jpg,stim/4.jpg,14,2,4,5,125,28,,,,,,4,0,1.08297379503,2016_Aug_30_1104,P7,PLC_T_D2S1,NHGX,60.0283514768,
stim/1.jpg,stim/3.jpg,13,2,4,6,126,23,,,,,,2,1,1.08298388514,2016_Aug_30_1104,P7,PLC_T_D2S1,NHGX,60.0283514768,
stim/5.jpg,stim/6.jpg,6,4,4,7,127,6,,,,,,4,1,0.949656922666,2016_Aug_30_1104,P7,PLC_T_D2S1,NHGX,60.0283514768,
stim/6.jpg,stim/4.jpg,9,2,4,8,128,26,,,,,,4,0,1.23297164919,2016_Aug_30_1104,P7,PLC_T_D2S1,NHGX,60.0283514768,
stim/3.jpg,stim/4.jpg,15,4,4,9,129,29,,,,,,4,1,0.533173081506,2016_Aug_30_1104,P7,PLC_T_D2S1,NHGX,60.0283514768,
stim/3.jpg,stim/1.jpg,13,4,4,10,130,18,,,,,,4,1,0.633077151761,2016_Aug_30_1104,P7,PLC_T_D2S1,NHGX,60.0283514768,
stim/4.jpg,stim/3.jpg,15,2,4,11,131,24,,,,,,2,1,0.916419505043,2016_Aug_30_1104,P7,PLC_T_D2S1,NHGX,60.0283514768,
stim/1.jpg,stim/5.jpg,10,2,4,12,132,12,,,,,,2,1,1.01630665519,2016_Aug_30_1104,P7,PLC_T_D2S1,NHGX,60.0283514768,
stim/5.jpg,stim/3.jpg,11,4,4,13,133,22,,,,,,4,1,0.716427393676,2016_Aug_30_1104,P7,PLC_T_D2S1,NHGX,60.0283514768,
stim/3.jpg,stim/6.jpg,8,4,4,14,134,8,,,,,,4,1,0.499820128345,2016_Aug_30_1104,P7,PLC_T_D2S1,NHGX,60.0283514768,
stim/3.jpg,stim/2.jpg,4,2,4,15,135,3,,,,,,4,0,0.499839767221,2016_Aug_30_1104,P7,PLC_T_D2S1,NHGX,60.0283514768,
stim/2.jpg,stim/1.jpg,3,4,4,16,136,15,,,,,,4,1,0.699753202784,2016_Aug_30_1104,P7,PLC_T_D2S1,NHGX,60.0283514768,
stim/5.jpg,stim/2.jpg,2,2,4,17,137,1,,,,,,4,0,0.566464047398,2016_Aug_30_1104,P7,PLC_T_D2S1,NHGX,60.0283514768,
stim/2.jpg,stim/5.jpg,2,4,4,18,138,10,,,,,,4,1,0.499839616847,2016_Aug_30_1104,P7,PLC_T_D2S1,NHGX,60.0283514768,
stim/6.jpg,stim/5.jpg,6,2,4,19,139,11,,,,,,2,1,0.683102184562,2016_Aug_30_1104,P7,PLC_T_D2S1,NHGX,60.0283514768,
stim/1.jpg,stim/2.jpg,3,2,4,20,140,2,,,,,,2,1,0.933017077251,2016_Aug_30_1104,P7,PLC_T_D2S1,NHGX,60.0283514768,
stim/1.jpg,stim/6.jpg,7,4,4,21,141,7,,,,,,4,1,0.649777949873,2016_Aug_30_1104,P7,PLC_T_D2S1,NHGX,60.0283514768,
stim/6.jpg,stim/3.jpg,8,2,4,22,142,21,,,,,,2,1,0.716409264558,2016_Aug_30_1104,P7,PLC_T_D2S1,NHGX,60.0283514768,
stim/4.jpg,stim/6.jpg,9,4,4,23,143,9,,,,,,4,1,0.849618962192,2016_Aug_30_1104,P7,PLC_T_D2S1,NHGX,60.0283514768,
stim/5.jpg,stim/1.jpg,10,4,4,24,144,17,,,,,,4,1,0.666371606335,2016_Aug_30_1104,P7,PLC_T_D2S1,NHGX,60.0283514768,
stim/2.jpg,stim/3.jpg,4,4,4,25,145,20,,,,,,4,1,0.533165463547,2016_Aug_30_1104,P7,PLC_T_D2S1,NHGX,60.0283514768,
stim/4.jpg,stim/5.jpg,12,2,4,26,146,14,,,,,,2,1,0.933011814152,2016_Aug_30_1104,P7,PLC_T_D2S1,NHGX,60.0283514768,
stim/2.jpg,stim/6.jpg,1,4,4,27,147,5,,,,,,4,1,0.51651465585,2016_Aug_30_1104,P7,PLC_T_D2S1,NHGX,60.0283514768,
stim/6.jpg,stim/2.jpg,1,2,4,28,148,0,,,,,,2,1,0.583133107521,2016_Aug_30_1104,P7,PLC_T_D2S1,NHGX,60.0283514768,
stim/4.jpg,stim/2.jpg,5,2,4,29,149,4,,,,,,2,1,0.649785218964,2016_Aug_30_1104,P7,PLC_T_D2S1,NHGX,60.0283514768,
stim/2.jpg,stim/1.jpg,3,4,5,0,150,15,,,,,,4,1,0.433185667831,2016_Aug_30_1104,P7,PLC_T_D2S1,NHGX,60.0283514768,
stim/1.jpg,stim/2.jpg,3,2,5,1,151,2,,,,,,2,1,0.799740267591,2016_Aug_30_1104,P7,PLC_T_D2S1,NHGX,60.0283514768,
stim/4.jpg,stim/6.jpg,9,4,5,2,152,9,,,,,,4,1,0.649784343786,2016_Aug_30_1104,P7,PLC_T_D2S1,NHGX,60.0283514768,
stim/4.jpg,stim/3.jpg,15,2,5,3,153,24,,,,,,4,0,0.649764025218,2016_Aug_30_1104,P7,PLC_T_D2S1,NHGX,60.0283514768,
stim/1.jpg,stim/6.jpg,7,4,5,4,154,7,,,,,,2,0,0.633135454863,2016_Aug_30_1104,P7,PLC_T_D2S1,NHGX,60.0283514768,
stim/5.jpg,stim/4.jpg,12,4,5,5,155,27,,,,,,4,1,0.833079193843,2016_Aug_30_1104,P7,PLC_T_D2S1,NHGX,60.0283514768,
stim/6.jpg,stim/4.jpg,9,2,5,6,156,26,,,,,,2,1,0.716427333526,2016_Aug_30_1104,P7,PLC_T_D2S1,NHGX,60.0283514768,
stim/4.jpg,stim/5.jpg,12,2,5,7,157,14,,,,,,2,1,0.799742192381,2016_Aug_30_1104,P7,PLC_T_D2S1,NHGX,60.0283514768,
stim/6.jpg,stim/2.jpg,1,2,5,8,158,0,,,,,,2,1,0.816347692319,2016_Aug_30_1104,P7,PLC_T_D2S1,NHGX,60.0283514768,
stim/2.jpg,stim/4.jpg,5,4,5,9,159,25,,,,,,4,1,0.533087750138,2016_Aug_30_1104,P7,PLC_T_D2S1,NHGX,60.0283514768,
stim/6.jpg,stim/3.jpg,8,2,5,10,160,21,,,,,,2,1,0.749788121187,2016_Aug_30_1104,P7,PLC_T_D2S1,NHGX,60.0283514768,
stim/1.jpg,stim/4.jpg,14,2,5,11,161,28,,,,,,2,1,0.683115197949,2016_Aug_30_1104,P7,PLC_T_D2S1,NHGX,60.0283514768,
stim/2.jpg,stim/3.jpg,4,4,5,12,162,20,,,,,,2,0,0.6664417078,2016_Aug_30_1104,P7,PLC_T_D2S1,NHGX,60.0283514768,
stim/2.jpg,stim/5.jpg,2,4,5,13,163,10,,,,,,4,1,0.449831314685,2016_Aug_30_1104,P7,PLC_T_D2S1,NHGX,60.0283514768,
stim/5.jpg,stim/2.jpg,2,2,5,14,164,1,,,,,,2,1,0.54982181404,2016_Aug_30_1104,P7,PLC_T_D2S1,NHGX,60.0283514768,
stim/3.jpg,stim/2.jpg,4,2,5,15,165,3,,,,,,4,0,0.616486144893,2016_Aug_30_1104,P7,PLC_T_D2S1,NHGX,60.0283514768,
stim/2.jpg,stim/6.jpg,1,4,5,16,166,5,,,,,,4,1,0.466509216813,2016_Aug_30_1104,P7,PLC_T_D2S1,NHGX,60.0283514768,
stim/5.jpg,stim/1.jpg,10,4,5,17,167,17,,,,,,4,1,0.916358362876,2016_Aug_30_1104,P7,PLC_T_D2S1,NHGX,60.0283514768,
stim/4.jpg,stim/2.jpg,5,2,5,18,168,4,,,,,,2,1,0.566481680282,2016_Aug_30_1104,P7,PLC_T_D2S1,NHGX,60.0283514768,
stim/4.jpg,stim/1.jpg,14,4,5,19,169,19,,,,,,4,1,0.866350550934,2016_Aug_30_1104,P7,PLC_T_D2S1,NHGX,60.0283514768,
stim/3.jpg,stim/5.jpg,11,2,5,20,170,13,,,,,,4,0,0.633097783108,2016_Aug_30_1104,P7,PLC_T_D2S1,NHGX,60.0283514768,
stim/6.jpg,stim/1.jpg,7,2,5,21,171,16,,,,,,2,1,0.883043264926,2016_Aug_30_1104,P7,PLC_T_D2S1,NHGX,60.0283514768,
stim/3.jpg,stim/6.jpg,8,4,5,22,172,8,,,,,,4,1,0.633131653402,2016_Aug_30_1104,P7,PLC_T_D2S1,NHGX,60.0283514768,
stim/3.jpg,stim/1.jpg,13,4,5,23,173,18,,,,,,4,1,0.799785722717,2016_Aug_30_1104,P7,PLC_T_D2S1,NHGX,60.0283514768,
stim/5.jpg,stim/6.jpg,6,4,5,24,174,6,,,,,,4,1,0.91635192385,2016_Aug_30_1104,P7,PLC_T_D2S1,NHGX,60.0283514768,
stim/6.jpg,stim/5.jpg,6,2,5,25,175,11,,,,,,2,1,0.849615103589,2016_Aug_30_1104,P7,PLC_T_D2S1,NHGX,60.0283514768,
stim/5.jpg,stim/3.jpg,11,4,5,26,176,22,,,,,,4,1,0.599806014218,2016_Aug_30_1104,P7,PLC_T_D2S1,NHGX,60.0283514768,
stim/1.jpg,stim/3.jpg,13,2,5,27,177,23,,,,,,2,1,0.86637126649,2016_Aug_30_1104,P7,PLC_T_D2S1,NHGX,60.0283514768,
stim/3.jpg,stim/4.jpg,15,4,5,28,178,29,,,,,,4,1,0.58311908362,2016_Aug_30_1104,P7,PLC_T_D2S1,NHGX,60.0283514768,
stim/1.jpg,stim/5.jpg,10,2,5,29,179,12,,,,,,2,1,0.866300346988,2016_Aug_30_1104,P7,PLC_T_D2S1,NHGX,60.0283514768,
