fb_corr,fb_incorr,symbol2,symbol1,fb_late,pair,position,correct,block_01.thisRepN,block_01.thisTrialN,block_01.thisN,block_01.thisIndex,block_02.thisRepN,block_02.thisTrialN,block_02.thisN,block_02.thisIndex,mouse.x,mouse.y,mouse.leftButton,mouse.midButton,mouse.rightButton,buttonBox_2.keys,buttonBox_2.corr,buttonBox_2.rt,mouse_2.x,mouse_2.y,mouse_2.leftButton,mouse_2.midButton,mouse_2.rightButton,expName,Participant,frameRate,SessionNumber,Version,date,Group,
,,,,,,,,,,,,,,,,0.9984375,1.0,1,0,0,,,,,,,,,PLC_L_D1S2,P12,60.0161878229,01,B,2015_Jan_30_1636,X,
stim/posf.jpg,stim/negf.jpg,stim/2.jpg,stim/3.jpg,stim/latef.jpg,EF,1,2,0,0,0,42,,,,,,,,,,4,0,1.44953105616,,,,,,PLC_L_D1S2,P12,60.0161878229,01,B,2015_Jan_30_1636,X,
stim/posf.jpg,stim/negf.jpg,stim/2.jpg,stim/3.jpg,stim/latef.jpg,EF,1,2,0,1,1,40,,,,,,,,,,None,0,,,,,,,PLC_L_D1S2,P12,60.0161878229,01,B,2015_Jan_30_1636,X,
stim/posf.jpg,stim/negf.jpg,stim/3.jpg,stim/2.jpg,stim/latef.jpg,EF,2,4,0,2,2,52,,,,,,,,,,4,1,0.883024395305,,,,,,PLC_L_D1S2,P12,60.0161878229,01,B,2015_Jan_30_1636,X,
stim/negf.jpg,stim/posf.jpg,stim/6.jpg,stim/1.jpg,stim/latef.jpg,AB,1,2,0,3,3,9,,,,,,,,,,4,0,1.29956880023,,,,,,PLC_L_D1S2,P12,60.0161878229,01,B,2015_Jan_30_1636,X,
stim/posf.jpg,stim/negf.jpg,stim/2.jpg,stim/3.jpg,stim/latef.jpg,EF,1,2,0,4,4,41,,,,,,,,,,2,1,1.13293577341,,,,,,PLC_L_D1S2,P12,60.0161878229,01,B,2015_Jan_30_1636,X,
stim/posf.jpg,stim/negf.jpg,stim/1.jpg,stim/6.jpg,stim/latef.jpg,AB,2,4,0,5,5,10,,,,,,,,,,2,0,1.26624034105,,,,,,PLC_L_D1S2,P12,60.0161878229,01,B,2015_Jan_30_1636,X,
stim/posf.jpg,stim/negf.jpg,stim/5.jpg,stim/4.jpg,stim/latef.jpg,CD,1,2,0,6,6,25,,,,,,,,,,2,1,0.783081074578,,,,,,PLC_L_D1S2,P12,60.0161878229,01,B,2015_Jan_30_1636,X,
stim/posf.jpg,stim/negf.jpg,stim/2.jpg,stim/3.jpg,stim/latef.jpg,EF,1,2,0,7,7,43,,,,,,,,,,2,1,0.833047562048,,,,,,PLC_L_D1S2,P12,60.0161878229,01,B,2015_Jan_30_1636,X,
stim/negf.jpg,stim/posf.jpg,stim/5.jpg,stim/4.jpg,stim/latef.jpg,CD,1,2,0,8,8,29,,,,,,,,,,2,1,0.899707993174,,,,,,PLC_L_D1S2,P12,60.0161878229,01,B,2015_Jan_30_1636,X,
stim/posf.jpg,stim/negf.jpg,stim/1.jpg,stim/6.jpg,stim/latef.jpg,AB,2,4,0,9,9,14,,,,,,,,,,2,0,0.549776215215,,,,,,PLC_L_D1S2,P12,60.0161878229,01,B,2015_Jan_30_1636,X,
stim/posf.jpg,stim/negf.jpg,stim/5.jpg,stim/4.jpg,stim/latef.jpg,CD,1,2,0,10,10,24,,,,,,,,,,2,1,1.09964158164,,,,,,PLC_L_D1S2,P12,60.0161878229,01,B,2015_Jan_30_1636,X,
stim/posf.jpg,stim/negf.jpg,stim/5.jpg,stim/4.jpg,stim/latef.jpg,CD,1,2,0,11,11,22,,,,,,,,,,2,1,0.733119892333,,,,,,PLC_L_D1S2,P12,60.0161878229,01,B,2015_Jan_30_1636,X,
stim/posf.jpg,stim/negf.jpg,stim/3.jpg,stim/2.jpg,stim/latef.jpg,EF,2,4,0,12,12,54,,,,,,,,,,2,0,1.13295924993,,,,,,PLC_L_D1S2,P12,60.0161878229,01,B,2015_Jan_30_1636,X,
stim/posf.jpg,stim/negf.jpg,stim/6.jpg,stim/1.jpg,stim/latef.jpg,AB,1,2,0,13,13,1,,,,,,,,,,4,0,0.949681151269,,,,,,PLC_L_D1S2,P12,60.0161878229,01,B,2015_Jan_30_1636,X,
stim/posf.jpg,stim/negf.jpg,stim/5.jpg,stim/4.jpg,stim/latef.jpg,CD,1,2,0,14,14,26,,,,,,,,,,2,1,0.816382297877,,,,,,PLC_L_D1S2,P12,60.0161878229,01,B,2015_Jan_30_1636,X,
stim/posf.jpg,stim/negf.jpg,stim/6.jpg,stim/1.jpg,stim/latef.jpg,AB,1,2,0,15,15,7,,,,,,,,,,2,1,1.06633627717,,,,,,PLC_L_D1S2,P12,60.0161878229,01,B,2015_Jan_30_1636,X,
stim/negf.jpg,stim/posf.jpg,stim/1.jpg,stim/6.jpg,stim/latef.jpg,AB,2,4,0,16,16,19,,,,,,,,,,4,1,1.3662162089,,,,,,PLC_L_D1S2,P12,60.0161878229,01,B,2015_Jan_30_1636,X,
stim/posf.jpg,stim/negf.jpg,stim/1.jpg,stim/6.jpg,stim/latef.jpg,AB,2,4,0,17,17,11,,,,,,,,,,4,1,0.683099230833,,,,,,PLC_L_D1S2,P12,60.0161878229,01,B,2015_Jan_30_1636,X,
stim/posf.jpg,stim/negf.jpg,stim/1.jpg,stim/6.jpg,stim/latef.jpg,AB,2,4,0,18,18,18,,,,,,,,,,4,1,0.716404258614,,,,,,PLC_L_D1S2,P12,60.0161878229,01,B,2015_Jan_30_1636,X,
stim/posf.jpg,stim/negf.jpg,stim/4.jpg,stim/5.jpg,stim/latef.jpg,CD,2,4,0,19,19,33,,,,,,,,,,2,0,1.11627790768,,,,,,PLC_L_D1S2,P12,60.0161878229,01,B,2015_Jan_30_1636,X,
stim/posf.jpg,stim/negf.jpg,stim/5.jpg,stim/4.jpg,stim/latef.jpg,CD,1,2,0,20,20,21,,,,,,,,,,2,1,0.61646468222,,,,,,PLC_L_D1S2,P12,60.0161878229,01,B,2015_Jan_30_1636,X,
stim/negf.jpg,stim/posf.jpg,stim/5.jpg,stim/4.jpg,stim/latef.jpg,CD,1,2,0,21,21,28,,,,,,,,,,2,1,0.799727445657,,,,,,PLC_L_D1S2,P12,60.0161878229,01,B,2015_Jan_30_1636,X,
stim/posf.jpg,stim/negf.jpg,stim/4.jpg,stim/5.jpg,stim/latef.jpg,CD,2,4,0,22,22,35,,,,,,,,,,4,1,0.966354604852,,,,,,PLC_L_D1S2,P12,60.0161878229,01,B,2015_Jan_30_1636,X,
stim/posf.jpg,stim/negf.jpg,stim/4.jpg,stim/5.jpg,stim/latef.jpg,CD,2,4,0,23,23,37,,,,,,,,,,4,1,0.783007673628,,,,,,PLC_L_D1S2,P12,60.0161878229,01,B,2015_Jan_30_1636,X,
stim/posf.jpg,stim/negf.jpg,stim/4.jpg,stim/5.jpg,stim/latef.jpg,CD,2,4,0,24,24,34,,,,,,,,,,4,1,0.882985267781,,,,,,PLC_L_D1S2,P12,60.0161878229,01,B,2015_Jan_30_1636,X,
stim/negf.jpg,stim/posf.jpg,stim/4.jpg,stim/5.jpg,stim/latef.jpg,CD,2,4,0,25,25,38,,,,,,,,,,4,1,0.499827480997,,,,,,PLC_L_D1S2,P12,60.0161878229,01,B,2015_Jan_30_1636,X,
stim/posf.jpg,stim/negf.jpg,stim/4.jpg,stim/5.jpg,stim/latef.jpg,CD,2,4,0,26,26,32,,,,,,,,,,4,1,0.599807264605,,,,,,PLC_L_D1S2,P12,60.0161878229,01,B,2015_Jan_30_1636,X,
stim/posf.jpg,stim/negf.jpg,stim/2.jpg,stim/3.jpg,stim/latef.jpg,EF,1,2,0,27,27,47,,,,,,,,,,2,1,1.06631896903,,,,,,PLC_L_D1S2,P12,60.0161878229,01,B,2015_Jan_30_1636,X,
stim/posf.jpg,stim/negf.jpg,stim/1.jpg,stim/6.jpg,stim/latef.jpg,AB,2,4,0,28,28,15,,,,,,,,,,4,1,1.23292783062,,,,,,PLC_L_D1S2,P12,60.0161878229,01,B,2015_Jan_30_1636,X,
stim/posf.jpg,stim/negf.jpg,stim/6.jpg,stim/1.jpg,stim/latef.jpg,AB,1,2,0,29,29,0,,,,,,,,,,2,1,0.916366198751,,,,,,PLC_L_D1S2,P12,60.0161878229,01,B,2015_Jan_30_1636,X,
stim/posf.jpg,stim/negf.jpg,stim/3.jpg,stim/2.jpg,stim/latef.jpg,EF,2,4,0,30,30,53,,,,,,,,,,4,1,0.816341453072,,,,,,PLC_L_D1S2,P12,60.0161878229,01,B,2015_Jan_30_1636,X,
stim/posf.jpg,stim/negf.jpg,stim/3.jpg,stim/2.jpg,stim/latef.jpg,EF,2,4,0,31,31,51,,,,,,,,,,4,1,0.599767159645,,,,,,PLC_L_D1S2,P12,60.0161878229,01,B,2015_Jan_30_1636,X,
stim/posf.jpg,stim/negf.jpg,stim/6.jpg,stim/1.jpg,stim/latef.jpg,AB,1,2,0,32,32,2,,,,,,,,,,2,1,0.866407611973,,,,,,PLC_L_D1S2,P12,60.0161878229,01,B,2015_Jan_30_1636,X,
stim/posf.jpg,stim/negf.jpg,stim/1.jpg,stim/6.jpg,stim/latef.jpg,AB,2,4,0,33,33,16,,,,,,,,,,4,1,0.799727980992,,,,,,PLC_L_D1S2,P12,60.0161878229,01,B,2015_Jan_30_1636,X,
stim/posf.jpg,stim/negf.jpg,stim/3.jpg,stim/2.jpg,stim/latef.jpg,EF,2,4,0,34,34,57,,,,,,,,,,4,1,0.783080373832,,,,,,PLC_L_D1S2,P12,60.0161878229,01,B,2015_Jan_30_1636,X,
stim/posf.jpg,stim/negf.jpg,stim/6.jpg,stim/1.jpg,stim/latef.jpg,AB,1,2,0,35,35,5,,,,,,,,,,2,1,1.01636498974,,,,,,PLC_L_D1S2,P12,60.0161878229,01,B,2015_Jan_30_1636,X,
stim/posf.jpg,stim/negf.jpg,stim/4.jpg,stim/5.jpg,stim/latef.jpg,CD,2,4,0,36,36,31,,,,,,,,,,4,1,0.633093564711,,,,,,PLC_L_D1S2,P12,60.0161878229,01,B,2015_Jan_30_1636,X,
stim/posf.jpg,stim/negf.jpg,stim/1.jpg,stim/6.jpg,stim/latef.jpg,AB,2,4,0,37,37,12,,,,,,,,,,2,0,0.949665957398,,,,,,PLC_L_D1S2,P12,60.0161878229,01,B,2015_Jan_30_1636,X,
stim/posf.jpg,stim/negf.jpg,stim/4.jpg,stim/5.jpg,stim/latef.jpg,CD,2,4,0,38,38,36,,,,,,,,,,4,1,0.516444228238,,,,,,PLC_L_D1S2,P12,60.0161878229,01,B,2015_Jan_30_1636,X,
stim/posf.jpg,stim/negf.jpg,stim/6.jpg,stim/1.jpg,stim/latef.jpg,AB,1,2,0,39,39,4,,,,,,,,,,2,1,0.74976718972,,,,,,PLC_L_D1S2,P12,60.0161878229,01,B,2015_Jan_30_1636,X,
stim/posf.jpg,stim/negf.jpg,stim/6.jpg,stim/1.jpg,stim/latef.jpg,AB,1,2,0,40,40,3,,,,,,,,,,2,1,0.716421509613,,,,,,PLC_L_D1S2,P12,60.0161878229,01,B,2015_Jan_30_1636,X,
stim/posf.jpg,stim/negf.jpg,stim/2.jpg,stim/3.jpg,stim/latef.jpg,EF,1,2,0,41,41,46,,,,,,,,,,2,1,0.733080620446,,,,,,PLC_L_D1S2,P12,60.0161878229,01,B,2015_Jan_30_1636,X,
stim/posf.jpg,stim/negf.jpg,stim/2.jpg,stim/3.jpg,stim/latef.jpg,EF,1,2,0,42,42,44,,,,,,,,,,2,1,0.566485551235,,,,,,PLC_L_D1S2,P12,60.0161878229,01,B,2015_Jan_30_1636,X,
stim/posf.jpg,stim/negf.jpg,stim/5.jpg,stim/4.jpg,stim/latef.jpg,CD,1,2,0,43,43,23,,,,,,,,,,2,1,0.649781415177,,,,,,PLC_L_D1S2,P12,60.0161878229,01,B,2015_Jan_30_1636,X,
stim/posf.jpg,stim/negf.jpg,stim/3.jpg,stim/2.jpg,stim/latef.jpg,EF,2,4,0,44,44,55,,,,,,,,,,4,1,0.716446598146,,,,,,PLC_L_D1S2,P12,60.0161878229,01,B,2015_Jan_30_1636,X,
stim/posf.jpg,stim/negf.jpg,stim/1.jpg,stim/6.jpg,stim/latef.jpg,AB,2,4,0,45,45,17,,,,,,,,,,4,1,0.983014939738,,,,,,PLC_L_D1S2,P12,60.0161878229,01,B,2015_Jan_30_1636,X,
stim/negf.jpg,stim/posf.jpg,stim/4.jpg,stim/5.jpg,stim/latef.jpg,CD,2,4,0,46,46,39,,,,,,,,,,4,1,0.616437563627,,,,,,PLC_L_D1S2,P12,60.0161878229,01,B,2015_Jan_30_1636,X,
stim/negf.jpg,stim/posf.jpg,stim/2.jpg,stim/3.jpg,stim/latef.jpg,EF,1,2,0,47,47,48,,,,,,,,,,2,1,0.883039441807,,,,,,PLC_L_D1S2,P12,60.0161878229,01,B,2015_Jan_30_1636,X,
stim/negf.jpg,stim/posf.jpg,stim/2.jpg,stim/3.jpg,stim/latef.jpg,EF,1,2,0,48,48,49,,,,,,,,,,2,1,0.599819938196,,,,,,PLC_L_D1S2,P12,60.0161878229,01,B,2015_Jan_30_1636,X,
stim/posf.jpg,stim/negf.jpg,stim/1.jpg,stim/6.jpg,stim/latef.jpg,AB,2,4,0,49,49,13,,,,,,,,,,4,1,0.899695815822,,,,,,PLC_L_D1S2,P12,60.0161878229,01,B,2015_Jan_30_1636,X,
stim/posf.jpg,stim/negf.jpg,stim/5.jpg,stim/4.jpg,stim/latef.jpg,CD,1,2,0,50,50,20,,,,,,,,,,2,1,0.649784786579,,,,,,PLC_L_D1S2,P12,60.0161878229,01,B,2015_Jan_30_1636,X,
stim/posf.jpg,stim/negf.jpg,stim/6.jpg,stim/1.jpg,stim/latef.jpg,AB,1,2,0,51,51,8,,,,,,,,,,2,1,0.73309948647,,,,,,PLC_L_D1S2,P12,60.0161878229,01,B,2015_Jan_30_1636,X,
stim/posf.jpg,stim/negf.jpg,stim/3.jpg,stim/2.jpg,stim/latef.jpg,EF,2,4,0,52,52,50,,,,,,,,,,4,1,0.649720191577,,,,,,PLC_L_D1S2,P12,60.0161878229,01,B,2015_Jan_30_1636,X,
stim/negf.jpg,stim/posf.jpg,stim/3.jpg,stim/2.jpg,stim/latef.jpg,EF,2,4,0,53,53,59,,,,,,,,,,4,1,0.883015454019,,,,,,PLC_L_D1S2,P12,60.0161878229,01,B,2015_Jan_30_1636,X,
stim/posf.jpg,stim/negf.jpg,stim/3.jpg,stim/2.jpg,stim/latef.jpg,EF,2,4,0,54,54,56,,,,,,,,,,4,1,0.616501250366,,,,,,PLC_L_D1S2,P12,60.0161878229,01,B,2015_Jan_30_1636,X,
stim/posf.jpg,stim/negf.jpg,stim/4.jpg,stim/5.jpg,stim/latef.jpg,CD,2,4,0,55,55,30,,,,,,,,,,4,1,0.599823444936,,,,,,PLC_L_D1S2,P12,60.0161878229,01,B,2015_Jan_30_1636,X,
stim/posf.jpg,stim/negf.jpg,stim/5.jpg,stim/4.jpg,stim/latef.jpg,CD,1,2,0,56,56,27,,,,,,,,,,2,1,0.633116087849,,,,,,PLC_L_D1S2,P12,60.0161878229,01,B,2015_Jan_30_1636,X,
stim/negf.jpg,stim/posf.jpg,stim/3.jpg,stim/2.jpg,stim/latef.jpg,EF,2,4,0,57,57,58,,,,,,,,,,4,1,0.633122587047,,,,,,PLC_L_D1S2,P12,60.0161878229,01,B,2015_Jan_30_1636,X,
stim/posf.jpg,stim/negf.jpg,stim/6.jpg,stim/1.jpg,stim/latef.jpg,AB,1,2,0,58,58,6,,,,,,,,,,4,0,1.08299479854,,,,,,PLC_L_D1S2,P12,60.0161878229,01,B,2015_Jan_30_1636,X,
stim/posf.jpg,stim/negf.jpg,stim/2.jpg,stim/3.jpg,stim/latef.jpg,EF,1,2,0,59,59,45,,,,,,,,,,2,1,0.699774007715,,,,,,PLC_L_D1S2,P12,60.0161878229,01,B,2015_Jan_30_1636,X,
,,,,,,,,,,,,,,,,,,,,,,,,0.9984375,1.0,1,0,0,PLC_L_D1S2,P12,60.0161878229,01,B,2015_Jan_30_1636,X,
stim/negf.jpg,stim/posf.jpg,stim/4.jpg,stim/5.jpg,stim/latef.jpg,CD,2,4,,,,,0,0,0,38,,,,,,4,1,0.816323224637,,,,,,PLC_L_D1S2,P12,60.0161878229,01,B,2015_Jan_30_1636,X,
stim/posf.jpg,stim/negf.jpg,stim/6.jpg,stim/1.jpg,stim/latef.jpg,AB,1,2,,,,,0,1,1,1,,,,,,2,1,0.883020061505,,,,,,PLC_L_D1S2,P12,60.0161878229,01,B,2015_Jan_30_1636,X,
stim/posf.jpg,stim/negf.jpg,stim/4.jpg,stim/5.jpg,stim/latef.jpg,CD,2,4,,,,,0,2,2,31,,,,,,4,1,0.649792061713,,,,,,PLC_L_D1S2,P12,60.0161878229,01,B,2015_Jan_30_1636,X,
stim/posf.jpg,stim/negf.jpg,stim/6.jpg,stim/1.jpg,stim/latef.jpg,AB,1,2,,,,,0,3,3,8,,,,,,2,1,0.666440808716,,,,,,PLC_L_D1S2,P12,60.0161878229,01,B,2015_Jan_30_1636,X,
stim/posf.jpg,stim/negf.jpg,stim/2.jpg,stim/3.jpg,stim/latef.jpg,EF,1,2,,,,,0,4,4,44,,,,,,2,1,0.649769448351,,,,,,PLC_L_D1S2,P12,60.0161878229,01,B,2015_Jan_30_1636,X,
stim/posf.jpg,stim/negf.jpg,stim/4.jpg,stim/5.jpg,stim/latef.jpg,CD,2,4,,,,,0,5,5,36,,,,,,4,1,0.733110451802,,,,,,PLC_L_D1S2,P12,60.0161878229,01,B,2015_Jan_30_1636,X,
stim/negf.jpg,stim/posf.jpg,stim/6.jpg,stim/1.jpg,stim/latef.jpg,AB,1,2,,,,,0,6,6,9,,,,,,2,1,0.683114448762,,,,,,PLC_L_D1S2,P12,60.0161878229,01,B,2015_Jan_30_1636,X,
stim/posf.jpg,stim/negf.jpg,stim/1.jpg,stim/6.jpg,stim/latef.jpg,AB,2,4,,,,,0,7,7,16,,,,,,4,1,0.699757899563,,,,,,PLC_L_D1S2,P12,60.0161878229,01,B,2015_Jan_30_1636,X,
stim/negf.jpg,stim/posf.jpg,stim/5.jpg,stim/4.jpg,stim/latef.jpg,CD,1,2,,,,,0,8,8,29,,,,,,2,1,0.666447494379,,,,,,PLC_L_D1S2,P12,60.0161878229,01,B,2015_Jan_30_1636,X,
stim/posf.jpg,stim/negf.jpg,stim/3.jpg,stim/2.jpg,stim/latef.jpg,EF,2,4,,,,,0,9,9,52,,,,,,4,1,0.766418721663,,,,,,PLC_L_D1S2,P12,60.0161878229,01,B,2015_Jan_30_1636,X,
stim/posf.jpg,stim/negf.jpg,stim/5.jpg,stim/4.jpg,stim/latef.jpg,CD,1,2,,,,,0,10,10,22,,,,,,2,1,0.63311067135,,,,,,PLC_L_D1S2,P12,60.0161878229,01,B,2015_Jan_30_1636,X,
stim/posf.jpg,stim/negf.jpg,stim/5.jpg,stim/4.jpg,stim/latef.jpg,CD,1,2,,,,,0,11,11,21,,,,,,2,1,0.533148517681,,,,,,PLC_L_D1S2,P12,60.0161878229,01,B,2015_Jan_30_1636,X,
stim/negf.jpg,stim/posf.jpg,stim/3.jpg,stim/2.jpg,stim/latef.jpg,EF,2,4,,,,,0,12,12,58,,,,,,4,1,0.716432980204,,,,,,PLC_L_D1S2,P12,60.0161878229,01,B,2015_Jan_30_1636,X,
stim/posf.jpg,stim/negf.jpg,stim/4.jpg,stim/5.jpg,stim/latef.jpg,CD,2,4,,,,,0,13,13,34,,,,,,4,1,0.566491003827,,,,,,PLC_L_D1S2,P12,60.0161878229,01,B,2015_Jan_30_1636,X,
stim/posf.jpg,stim/negf.jpg,stim/2.jpg,stim/3.jpg,stim/latef.jpg,EF,1,2,,,,,0,14,14,43,,,,,,2,1,0.716411031497,,,,,,PLC_L_D1S2,P12,60.0161878229,01,B,2015_Jan_30_1636,X,
stim/posf.jpg,stim/negf.jpg,stim/2.jpg,stim/3.jpg,stim/latef.jpg,EF,1,2,,,,,0,15,15,47,,,,,,2,1,0.566467106264,,,,,,PLC_L_D1S2,P12,60.0161878229,01,B,2015_Jan_30_1636,X,
stim/negf.jpg,stim/posf.jpg,stim/2.jpg,stim/3.jpg,stim/latef.jpg,EF,1,2,,,,,0,16,16,48,,,,,,2,1,0.516466769423,,,,,,PLC_L_D1S2,P12,60.0161878229,01,B,2015_Jan_30_1636,X,
stim/posf.jpg,stim/negf.jpg,stim/1.jpg,stim/6.jpg,stim/latef.jpg,AB,2,4,,,,,0,17,17,10,,,,,,4,1,0.783052359004,,,,,,PLC_L_D1S2,P12,60.0161878229,01,B,2015_Jan_30_1636,X,
stim/posf.jpg,stim/negf.jpg,stim/2.jpg,stim/3.jpg,stim/latef.jpg,EF,1,2,,,,,0,18,18,40,,,,,,2,1,0.683111835249,,,,,,PLC_L_D1S2,P12,60.0161878229,01,B,2015_Jan_30_1636,X,
stim/posf.jpg,stim/negf.jpg,stim/6.jpg,stim/1.jpg,stim/latef.jpg,AB,1,2,,,,,0,19,19,7,,,,,,2,1,1.06632703514,,,,,,PLC_L_D1S2,P12,60.0161878229,01,B,2015_Jan_30_1636,X,
stim/posf.jpg,stim/negf.jpg,stim/2.jpg,stim/3.jpg,stim/latef.jpg,EF,1,2,,,,,0,20,20,46,,,,,,2,1,0.566494221848,,,,,,PLC_L_D1S2,P12,60.0161878229,01,B,2015_Jan_30_1636,X,
stim/posf.jpg,stim/negf.jpg,stim/2.jpg,stim/3.jpg,stim/latef.jpg,EF,1,2,,,,,0,21,21,42,,,,,,2,1,0.499842121488,,,,,,PLC_L_D1S2,P12,60.0161878229,01,B,2015_Jan_30_1636,X,
stim/negf.jpg,stim/posf.jpg,stim/5.jpg,stim/4.jpg,stim/latef.jpg,CD,1,2,,,,,0,22,22,28,,,,,,2,1,0.583105615748,,,,,,PLC_L_D1S2,P12,60.0161878229,01,B,2015_Jan_30_1636,X,
stim/posf.jpg,stim/negf.jpg,stim/4.jpg,stim/5.jpg,stim/latef.jpg,CD,2,4,,,,,0,23,23,32,,,,,,4,1,1.28290979165,,,,,,PLC_L_D1S2,P12,60.0161878229,01,B,2015_Jan_30_1636,X,
stim/posf.jpg,stim/negf.jpg,stim/1.jpg,stim/6.jpg,stim/latef.jpg,AB,2,4,,,,,0,24,24,15,,,,,,4,1,0.866389627145,,,,,,PLC_L_D1S2,P12,60.0161878229,01,B,2015_Jan_30_1636,X,
stim/negf.jpg,stim/posf.jpg,stim/4.jpg,stim/5.jpg,stim/latef.jpg,CD,2,4,,,,,0,25,25,39,,,,,,4,1,0.616453226667,,,,,,PLC_L_D1S2,P12,60.0161878229,01,B,2015_Jan_30_1636,X,
stim/posf.jpg,stim/negf.jpg,stim/3.jpg,stim/2.jpg,stim/latef.jpg,EF,2,4,,,,,0,26,26,57,,,,,,4,1,0.699766167172,,,,,,PLC_L_D1S2,P12,60.0161878229,01,B,2015_Jan_30_1636,X,
stim/posf.jpg,stim/negf.jpg,stim/4.jpg,stim/5.jpg,stim/latef.jpg,CD,2,4,,,,,0,27,27,30,,,,,,4,1,0.549833249373,,,,,,PLC_L_D1S2,P12,60.0161878229,01,B,2015_Jan_30_1636,X,
stim/posf.jpg,stim/negf.jpg,stim/3.jpg,stim/2.jpg,stim/latef.jpg,EF,2,4,,,,,0,28,28,53,,,,,,4,1,0.599745574846,,,,,,PLC_L_D1S2,P12,60.0161878229,01,B,2015_Jan_30_1636,X,
stim/posf.jpg,stim/negf.jpg,stim/1.jpg,stim/6.jpg,stim/latef.jpg,AB,2,4,,,,,0,29,29,17,,,,,,4,1,0.799718095353,,,,,,PLC_L_D1S2,P12,60.0161878229,01,B,2015_Jan_30_1636,X,
stim/posf.jpg,stim/negf.jpg,stim/3.jpg,stim/2.jpg,stim/latef.jpg,EF,2,4,,,,,0,30,30,55,,,,,,4,1,0.716416162284,,,,,,PLC_L_D1S2,P12,60.0161878229,01,B,2015_Jan_30_1636,X,
stim/posf.jpg,stim/negf.jpg,stim/4.jpg,stim/5.jpg,stim/latef.jpg,CD,2,4,,,,,0,31,31,35,,,,,,4,1,0.566476336267,,,,,,PLC_L_D1S2,P12,60.0161878229,01,B,2015_Jan_30_1636,X,
stim/posf.jpg,stim/negf.jpg,stim/3.jpg,stim/2.jpg,stim/latef.jpg,EF,2,4,,,,,0,32,32,56,,,,,,4,1,0.583123877264,,,,,,PLC_L_D1S2,P12,60.0161878229,01,B,2015_Jan_30_1636,X,
stim/posf.jpg,stim/negf.jpg,stim/3.jpg,stim/2.jpg,stim/latef.jpg,EF,2,4,,,,,0,33,33,51,,,,,,4,1,0.533145221465,,,,,,PLC_L_D1S2,P12,60.0161878229,01,B,2015_Jan_30_1636,X,
stim/posf.jpg,stim/negf.jpg,stim/5.jpg,stim/4.jpg,stim/latef.jpg,CD,1,2,,,,,0,34,34,24,,,,,,2,1,0.59980343005,,,,,,PLC_L_D1S2,P12,60.0161878229,01,B,2015_Jan_30_1636,X,
stim/posf.jpg,stim/negf.jpg,stim/6.jpg,stim/1.jpg,stim/latef.jpg,AB,1,2,,,,,0,35,35,3,,,,,,2,1,0.683097053407,,,,,,PLC_L_D1S2,P12,60.0161878229,01,B,2015_Jan_30_1636,X,
stim/posf.jpg,stim/negf.jpg,stim/1.jpg,stim/6.jpg,stim/latef.jpg,AB,2,4,,,,,0,36,36,12,,,,,,4,1,0.733073910722,,,,,,PLC_L_D1S2,P12,60.0161878229,01,B,2015_Jan_30_1636,X,
stim/posf.jpg,stim/negf.jpg,stim/5.jpg,stim/4.jpg,stim/latef.jpg,CD,1,2,,,,,0,37,37,23,,,,,,2,1,0.666450676312,,,,,,PLC_L_D1S2,P12,60.0161878229,01,B,2015_Jan_30_1636,X,
stim/posf.jpg,stim/negf.jpg,stim/2.jpg,stim/3.jpg,stim/latef.jpg,EF,1,2,,,,,0,38,38,45,,,,,,2,1,0.733105233794,,,,,,PLC_L_D1S2,P12,60.0161878229,01,B,2015_Jan_30_1636,X,
stim/posf.jpg,stim/negf.jpg,stim/6.jpg,stim/1.jpg,stim/latef.jpg,AB,1,2,,,,,0,39,39,6,,,,,,2,1,0.649777962572,,,,,,PLC_L_D1S2,P12,60.0161878229,01,B,2015_Jan_30_1636,X,
stim/posf.jpg,stim/negf.jpg,stim/1.jpg,stim/6.jpg,stim/latef.jpg,AB,2,4,,,,,0,40,40,13,,,,,,4,1,0.666451022173,,,,,,PLC_L_D1S2,P12,60.0161878229,01,B,2015_Jan_30_1636,X,
stim/posf.jpg,stim/negf.jpg,stim/1.jpg,stim/6.jpg,stim/latef.jpg,AB,2,4,,,,,0,41,41,14,,,,,,4,1,0.866334845603,,,,,,PLC_L_D1S2,P12,60.0161878229,01,B,2015_Jan_30_1636,X,
stim/posf.jpg,stim/negf.jpg,stim/5.jpg,stim/4.jpg,stim/latef.jpg,CD,1,2,,,,,0,42,42,26,,,,,,2,1,0.599810290149,,,,,,PLC_L_D1S2,P12,60.0161878229,01,B,2015_Jan_30_1636,X,
stim/posf.jpg,stim/negf.jpg,stim/2.jpg,stim/3.jpg,stim/latef.jpg,EF,1,2,,,,,0,43,43,41,,,,,,2,1,0.766435259886,,,,,,PLC_L_D1S2,P12,60.0161878229,01,B,2015_Jan_30_1636,X,
stim/posf.jpg,stim/negf.jpg,stim/6.jpg,stim/1.jpg,stim/latef.jpg,AB,1,2,,,,,0,44,44,2,,,,,,2,1,0.683130686235,,,,,,PLC_L_D1S2,P12,60.0161878229,01,B,2015_Jan_30_1636,X,
stim/negf.jpg,stim/posf.jpg,stim/1.jpg,stim/6.jpg,stim/latef.jpg,AB,2,4,,,,,0,45,45,19,,,,,,4,1,0.63311543823,,,,,,PLC_L_D1S2,P12,60.0161878229,01,B,2015_Jan_30_1636,X,
stim/posf.jpg,stim/negf.jpg,stim/6.jpg,stim/1.jpg,stim/latef.jpg,AB,1,2,,,,,0,46,46,4,,,,,,2,1,0.549805414998,,,,,,PLC_L_D1S2,P12,60.0161878229,01,B,2015_Jan_30_1636,X,
stim/posf.jpg,stim/negf.jpg,stim/1.jpg,stim/6.jpg,stim/latef.jpg,AB,2,4,,,,,0,47,47,11,,,,,,4,1,0.633101886451,,,,,,PLC_L_D1S2,P12,60.0161878229,01,B,2015_Jan_30_1636,X,
stim/posf.jpg,stim/negf.jpg,stim/5.jpg,stim/4.jpg,stim/latef.jpg,CD,1,2,,,,,0,48,48,27,,,,,,2,1,0.799654733422,,,,,,PLC_L_D1S2,P12,60.0161878229,01,B,2015_Jan_30_1636,X,
stim/negf.jpg,stim/posf.jpg,stim/3.jpg,stim/2.jpg,stim/latef.jpg,EF,2,4,,,,,0,49,49,59,,,,,,4,1,0.899635061391,,,,,,PLC_L_D1S2,P12,60.0161878229,01,B,2015_Jan_30_1636,X,
stim/posf.jpg,stim/negf.jpg,stim/5.jpg,stim/4.jpg,stim/latef.jpg,CD,1,2,,,,,0,50,50,25,,,,,,2,1,0.499824825376,,,,,,PLC_L_D1S2,P12,60.0161878229,01,B,2015_Jan_30_1636,X,
stim/posf.jpg,stim/negf.jpg,stim/1.jpg,stim/6.jpg,stim/latef.jpg,AB,2,4,,,,,0,51,51,18,,,,,,4,1,0.816401073676,,,,,,PLC_L_D1S2,P12,60.0161878229,01,B,2015_Jan_30_1636,X,
stim/posf.jpg,stim/negf.jpg,stim/5.jpg,stim/4.jpg,stim/latef.jpg,CD,1,2,,,,,0,52,52,20,,,,,,2,1,0.583147958287,,,,,,PLC_L_D1S2,P12,60.0161878229,01,B,2015_Jan_30_1636,X,
stim/posf.jpg,stim/negf.jpg,stim/3.jpg,stim/2.jpg,stim/latef.jpg,EF,2,4,,,,,0,53,53,50,,,,,,4,1,0.59983799821,,,,,,PLC_L_D1S2,P12,60.0161878229,01,B,2015_Jan_30_1636,X,
stim/negf.jpg,stim/posf.jpg,stim/2.jpg,stim/3.jpg,stim/latef.jpg,EF,1,2,,,,,0,54,54,49,,,,,,2,1,0.549820356237,,,,,,PLC_L_D1S2,P12,60.0161878229,01,B,2015_Jan_30_1636,X,
stim/posf.jpg,stim/negf.jpg,stim/6.jpg,stim/1.jpg,stim/latef.jpg,AB,1,2,,,,,0,55,55,5,,,,,,2,1,0.633130902774,,,,,,PLC_L_D1S2,P12,60.0161878229,01,B,2015_Jan_30_1636,X,
stim/posf.jpg,stim/negf.jpg,stim/4.jpg,stim/5.jpg,stim/latef.jpg,CD,2,4,,,,,0,56,56,37,,,,,,4,1,0.88303727942,,,,,,PLC_L_D1S2,P12,60.0161878229,01,B,2015_Jan_30_1636,X,
stim/posf.jpg,stim/negf.jpg,stim/4.jpg,stim/5.jpg,stim/latef.jpg,CD,2,4,,,,,0,57,57,33,,,,,,4,1,0.849752528176,,,,,,PLC_L_D1S2,P12,60.0161878229,01,B,2015_Jan_30_1636,X,
stim/posf.jpg,stim/negf.jpg,stim/3.jpg,stim/2.jpg,stim/latef.jpg,EF,2,4,,,,,0,58,58,54,,,,,,4,1,0.699751481568,,,,,,PLC_L_D1S2,P12,60.0161878229,01,B,2015_Jan_30_1636,X,
stim/posf.jpg,stim/negf.jpg,stim/6.jpg,stim/1.jpg,stim/latef.jpg,AB,1,2,,,,,0,59,59,0,,,,,,2,1,0.866411091647,,,,,,PLC_L_D1S2,P12,60.0161878229,01,B,2015_Jan_30_1636,X,
