fb_corr,fb_incorr,symbol2,symbol1,fb_late,pair,position,correct,block_01.thisRepN,block_01.thisTrialN,block_01.thisN,block_01.thisIndex,block_02.thisRepN,block_02.thisTrialN,block_02.thisN,block_02.thisIndex,mouse.x,mouse.y,mouse.leftButton,mouse.midButton,mouse.rightButton,buttonBox_2.keys,buttonBox_2.corr,buttonBox_2.rt,mouse_2.x,mouse_2.y,mouse_2.leftButton,mouse_2.midButton,mouse_2.rightButton,expName,Participant,frameRate,SessionNumber,Version,date,Group,
,,,,,,,,,,,,,,,,0.9984375,1.0,1,0,0,,,,,,,,,PLC_L_D1S2,P19,60.0168876325,01,A,2015_Feb_20_1613,X,
stim/posf.jpg,stim/negf.jpg,stim/6.jpg,stim/3.jpg,stim/latef.jpg,EF,2,4,0,0,0,56,,,,,,,,,,4,1,1.56618911737,,,,,,PLC_L_D1S2,P19,60.0168876325,01,A,2015_Feb_20_1613,X,
stim/negf.jpg,stim/posf.jpg,stim/3.jpg,stim/6.jpg,stim/latef.jpg,EF,1,2,0,1,1,49,,,,,,,,,,2,1,0.783112668326,,,,,,PLC_L_D1S2,P19,60.0168876325,01,A,2015_Feb_20_1613,X,
stim/posf.jpg,stim/negf.jpg,stim/4.jpg,stim/1.jpg,stim/latef.jpg,CD,1,2,0,2,2,21,,,,,,,,,,4,0,1.23289967745,,,,,,PLC_L_D1S2,P19,60.0168876325,01,A,2015_Feb_20_1613,X,
stim/posf.jpg,stim/negf.jpg,stim/5.jpg,stim/2.jpg,stim/latef.jpg,AB,1,2,0,3,3,2,,,,,,,,,,2,1,1.41619869625,,,,,,PLC_L_D1S2,P19,60.0168876325,01,A,2015_Feb_20_1613,X,
stim/posf.jpg,stim/negf.jpg,stim/1.jpg,stim/4.jpg,stim/latef.jpg,CD,2,4,0,4,4,33,,,,,,,,,,2,0,1.24962833964,,,,,,PLC_L_D1S2,P19,60.0168876325,01,A,2015_Feb_20_1613,X,
stim/posf.jpg,stim/negf.jpg,stim/6.jpg,stim/3.jpg,stim/latef.jpg,EF,2,4,0,5,5,57,,,,,,,,,,4,1,1.03300668115,,,,,,PLC_L_D1S2,P19,60.0168876325,01,A,2015_Feb_20_1613,X,
stim/posf.jpg,stim/negf.jpg,stim/3.jpg,stim/6.jpg,stim/latef.jpg,EF,1,2,0,6,6,47,,,,,,,,,,2,1,0.7997102909,,,,,,PLC_L_D1S2,P19,60.0168876325,01,A,2015_Feb_20_1613,X,
stim/posf.jpg,stim/negf.jpg,stim/5.jpg,stim/2.jpg,stim/latef.jpg,AB,1,2,0,7,7,7,,,,,,,,,,2,1,1.09965075751,,,,,,PLC_L_D1S2,P19,60.0168876325,01,A,2015_Feb_20_1613,X,
stim/negf.jpg,stim/posf.jpg,stim/5.jpg,stim/2.jpg,stim/latef.jpg,AB,1,2,0,8,8,9,,,,,,,,,,2,1,0.666488014376,,,,,,PLC_L_D1S2,P19,60.0168876325,01,A,2015_Feb_20_1613,X,
stim/posf.jpg,stim/negf.jpg,stim/6.jpg,stim/3.jpg,stim/latef.jpg,EF,2,4,0,9,9,51,,,,,,,,,,4,1,1.03296445591,,,,,,PLC_L_D1S2,P19,60.0168876325,01,A,2015_Feb_20_1613,X,
stim/posf.jpg,stim/negf.jpg,stim/4.jpg,stim/1.jpg,stim/latef.jpg,CD,1,2,0,10,10,27,,,,,,,,,,2,1,1.16628148059,,,,,,PLC_L_D1S2,P19,60.0168876325,01,A,2015_Feb_20_1613,X,
stim/posf.jpg,stim/negf.jpg,stim/2.jpg,stim/5.jpg,stim/latef.jpg,AB,2,4,0,11,11,11,,,,,,,,,,4,1,0.833060864204,,,,,,PLC_L_D1S2,P19,60.0168876325,01,A,2015_Feb_20_1613,X,
stim/negf.jpg,stim/posf.jpg,stim/3.jpg,stim/6.jpg,stim/latef.jpg,EF,1,2,0,12,12,48,,,,,,,,,,2,1,0.71644755453,,,,,,PLC_L_D1S2,P19,60.0168876325,01,A,2015_Feb_20_1613,X,
stim/posf.jpg,stim/negf.jpg,stim/2.jpg,stim/5.jpg,stim/latef.jpg,AB,2,4,0,13,13,15,,,,,,,,,,4,1,0.866387576033,,,,,,PLC_L_D1S2,P19,60.0168876325,01,A,2015_Feb_20_1613,X,
stim/posf.jpg,stim/negf.jpg,stim/1.jpg,stim/4.jpg,stim/latef.jpg,CD,2,4,0,14,14,31,,,,,,,,,,4,1,1.11631922767,,,,,,PLC_L_D1S2,P19,60.0168876325,01,A,2015_Feb_20_1613,X,
stim/posf.jpg,stim/negf.jpg,stim/6.jpg,stim/3.jpg,stim/latef.jpg,EF,2,4,0,15,15,54,,,,,,,,,,4,1,1.36621685551,,,,,,PLC_L_D1S2,P19,60.0168876325,01,A,2015_Feb_20_1613,X,
stim/posf.jpg,stim/negf.jpg,stim/4.jpg,stim/1.jpg,stim/latef.jpg,CD,1,2,0,16,16,23,,,,,,,,,,2,1,0.91630737814,,,,,,PLC_L_D1S2,P19,60.0168876325,01,A,2015_Feb_20_1613,X,
stim/posf.jpg,stim/negf.jpg,stim/6.jpg,stim/3.jpg,stim/latef.jpg,EF,2,4,0,17,17,55,,,,,,,,,,4,1,0.833071261119,,,,,,PLC_L_D1S2,P19,60.0168876325,01,A,2015_Feb_20_1613,X,
stim/posf.jpg,stim/negf.jpg,stim/3.jpg,stim/6.jpg,stim/latef.jpg,EF,1,2,0,18,18,43,,,,,,,,,,2,1,0.599796825588,,,,,,PLC_L_D1S2,P19,60.0168876325,01,A,2015_Feb_20_1613,X,
stim/posf.jpg,stim/negf.jpg,stim/5.jpg,stim/2.jpg,stim/latef.jpg,AB,1,2,0,19,19,5,,,,,,,,,,2,1,0.699749595868,,,,,,PLC_L_D1S2,P19,60.0168876325,01,A,2015_Feb_20_1613,X,
stim/posf.jpg,stim/negf.jpg,stim/4.jpg,stim/1.jpg,stim/latef.jpg,CD,1,2,0,20,20,24,,,,,,,,,,2,1,1.13298399561,,,,,,PLC_L_D1S2,P19,60.0168876325,01,A,2015_Feb_20_1613,X,
stim/posf.jpg,stim/negf.jpg,stim/1.jpg,stim/4.jpg,stim/latef.jpg,CD,2,4,0,21,21,37,,,,,,,,,,4,1,0.949690300074,,,,,,PLC_L_D1S2,P19,60.0168876325,01,A,2015_Feb_20_1613,X,
stim/posf.jpg,stim/negf.jpg,stim/1.jpg,stim/4.jpg,stim/latef.jpg,CD,2,4,0,22,22,35,,,,,,,,,,4,1,0.849710573604,,,,,,PLC_L_D1S2,P19,60.0168876325,01,A,2015_Feb_20_1613,X,
stim/posf.jpg,stim/negf.jpg,stim/1.jpg,stim/4.jpg,stim/latef.jpg,CD,2,4,0,23,23,34,,,,,,,,,,4,1,0.799652649229,,,,,,PLC_L_D1S2,P19,60.0168876325,01,A,2015_Feb_20_1613,X,
stim/posf.jpg,stim/negf.jpg,stim/2.jpg,stim/5.jpg,stim/latef.jpg,AB,2,4,0,24,24,14,,,,,,,,,,4,1,0.799709939023,,,,,,PLC_L_D1S2,P19,60.0168876325,01,A,2015_Feb_20_1613,X,
stim/posf.jpg,stim/negf.jpg,stim/6.jpg,stim/3.jpg,stim/latef.jpg,EF,2,4,0,25,25,50,,,,,,,,,,4,1,0.716459527373,,,,,,PLC_L_D1S2,P19,60.0168876325,01,A,2015_Feb_20_1613,X,
stim/posf.jpg,stim/negf.jpg,stim/5.jpg,stim/2.jpg,stim/latef.jpg,AB,1,2,0,26,26,6,,,,,,,,,,2,1,0.733093835385,,,,,,PLC_L_D1S2,P19,60.0168876325,01,A,2015_Feb_20_1613,X,
stim/posf.jpg,stim/negf.jpg,stim/3.jpg,stim/6.jpg,stim/latef.jpg,EF,1,2,0,27,27,41,,,,,,,,,,2,1,0.616460844655,,,,,,PLC_L_D1S2,P19,60.0168876325,01,A,2015_Feb_20_1613,X,
stim/negf.jpg,stim/posf.jpg,stim/4.jpg,stim/1.jpg,stim/latef.jpg,CD,1,2,0,28,28,29,,,,,,,,,,2,1,1.04964406583,,,,,,PLC_L_D1S2,P19,60.0168876325,01,A,2015_Feb_20_1613,X,
stim/posf.jpg,stim/negf.jpg,stim/3.jpg,stim/6.jpg,stim/latef.jpg,EF,1,2,0,29,29,46,,,,,,,,,,2,1,0.666478946775,,,,,,PLC_L_D1S2,P19,60.0168876325,01,A,2015_Feb_20_1613,X,
stim/negf.jpg,stim/posf.jpg,stim/4.jpg,stim/1.jpg,stim/latef.jpg,CD,1,2,0,30,30,28,,,,,,,,,,2,1,0.683031459914,,,,,,PLC_L_D1S2,P19,60.0168876325,01,A,2015_Feb_20_1613,X,
stim/posf.jpg,stim/negf.jpg,stim/2.jpg,stim/5.jpg,stim/latef.jpg,AB,2,4,0,31,31,10,,,,,,,,,,4,1,0.78305841911,,,,,,PLC_L_D1S2,P19,60.0168876325,01,A,2015_Feb_20_1613,X,
stim/negf.jpg,stim/posf.jpg,stim/2.jpg,stim/5.jpg,stim/latef.jpg,AB,2,4,0,32,32,19,,,,,,,,,,4,1,0.733120144962,,,,,,PLC_L_D1S2,P19,60.0168876325,01,A,2015_Feb_20_1613,X,
stim/posf.jpg,stim/negf.jpg,stim/5.jpg,stim/2.jpg,stim/latef.jpg,AB,1,2,0,33,33,4,,,,,,,,,,2,1,0.51648475425,,,,,,PLC_L_D1S2,P19,60.0168876325,01,A,2015_Feb_20_1613,X,
stim/posf.jpg,stim/negf.jpg,stim/5.jpg,stim/2.jpg,stim/latef.jpg,AB,1,2,0,34,34,0,,,,,,,,,,2,1,0.549817823926,,,,,,PLC_L_D1S2,P19,60.0168876325,01,A,2015_Feb_20_1613,X,
stim/negf.jpg,stim/posf.jpg,stim/6.jpg,stim/3.jpg,stim/latef.jpg,EF,2,4,0,35,35,59,,,,,,,,,,4,1,0.733080584357,,,,,,PLC_L_D1S2,P19,60.0168876325,01,A,2015_Feb_20_1613,X,
stim/posf.jpg,stim/negf.jpg,stim/5.jpg,stim/2.jpg,stim/latef.jpg,AB,1,2,0,36,36,1,,,,,,,,,,2,1,0.549825465974,,,,,,PLC_L_D1S2,P19,60.0168876325,01,A,2015_Feb_20_1613,X,
stim/posf.jpg,stim/negf.jpg,stim/5.jpg,stim/2.jpg,stim/latef.jpg,AB,1,2,0,37,37,8,,,,,,,,,,2,1,0.433190303833,,,,,,PLC_L_D1S2,P19,60.0168876325,01,A,2015_Feb_20_1613,X,
stim/posf.jpg,stim/negf.jpg,stim/1.jpg,stim/4.jpg,stim/latef.jpg,CD,2,4,0,38,38,30,,,,,,,,,,4,1,0.799735752363,,,,,,PLC_L_D1S2,P19,60.0168876325,01,A,2015_Feb_20_1613,X,
stim/posf.jpg,stim/negf.jpg,stim/2.jpg,stim/5.jpg,stim/latef.jpg,AB,2,4,0,39,39,13,,,,,,,,,,4,1,0.733122223141,,,,,,PLC_L_D1S2,P19,60.0168876325,01,A,2015_Feb_20_1613,X,
stim/posf.jpg,stim/negf.jpg,stim/2.jpg,stim/5.jpg,stim/latef.jpg,AB,2,4,0,40,40,12,,,,,,,,,,4,1,0.699754970263,,,,,,PLC_L_D1S2,P19,60.0168876325,01,A,2015_Feb_20_1613,X,
stim/negf.jpg,stim/posf.jpg,stim/6.jpg,stim/3.jpg,stim/latef.jpg,EF,2,4,0,41,41,58,,,,,,,,,,4,1,0.649776515967,,,,,,PLC_L_D1S2,P19,60.0168876325,01,A,2015_Feb_20_1613,X,
stim/posf.jpg,stim/negf.jpg,stim/1.jpg,stim/4.jpg,stim/latef.jpg,CD,2,4,0,42,42,36,,,,,,,,,,4,1,1.06631203074,,,,,,PLC_L_D1S2,P19,60.0168876325,01,A,2015_Feb_20_1613,X,
stim/posf.jpg,stim/negf.jpg,stim/2.jpg,stim/5.jpg,stim/latef.jpg,AB,2,4,0,43,43,17,,,,,,,,,,4,1,0.982985547477,,,,,,PLC_L_D1S2,P19,60.0168876325,01,A,2015_Feb_20_1613,X,
stim/negf.jpg,stim/posf.jpg,stim/1.jpg,stim/4.jpg,stim/latef.jpg,CD,2,4,0,44,44,38,,,,,,,,,,4,1,0.749721406606,,,,,,PLC_L_D1S2,P19,60.0168876325,01,A,2015_Feb_20_1613,X,
stim/posf.jpg,stim/negf.jpg,stim/6.jpg,stim/3.jpg,stim/latef.jpg,EF,2,4,0,45,45,52,,,,,,,,,,4,1,0.566453455237,,,,,,PLC_L_D1S2,P19,60.0168876325,01,A,2015_Feb_20_1613,X,
stim/posf.jpg,stim/negf.jpg,stim/6.jpg,stim/3.jpg,stim/latef.jpg,EF,2,4,0,46,46,53,,,,,,,,,,4,1,0.549816657018,,,,,,PLC_L_D1S2,P19,60.0168876325,01,A,2015_Feb_20_1613,X,
stim/posf.jpg,stim/negf.jpg,stim/4.jpg,stim/1.jpg,stim/latef.jpg,CD,1,2,0,47,47,22,,,,,,,,,,2,1,0.899708357079,,,,,,PLC_L_D1S2,P19,60.0168876325,01,A,2015_Feb_20_1613,X,
stim/posf.jpg,stim/negf.jpg,stim/4.jpg,stim/1.jpg,stim/latef.jpg,CD,1,2,0,48,48,26,,,,,,,,,,2,1,1.16629905941,,,,,,PLC_L_D1S2,P19,60.0168876325,01,A,2015_Feb_20_1613,X,
stim/posf.jpg,stim/negf.jpg,stim/2.jpg,stim/5.jpg,stim/latef.jpg,AB,2,4,0,49,49,16,,,,,,,,,,4,1,0.766434438839,,,,,,PLC_L_D1S2,P19,60.0168876325,01,A,2015_Feb_20_1613,X,
stim/posf.jpg,stim/negf.jpg,stim/3.jpg,stim/6.jpg,stim/latef.jpg,EF,1,2,0,50,50,42,,,,,,,,,,2,1,0.599852987571,,,,,,PLC_L_D1S2,P19,60.0168876325,01,A,2015_Feb_20_1613,X,
stim/posf.jpg,stim/negf.jpg,stim/2.jpg,stim/5.jpg,stim/latef.jpg,AB,2,4,0,51,51,18,,,,,,,,,,4,1,0.766393954932,,,,,,PLC_L_D1S2,P19,60.0168876325,01,A,2015_Feb_20_1613,X,
stim/posf.jpg,stim/negf.jpg,stim/5.jpg,stim/2.jpg,stim/latef.jpg,AB,1,2,0,52,52,3,,,,,,,,,,2,1,0.766383152007,,,,,,PLC_L_D1S2,P19,60.0168876325,01,A,2015_Feb_20_1613,X,
stim/posf.jpg,stim/negf.jpg,stim/3.jpg,stim/6.jpg,stim/latef.jpg,EF,1,2,0,53,53,44,,,,,,,,,,2,1,0.583153254486,,,,,,PLC_L_D1S2,P19,60.0168876325,01,A,2015_Feb_20_1613,X,
stim/posf.jpg,stim/negf.jpg,stim/4.jpg,stim/1.jpg,stim/latef.jpg,CD,1,2,0,54,54,20,,,,,,,,,,2,1,0.949672805467,,,,,,PLC_L_D1S2,P19,60.0168876325,01,A,2015_Feb_20_1613,X,
stim/posf.jpg,stim/negf.jpg,stim/3.jpg,stim/6.jpg,stim/latef.jpg,EF,1,2,0,55,55,45,,,,,,,,,,2,1,0.616470444583,,,,,,PLC_L_D1S2,P19,60.0168876325,01,A,2015_Feb_20_1613,X,
stim/negf.jpg,stim/posf.jpg,stim/1.jpg,stim/4.jpg,stim/latef.jpg,CD,2,4,0,56,56,39,,,,,,,,,,4,1,1.21627404907,,,,,,PLC_L_D1S2,P19,60.0168876325,01,A,2015_Feb_20_1613,X,
stim/posf.jpg,stim/negf.jpg,stim/1.jpg,stim/4.jpg,stim/latef.jpg,CD,2,4,0,57,57,32,,,,,,,,,,4,1,0.883059961955,,,,,,PLC_L_D1S2,P19,60.0168876325,01,A,2015_Feb_20_1613,X,
stim/posf.jpg,stim/negf.jpg,stim/3.jpg,stim/6.jpg,stim/latef.jpg,EF,1,2,0,58,58,40,,,,,,,,,,2,1,0.583091227885,,,,,,PLC_L_D1S2,P19,60.0168876325,01,A,2015_Feb_20_1613,X,
stim/posf.jpg,stim/negf.jpg,stim/4.jpg,stim/1.jpg,stim/latef.jpg,CD,1,2,0,59,59,25,,,,,,,,,,2,1,0.633116160028,,,,,,PLC_L_D1S2,P19,60.0168876325,01,A,2015_Feb_20_1613,X,
,,,,,,,,,,,,,,,,,,,,,,,,0.9984375,1.0,1,0,0,PLC_L_D1S2,P19,60.0168876325,01,A,2015_Feb_20_1613,X,
stim/posf.jpg,stim/negf.jpg,stim/1.jpg,stim/4.jpg,stim/latef.jpg,CD,2,4,,,,,0,0,0,32,,,,,,4,1,0.949737238066,,,,,,PLC_L_D1S2,P19,60.0168876325,01,A,2015_Feb_20_1613,X,
stim/negf.jpg,stim/posf.jpg,stim/1.jpg,stim/4.jpg,stim/latef.jpg,CD,2,4,,,,,0,1,1,38,,,,,,4,1,0.749746257547,,,,,,PLC_L_D1S2,P19,60.0168876325,01,A,2015_Feb_20_1613,X,
stim/negf.jpg,stim/posf.jpg,stim/6.jpg,stim/3.jpg,stim/latef.jpg,EF,2,4,,,,,0,2,2,58,,,,,,4,1,0.583163919068,,,,,,PLC_L_D1S2,P19,60.0168876325,01,A,2015_Feb_20_1613,X,
stim/posf.jpg,stim/negf.jpg,stim/1.jpg,stim/4.jpg,stim/latef.jpg,CD,2,4,,,,,0,3,3,35,,,,,,4,1,0.749752398854,,,,,,PLC_L_D1S2,P19,60.0168876325,01,A,2015_Feb_20_1613,X,
stim/posf.jpg,stim/negf.jpg,stim/4.jpg,stim/1.jpg,stim/latef.jpg,CD,1,2,,,,,0,4,4,27,,,,,,2,1,0.783033823805,,,,,,PLC_L_D1S2,P19,60.0168876325,01,A,2015_Feb_20_1613,X,
stim/negf.jpg,stim/posf.jpg,stim/2.jpg,stim/5.jpg,stim/latef.jpg,AB,2,4,,,,,0,5,5,19,,,,,,4,1,0.733088491063,,,,,,PLC_L_D1S2,P19,60.0168876325,01,A,2015_Feb_20_1613,X,
stim/posf.jpg,stim/negf.jpg,stim/4.jpg,stim/1.jpg,stim/latef.jpg,CD,1,2,,,,,0,6,6,21,,,,,,2,1,1.01632729679,,,,,,PLC_L_D1S2,P19,60.0168876325,01,A,2015_Feb_20_1613,X,
stim/posf.jpg,stim/negf.jpg,stim/1.jpg,stim/4.jpg,stim/latef.jpg,CD,2,4,,,,,0,7,7,33,,,,,,4,1,0.883053351478,,,,,,PLC_L_D1S2,P19,60.0168876325,01,A,2015_Feb_20_1613,X,
stim/posf.jpg,stim/negf.jpg,stim/3.jpg,stim/6.jpg,stim/latef.jpg,EF,1,2,,,,,0,8,8,42,,,,,,2,1,0.599839709475,,,,,,PLC_L_D1S2,P19,60.0168876325,01,A,2015_Feb_20_1613,X,
stim/posf.jpg,stim/negf.jpg,stim/3.jpg,stim/6.jpg,stim/latef.jpg,EF,1,2,,,,,0,9,9,43,,,,,,2,1,0.599784512899,,,,,,PLC_L_D1S2,P19,60.0168876325,01,A,2015_Feb_20_1613,X,
stim/posf.jpg,stim/negf.jpg,stim/2.jpg,stim/5.jpg,stim/latef.jpg,AB,2,4,,,,,0,10,10,18,,,,,,4,1,0.683149822934,,,,,,PLC_L_D1S2,P19,60.0168876325,01,A,2015_Feb_20_1613,X,
stim/posf.jpg,stim/negf.jpg,stim/5.jpg,stim/2.jpg,stim/latef.jpg,AB,1,2,,,,,0,11,11,3,,,,,,2,1,0.833010142781,,,,,,PLC_L_D1S2,P19,60.0168876325,01,A,2015_Feb_20_1613,X,
stim/posf.jpg,stim/negf.jpg,stim/5.jpg,stim/2.jpg,stim/latef.jpg,AB,1,2,,,,,0,12,12,4,,,,,,2,1,0.499812043518,,,,,,PLC_L_D1S2,P19,60.0168876325,01,A,2015_Feb_20_1613,X,
stim/posf.jpg,stim/negf.jpg,stim/1.jpg,stim/4.jpg,stim/latef.jpg,CD,2,4,,,,,0,13,13,37,,,,,,4,1,0.816385873791,,,,,,PLC_L_D1S2,P19,60.0168876325,01,A,2015_Feb_20_1613,X,
stim/posf.jpg,stim/negf.jpg,stim/5.jpg,stim/2.jpg,stim/latef.jpg,AB,1,2,,,,,0,14,14,2,,,,,,2,1,0.616486847467,,,,,,PLC_L_D1S2,P19,60.0168876325,01,A,2015_Feb_20_1613,X,
stim/posf.jpg,stim/negf.jpg,stim/1.jpg,stim/4.jpg,stim/latef.jpg,CD,2,4,,,,,0,15,15,31,,,,,,4,1,0.649788016632,,,,,,PLC_L_D1S2,P19,60.0168876325,01,A,2015_Feb_20_1613,X,
stim/posf.jpg,stim/negf.jpg,stim/6.jpg,stim/3.jpg,stim/latef.jpg,EF,2,4,,,,,0,16,16,53,,,,,,4,1,0.666452817648,,,,,,PLC_L_D1S2,P19,60.0168876325,01,A,2015_Feb_20_1613,X,
stim/negf.jpg,stim/posf.jpg,stim/4.jpg,stim/1.jpg,stim/latef.jpg,CD,1,2,,,,,0,17,17,29,,,,,,2,1,0.799720711874,,,,,,PLC_L_D1S2,P19,60.0168876325,01,A,2015_Feb_20_1613,X,
stim/posf.jpg,stim/negf.jpg,stim/2.jpg,stim/5.jpg,stim/latef.jpg,AB,2,4,,,,,0,18,18,12,,,,,,4,1,0.549834861392,,,,,,PLC_L_D1S2,P19,60.0168876325,01,A,2015_Feb_20_1613,X,
stim/negf.jpg,stim/posf.jpg,stim/3.jpg,stim/6.jpg,stim/latef.jpg,EF,1,2,,,,,0,19,19,48,,,,,,2,1,0.549802873662,,,,,,PLC_L_D1S2,P19,60.0168876325,01,A,2015_Feb_20_1613,X,
stim/posf.jpg,stim/negf.jpg,stim/2.jpg,stim/5.jpg,stim/latef.jpg,AB,2,4,,,,,0,20,20,17,,,,,,4,1,0.699754404855,,,,,,PLC_L_D1S2,P19,60.0168876325,01,A,2015_Feb_20_1613,X,
stim/posf.jpg,stim/negf.jpg,stim/2.jpg,stim/5.jpg,stim/latef.jpg,AB,2,4,,,,,0,21,21,11,,,,,,4,1,0.466483476064,,,,,,PLC_L_D1S2,P19,60.0168876325,01,A,2015_Feb_20_1613,X,
stim/negf.jpg,stim/posf.jpg,stim/3.jpg,stim/6.jpg,stim/latef.jpg,EF,1,2,,,,,0,22,22,49,,,,,,2,1,0.566494504553,,,,,,PLC_L_D1S2,P19,60.0168876325,01,A,2015_Feb_20_1613,X,
stim/posf.jpg,stim/negf.jpg,stim/2.jpg,stim/5.jpg,stim/latef.jpg,AB,2,4,,,,,0,23,23,13,,,,,,4,1,0.699793508319,,,,,,PLC_L_D1S2,P19,60.0168876325,01,A,2015_Feb_20_1613,X,
stim/posf.jpg,stim/negf.jpg,stim/3.jpg,stim/6.jpg,stim/latef.jpg,EF,1,2,,,,,0,24,24,47,,,,,,2,1,0.549811857054,,,,,,PLC_L_D1S2,P19,60.0168876325,01,A,2015_Feb_20_1613,X,
stim/posf.jpg,stim/negf.jpg,stim/4.jpg,stim/1.jpg,stim/latef.jpg,CD,1,2,,,,,0,25,25,26,,,,,,2,1,0.783064785979,,,,,,PLC_L_D1S2,P19,60.0168876325,01,A,2015_Feb_20_1613,X,
stim/posf.jpg,stim/negf.jpg,stim/2.jpg,stim/5.jpg,stim/latef.jpg,AB,2,4,,,,,0,26,26,14,,,,,,4,1,0.749689554214,,,,,,PLC_L_D1S2,P19,60.0168876325,01,A,2015_Feb_20_1613,X,
stim/posf.jpg,stim/negf.jpg,stim/5.jpg,stim/2.jpg,stim/latef.jpg,AB,1,2,,,,,0,27,27,0,,,,,,2,1,0.548817001376,,,,,,PLC_L_D1S2,P19,60.0168876325,01,A,2015_Feb_20_1613,X,
stim/posf.jpg,stim/negf.jpg,stim/3.jpg,stim/6.jpg,stim/latef.jpg,EF,1,2,,,,,0,28,28,46,,,,,,2,1,0.799748931211,,,,,,PLC_L_D1S2,P19,60.0168876325,01,A,2015_Feb_20_1613,X,
stim/posf.jpg,stim/negf.jpg,stim/6.jpg,stim/3.jpg,stim/latef.jpg,EF,2,4,,,,,0,29,29,54,,,,,,4,1,0.649784615153,,,,,,PLC_L_D1S2,P19,60.0168876325,01,A,2015_Feb_20_1613,X,
stim/posf.jpg,stim/negf.jpg,stim/5.jpg,stim/2.jpg,stim/latef.jpg,AB,1,2,,,,,0,30,30,1,,,,,,2,1,0.666378670837,,,,,,PLC_L_D1S2,P19,60.0168876325,01,A,2015_Feb_20_1613,X,
stim/posf.jpg,stim/negf.jpg,stim/1.jpg,stim/4.jpg,stim/latef.jpg,CD,2,4,,,,,0,31,31,34,,,,,,4,1,0.73304838911,,,,,,PLC_L_D1S2,P19,60.0168876325,01,A,2015_Feb_20_1613,X,
stim/posf.jpg,stim/negf.jpg,stim/3.jpg,stim/6.jpg,stim/latef.jpg,EF,1,2,,,,,0,32,32,40,,,,,,2,1,0.516490218871,,,,,,PLC_L_D1S2,P19,60.0168876325,01,A,2015_Feb_20_1613,X,
stim/posf.jpg,stim/negf.jpg,stim/5.jpg,stim/2.jpg,stim/latef.jpg,AB,1,2,,,,,0,33,33,6,,,,,,2,1,0.683062551409,,,,,,PLC_L_D1S2,P19,60.0168876325,01,A,2015_Feb_20_1613,X,
stim/posf.jpg,stim/negf.jpg,stim/1.jpg,stim/4.jpg,stim/latef.jpg,CD,2,4,,,,,0,34,34,30,,,,,,4,1,0.79972415245,,,,,,PLC_L_D1S2,P19,60.0168876325,01,A,2015_Feb_20_1613,X,
stim/posf.jpg,stim/negf.jpg,stim/3.jpg,stim/6.jpg,stim/latef.jpg,EF,1,2,,,,,0,35,35,44,,,,,,2,1,0.533171522018,,,,,,PLC_L_D1S2,P19,60.0168876325,01,A,2015_Feb_20_1613,X,
stim/posf.jpg,stim/negf.jpg,stim/2.jpg,stim/5.jpg,stim/latef.jpg,AB,2,4,,,,,0,36,36,10,,,,,,4,1,0.699772365621,,,,,,PLC_L_D1S2,P19,60.0168876325,01,A,2015_Feb_20_1613,X,
stim/posf.jpg,stim/negf.jpg,stim/1.jpg,stim/4.jpg,stim/latef.jpg,CD,2,4,,,,,0,37,37,36,,,,,,4,1,0.799826425366,,,,,,PLC_L_D1S2,P19,60.0168876325,01,A,2015_Feb_20_1613,X,
stim/posf.jpg,stim/negf.jpg,stim/6.jpg,stim/3.jpg,stim/latef.jpg,EF,2,4,,,,,0,38,38,52,,,,,,4,1,0.549827174232,,,,,,PLC_L_D1S2,P19,60.0168876325,01,A,2015_Feb_20_1613,X,
stim/posf.jpg,stim/negf.jpg,stim/6.jpg,stim/3.jpg,stim/latef.jpg,EF,2,4,,,,,0,39,39,51,,,,,,4,1,0.566478354299,,,,,,PLC_L_D1S2,P19,60.0168876325,01,A,2015_Feb_20_1613,X,
stim/posf.jpg,stim/negf.jpg,stim/2.jpg,stim/5.jpg,stim/latef.jpg,AB,2,4,,,,,0,40,40,16,,,,,,4,1,0.899654841693,,,,,,PLC_L_D1S2,P19,60.0168876325,01,A,2015_Feb_20_1613,X,
stim/posf.jpg,stim/negf.jpg,stim/3.jpg,stim/6.jpg,stim/latef.jpg,EF,1,2,,,,,0,41,41,45,,,,,,2,1,0.616455969504,,,,,,PLC_L_D1S2,P19,60.0168876325,01,A,2015_Feb_20_1613,X,
stim/posf.jpg,stim/negf.jpg,stim/3.jpg,stim/6.jpg,stim/latef.jpg,EF,1,2,,,,,0,42,42,41,,,,,,2,1,0.499788308359,,,,,,PLC_L_D1S2,P19,60.0168876325,01,A,2015_Feb_20_1613,X,
stim/posf.jpg,stim/negf.jpg,stim/6.jpg,stim/3.jpg,stim/latef.jpg,EF,2,4,,,,,0,43,43,50,,,,,,4,1,0.583131585477,,,,,,PLC_L_D1S2,P19,60.0168876325,01,A,2015_Feb_20_1613,X,
stim/posf.jpg,stim/negf.jpg,stim/4.jpg,stim/1.jpg,stim/latef.jpg,CD,1,2,,,,,0,44,44,25,,,,,,2,1,0.783081642995,,,,,,PLC_L_D1S2,P19,60.0168876325,01,A,2015_Feb_20_1613,X,
stim/posf.jpg,stim/negf.jpg,stim/2.jpg,stim/5.jpg,stim/latef.jpg,AB,2,4,,,,,0,45,45,15,,,,,,4,1,0.749763761174,,,,,,PLC_L_D1S2,P19,60.0168876325,01,A,2015_Feb_20_1613,X,
stim/posf.jpg,stim/negf.jpg,stim/6.jpg,stim/3.jpg,stim/latef.jpg,EF,2,4,,,,,0,46,46,57,,,,,,4,1,0.683128403546,,,,,,PLC_L_D1S2,P19,60.0168876325,01,A,2015_Feb_20_1613,X,
stim/posf.jpg,stim/negf.jpg,stim/6.jpg,stim/3.jpg,stim/latef.jpg,EF,2,4,,,,,0,47,47,55,,,,,,4,1,0.583149898122,,,,,,PLC_L_D1S2,P19,60.0168876325,01,A,2015_Feb_20_1613,X,
stim/negf.jpg,stim/posf.jpg,stim/6.jpg,stim/3.jpg,stim/latef.jpg,EF,2,4,,,,,0,48,48,59,,,,,,4,1,0.466478276103,,,,,,PLC_L_D1S2,P19,60.0168876325,01,A,2015_Feb_20_1613,X,
stim/negf.jpg,stim/posf.jpg,stim/1.jpg,stim/4.jpg,stim/latef.jpg,CD,2,4,,,,,0,49,49,39,,,,,,4,1,0.783070903226,,,,,,PLC_L_D1S2,P19,60.0168876325,01,A,2015_Feb_20_1613,X,
stim/posf.jpg,stim/negf.jpg,stim/4.jpg,stim/1.jpg,stim/latef.jpg,CD,1,2,,,,,0,50,50,23,,,,,,2,1,0.733082638476,,,,,,PLC_L_D1S2,P19,60.0168876325,01,A,2015_Feb_20_1613,X,
stim/posf.jpg,stim/negf.jpg,stim/5.jpg,stim/2.jpg,stim/latef.jpg,AB,1,2,,,,,0,51,51,7,,,,,,2,1,0.666455028158,,,,,,PLC_L_D1S2,P19,60.0168876325,01,A,2015_Feb_20_1613,X,
stim/posf.jpg,stim/negf.jpg,stim/4.jpg,stim/1.jpg,stim/latef.jpg,CD,1,2,,,,,0,52,52,20,,,,,,2,1,0.616471019014,,,,,,PLC_L_D1S2,P19,60.0168876325,01,A,2015_Feb_20_1613,X,
stim/posf.jpg,stim/negf.jpg,stim/5.jpg,stim/2.jpg,stim/latef.jpg,AB,1,2,,,,,0,53,53,5,,,,,,2,1,0.633127793024,,,,,,PLC_L_D1S2,P19,60.0168876325,01,A,2015_Feb_20_1613,X,
stim/posf.jpg,stim/negf.jpg,stim/4.jpg,stim/1.jpg,stim/latef.jpg,CD,1,2,,,,,0,54,54,24,,,,,,2,1,0.666425972737,,,,,,PLC_L_D1S2,P19,60.0168876325,01,A,2015_Feb_20_1613,X,
stim/posf.jpg,stim/negf.jpg,stim/4.jpg,stim/1.jpg,stim/latef.jpg,CD,1,2,,,,,0,55,55,22,,,,,,2,1,0.566482540733,,,,,,PLC_L_D1S2,P19,60.0168876325,01,A,2015_Feb_20_1613,X,
stim/negf.jpg,stim/posf.jpg,stim/5.jpg,stim/2.jpg,stim/latef.jpg,AB,1,2,,,,,0,56,56,9,,,,,,2,1,0.633112256299,,,,,,PLC_L_D1S2,P19,60.0168876325,01,A,2015_Feb_20_1613,X,
stim/posf.jpg,stim/negf.jpg,stim/6.jpg,stim/3.jpg,stim/latef.jpg,EF,2,4,,,,,0,57,57,56,,,,,,4,1,0.649793998541,,,,,,PLC_L_D1S2,P19,60.0168876325,01,A,2015_Feb_20_1613,X,
stim/negf.jpg,stim/posf.jpg,stim/4.jpg,stim/1.jpg,stim/latef.jpg,CD,1,2,,,,,0,58,58,28,,,,,,2,1,0.566457229645,,,,,,PLC_L_D1S2,P19,60.0168876325,01,A,2015_Feb_20_1613,X,
stim/posf.jpg,stim/negf.jpg,stim/5.jpg,stim/2.jpg,stim/latef.jpg,AB,1,2,,,,,0,59,59,8,,,,,,2,1,0.599803824031,,,,,,PLC_L_D1S2,P19,60.0168876325,01,A,2015_Feb_20_1613,X,
