fb_corr,fb_incorr,symbol2,symbol1,fb_late,pair,position,correct,block_01.thisRepN,block_01.thisTrialN,block_01.thisN,block_01.thisIndex,block_02.thisRepN,block_02.thisTrialN,block_02.thisN,block_02.thisIndex,mouse.x,mouse.y,mouse.leftButton,mouse.midButton,mouse.rightButton,buttonBox_2.keys,buttonBox_2.corr,buttonBox_2.rt,mouse_2.x,mouse_2.y,mouse_2.leftButton,mouse_2.midButton,mouse_2.rightButton,expName,Participant,frameRate,SessionNumber,Version,date,Group,
,,,,,,,,,,,,,,,,0.9984375,1.0,1,0,0,,,,,,,,,PLC_L_D1S2,P25,60.0174122537,01,C,2015_Jul_22_1700,X,
stim/posf.jpg,stim/negf.jpg,stim/2.jpg,stim/1.jpg,stim/latef.jpg,AB,2,4,0,0,0,13,,,,,,,,,,None,0,,,,,,,PLC_L_D1S2,P25,60.0174122537,01,C,2015_Jul_22_1700,X,
stim/posf.jpg,stim/negf.jpg,stim/1.jpg,stim/2.jpg,stim/latef.jpg,AB,1,2,0,1,1,7,,,,,,,,,,2,1,0.749775137874,,,,,,PLC_L_D1S2,P25,60.0174122537,01,C,2015_Jul_22_1700,X,
stim/negf.jpg,stim/posf.jpg,stim/4.jpg,stim/3.jpg,stim/latef.jpg,CD,1,2,0,2,2,29,,,,,,,,,,4,0,0.783057093341,,,,,,PLC_L_D1S2,P25,60.0174122537,01,C,2015_Jul_22_1700,X,
stim/negf.jpg,stim/posf.jpg,stim/5.jpg,stim/6.jpg,stim/latef.jpg,EF,1,2,0,3,3,49,,,,,,,,,,4,0,0.933006926989,,,,,,PLC_L_D1S2,P25,60.0174122537,01,C,2015_Jul_22_1700,X,
stim/posf.jpg,stim/negf.jpg,stim/1.jpg,stim/2.jpg,stim/latef.jpg,AB,1,2,0,4,4,3,,,,,,,,,,2,1,0.816397384992,,,,,,PLC_L_D1S2,P25,60.0174122537,01,C,2015_Jul_22_1700,X,
stim/posf.jpg,stim/negf.jpg,stim/3.jpg,stim/4.jpg,stim/latef.jpg,CD,2,4,0,5,5,33,,,,,,,,,,2,0,1.06630640406,,,,,,PLC_L_D1S2,P25,60.0174122537,01,C,2015_Jul_22_1700,X,
stim/negf.jpg,stim/posf.jpg,stim/1.jpg,stim/2.jpg,stim/latef.jpg,AB,1,2,0,6,6,9,,,,,,,,,,2,1,0.899778194983,,,,,,PLC_L_D1S2,P25,60.0174122537,01,C,2015_Jul_22_1700,X,
stim/posf.jpg,stim/negf.jpg,stim/5.jpg,stim/6.jpg,stim/latef.jpg,EF,1,2,0,7,7,41,,,,,,,,,,4,0,0.949607620967,,,,,,PLC_L_D1S2,P25,60.0174122537,01,C,2015_Jul_22_1700,X,
stim/posf.jpg,stim/negf.jpg,stim/3.jpg,stim/4.jpg,stim/latef.jpg,CD,2,4,0,8,8,32,,,,,,,,,,2,0,0.883014362996,,,,,,PLC_L_D1S2,P25,60.0174122537,01,C,2015_Jul_22_1700,X,
stim/posf.jpg,stim/negf.jpg,stim/6.jpg,stim/5.jpg,stim/latef.jpg,EF,2,4,0,9,9,50,,,,,,,,,,2,0,1.0496100871,,,,,,PLC_L_D1S2,P25,60.0174122537,01,C,2015_Jul_22_1700,X,
stim/negf.jpg,stim/posf.jpg,stim/3.jpg,stim/4.jpg,stim/latef.jpg,CD,2,4,0,10,10,38,,,,,,,,,,2,0,0.933007925475,,,,,,PLC_L_D1S2,P25,60.0174122537,01,C,2015_Jul_22_1700,X,
stim/posf.jpg,stim/negf.jpg,stim/6.jpg,stim/5.jpg,stim/latef.jpg,EF,2,4,0,11,11,56,,,,,,,,,,4,1,0.983001487953,,,,,,PLC_L_D1S2,P25,60.0174122537,01,C,2015_Jul_22_1700,X,
stim/posf.jpg,stim/negf.jpg,stim/2.jpg,stim/1.jpg,stim/latef.jpg,AB,2,4,0,12,12,15,,,,,,,,,,4,1,0.899724210629,,,,,,PLC_L_D1S2,P25,60.0174122537,01,C,2015_Jul_22_1700,X,
stim/posf.jpg,stim/negf.jpg,stim/2.jpg,stim/1.jpg,stim/latef.jpg,AB,2,4,0,13,13,18,,,,,,,,,,4,1,1.01630011391,,,,,,PLC_L_D1S2,P25,60.0174122537,01,C,2015_Jul_22_1700,X,
stim/negf.jpg,stim/posf.jpg,stim/4.jpg,stim/3.jpg,stim/latef.jpg,CD,1,2,0,14,14,28,,,,,,,,,,4,0,1.34948230809,,,,,,PLC_L_D1S2,P25,60.0174122537,01,C,2015_Jul_22_1700,X,
stim/posf.jpg,stim/negf.jpg,stim/4.jpg,stim/3.jpg,stim/latef.jpg,CD,1,2,0,15,15,21,,,,,,,,,,4,0,0.983025644072,,,,,,PLC_L_D1S2,P25,60.0174122537,01,C,2015_Jul_22_1700,X,
stim/posf.jpg,stim/negf.jpg,stim/1.jpg,stim/2.jpg,stim/latef.jpg,AB,1,2,0,16,16,8,,,,,,,,,,2,1,0.916367580817,,,,,,PLC_L_D1S2,P25,60.0174122537,01,C,2015_Jul_22_1700,X,
stim/posf.jpg,stim/negf.jpg,stim/3.jpg,stim/4.jpg,stim/latef.jpg,CD,2,4,0,17,17,37,,,,,,,,,,4,1,1.16625305429,,,,,,PLC_L_D1S2,P25,60.0174122537,01,C,2015_Jul_22_1700,X,
stim/negf.jpg,stim/posf.jpg,stim/5.jpg,stim/6.jpg,stim/latef.jpg,EF,1,2,0,18,18,48,,,,,,,,,,2,1,0.816408034496,,,,,,PLC_L_D1S2,P25,60.0174122537,01,C,2015_Jul_22_1700,X,
stim/posf.jpg,stim/negf.jpg,stim/5.jpg,stim/6.jpg,stim/latef.jpg,EF,1,2,0,19,19,45,,,,,,,,,,2,1,0.483169693575,,,,,,PLC_L_D1S2,P25,60.0174122537,01,C,2015_Jul_22_1700,X,
stim/posf.jpg,stim/negf.jpg,stim/1.jpg,stim/2.jpg,stim/latef.jpg,AB,1,2,0,20,20,2,,,,,,,,,,2,1,0.699769142453,,,,,,PLC_L_D1S2,P25,60.0174122537,01,C,2015_Jul_22_1700,X,
stim/posf.jpg,stim/negf.jpg,stim/2.jpg,stim/1.jpg,stim/latef.jpg,AB,2,4,0,21,21,11,,,,,,,,,,4,1,0.699779130311,,,,,,PLC_L_D1S2,P25,60.0174122537,01,C,2015_Jul_22_1700,X,
stim/posf.jpg,stim/negf.jpg,stim/5.jpg,stim/6.jpg,stim/latef.jpg,EF,1,2,0,22,22,42,,,,,,,,,,2,1,0.866423918527,,,,,,PLC_L_D1S2,P25,60.0174122537,01,C,2015_Jul_22_1700,X,
stim/posf.jpg,stim/negf.jpg,stim/4.jpg,stim/3.jpg,stim/latef.jpg,CD,1,2,0,23,23,25,,,,,,,,,,4,0,1.23291413706,,,,,,PLC_L_D1S2,P25,60.0174122537,01,C,2015_Jul_22_1700,X,
stim/posf.jpg,stim/negf.jpg,stim/5.jpg,stim/6.jpg,stim/latef.jpg,EF,1,2,0,24,24,47,,,,,,,,,,2,1,0.766395097799,,,,,,PLC_L_D1S2,P25,60.0174122537,01,C,2015_Jul_22_1700,X,
stim/posf.jpg,stim/negf.jpg,stim/4.jpg,stim/3.jpg,stim/latef.jpg,CD,1,2,0,25,25,27,,,,,,,,,,4,0,0.899708908546,,,,,,PLC_L_D1S2,P25,60.0174122537,01,C,2015_Jul_22_1700,X,
stim/negf.jpg,stim/posf.jpg,stim/2.jpg,stim/1.jpg,stim/latef.jpg,AB,2,4,0,26,26,19,,,,,,,,,,4,1,0.78306526167,,,,,,PLC_L_D1S2,P25,60.0174122537,01,C,2015_Jul_22_1700,X,
stim/posf.jpg,stim/negf.jpg,stim/3.jpg,stim/4.jpg,stim/latef.jpg,CD,2,4,0,27,27,30,,,,,,,,,,4,1,1.16628049458,,,,,,PLC_L_D1S2,P25,60.0174122537,01,C,2015_Jul_22_1700,X,
stim/posf.jpg,stim/negf.jpg,stim/6.jpg,stim/5.jpg,stim/latef.jpg,EF,2,4,0,28,28,55,,,,,,,,,,4,1,0.949686155419,,,,,,PLC_L_D1S2,P25,60.0174122537,01,C,2015_Jul_22_1700,X,
stim/negf.jpg,stim/posf.jpg,stim/6.jpg,stim/5.jpg,stim/latef.jpg,EF,2,4,0,29,29,59,,,,,,,,,,4,1,0.74971641974,,,,,,PLC_L_D1S2,P25,60.0174122537,01,C,2015_Jul_22_1700,X,
stim/posf.jpg,stim/negf.jpg,stim/1.jpg,stim/2.jpg,stim/latef.jpg,AB,1,2,0,30,30,5,,,,,,,,,,2,1,0.783080308116,,,,,,PLC_L_D1S2,P25,60.0174122537,01,C,2015_Jul_22_1700,X,
stim/negf.jpg,stim/posf.jpg,stim/6.jpg,stim/5.jpg,stim/latef.jpg,EF,2,4,0,31,31,58,,,,,,,,,,4,1,0.849720690368,,,,,,PLC_L_D1S2,P25,60.0174122537,01,C,2015_Jul_22_1700,X,
stim/posf.jpg,stim/negf.jpg,stim/4.jpg,stim/3.jpg,stim/latef.jpg,CD,1,2,0,32,32,22,,,,,,,,,,2,1,1.04963906723,,,,,,PLC_L_D1S2,P25,60.0174122537,01,C,2015_Jul_22_1700,X,
stim/posf.jpg,stim/negf.jpg,stim/2.jpg,stim/1.jpg,stim/latef.jpg,AB,2,4,0,33,33,16,,,,,,,,,,4,1,0.699798101525,,,,,,PLC_L_D1S2,P25,60.0174122537,01,C,2015_Jul_22_1700,X,
stim/posf.jpg,stim/negf.jpg,stim/6.jpg,stim/5.jpg,stim/latef.jpg,EF,2,4,0,34,34,51,,,,,,,,,,4,1,0.866372283019,,,,,,PLC_L_D1S2,P25,60.0174122537,01,C,2015_Jul_22_1700,X,
stim/posf.jpg,stim/negf.jpg,stim/6.jpg,stim/5.jpg,stim/latef.jpg,EF,2,4,0,35,35,52,,,,,,,,,,4,1,0.883068563888,,,,,,PLC_L_D1S2,P25,60.0174122537,01,C,2015_Jul_22_1700,X,
stim/posf.jpg,stim/negf.jpg,stim/5.jpg,stim/6.jpg,stim/latef.jpg,EF,1,2,0,36,36,44,,,,,,,,,,2,1,1.39944210855,,,,,,PLC_L_D1S2,P25,60.0174122537,01,C,2015_Jul_22_1700,X,
stim/posf.jpg,stim/negf.jpg,stim/4.jpg,stim/3.jpg,stim/latef.jpg,CD,1,2,0,37,37,26,,,,,,,,,,2,1,0.933011979565,,,,,,PLC_L_D1S2,P25,60.0174122537,01,C,2015_Jul_22_1700,X,
stim/posf.jpg,stim/negf.jpg,stim/4.jpg,stim/3.jpg,stim/latef.jpg,CD,1,2,0,38,38,20,,,,,,,,,,2,1,0.783063947399,,,,,,PLC_L_D1S2,P25,60.0174122537,01,C,2015_Jul_22_1700,X,
stim/posf.jpg,stim/negf.jpg,stim/5.jpg,stim/6.jpg,stim/latef.jpg,EF,1,2,0,39,39,46,,,,,,,,,,2,1,0.999653829468,,,,,,PLC_L_D1S2,P25,60.0174122537,01,C,2015_Jul_22_1700,X,
stim/posf.jpg,stim/negf.jpg,stim/3.jpg,stim/4.jpg,stim/latef.jpg,CD,2,4,0,40,40,34,,,,,,,,,,4,1,1.0163328594,,,,,,PLC_L_D1S2,P25,60.0174122537,01,C,2015_Jul_22_1700,X,
stim/posf.jpg,stim/negf.jpg,stim/3.jpg,stim/4.jpg,stim/latef.jpg,CD,2,4,0,41,41,36,,,,,,,,,,4,1,0.933039573238,,,,,,PLC_L_D1S2,P25,60.0174122537,01,C,2015_Jul_22_1700,X,
stim/posf.jpg,stim/negf.jpg,stim/1.jpg,stim/2.jpg,stim/latef.jpg,AB,1,2,0,42,42,4,,,,,,,,,,2,1,1.01625031898,,,,,,PLC_L_D1S2,P25,60.0174122537,01,C,2015_Jul_22_1700,X,
stim/posf.jpg,stim/negf.jpg,stim/6.jpg,stim/5.jpg,stim/latef.jpg,EF,2,4,0,43,43,57,,,,,,,,,,4,1,0.983005659335,,,,,,PLC_L_D1S2,P25,60.0174122537,01,C,2015_Jul_22_1700,X,
stim/posf.jpg,stim/negf.jpg,stim/1.jpg,stim/2.jpg,stim/latef.jpg,AB,1,2,0,44,44,0,,,,,,,,,,2,1,0.683091829791,,,,,,PLC_L_D1S2,P25,60.0174122537,01,C,2015_Jul_22_1700,X,
stim/posf.jpg,stim/negf.jpg,stim/3.jpg,stim/4.jpg,stim/latef.jpg,CD,2,4,0,45,45,31,,,,,,,,,,4,1,0.983016937403,,,,,,PLC_L_D1S2,P25,60.0174122537,01,C,2015_Jul_22_1700,X,
stim/posf.jpg,stim/negf.jpg,stim/4.jpg,stim/3.jpg,stim/latef.jpg,CD,1,2,0,46,46,24,,,,,,,,,,2,1,0.766399825566,,,,,,PLC_L_D1S2,P25,60.0174122537,01,C,2015_Jul_22_1700,X,
stim/posf.jpg,stim/negf.jpg,stim/5.jpg,stim/6.jpg,stim/latef.jpg,EF,1,2,0,47,47,43,,,,,,,,,,2,1,0.833053747514,,,,,,PLC_L_D1S2,P25,60.0174122537,01,C,2015_Jul_22_1700,X,
stim/posf.jpg,stim/negf.jpg,stim/2.jpg,stim/1.jpg,stim/latef.jpg,AB,2,4,0,48,48,10,,,,,,,,,,4,1,0.916379129559,,,,,,PLC_L_D1S2,P25,60.0174122537,01,C,2015_Jul_22_1700,X,
stim/posf.jpg,stim/negf.jpg,stim/1.jpg,stim/2.jpg,stim/latef.jpg,AB,1,2,0,49,49,6,,,,,,,,,,2,1,0.716421694492,,,,,,PLC_L_D1S2,P25,60.0174122537,01,C,2015_Jul_22_1700,X,
stim/posf.jpg,stim/negf.jpg,stim/6.jpg,stim/5.jpg,stim/latef.jpg,EF,2,4,0,50,50,53,,,,,,,,,,4,1,0.83303900783,,,,,,PLC_L_D1S2,P25,60.0174122537,01,C,2015_Jul_22_1700,X,
stim/posf.jpg,stim/negf.jpg,stim/1.jpg,stim/2.jpg,stim/latef.jpg,AB,1,2,0,51,51,1,,,,,,,,,,2,1,0.633183715973,,,,,,PLC_L_D1S2,P25,60.0174122537,01,C,2015_Jul_22_1700,X,
stim/posf.jpg,stim/negf.jpg,stim/3.jpg,stim/4.jpg,stim/latef.jpg,CD,2,4,0,52,52,35,,,,,,,,,,4,1,0.933034604873,,,,,,PLC_L_D1S2,P25,60.0174122537,01,C,2015_Jul_22_1700,X,
stim/posf.jpg,stim/negf.jpg,stim/2.jpg,stim/1.jpg,stim/latef.jpg,AB,2,4,0,53,53,14,,,,,,,,,,4,1,0.899687486231,,,,,,PLC_L_D1S2,P25,60.0174122537,01,C,2015_Jul_22_1700,X,
stim/negf.jpg,stim/posf.jpg,stim/3.jpg,stim/4.jpg,stim/latef.jpg,CD,2,4,0,54,54,39,,,,,,,,,,4,1,0.883041030364,,,,,,PLC_L_D1S2,P25,60.0174122537,01,C,2015_Jul_22_1700,X,
stim/posf.jpg,stim/negf.jpg,stim/2.jpg,stim/1.jpg,stim/latef.jpg,AB,2,4,0,55,55,17,,,,,,,,,,4,1,0.666422375687,,,,,,PLC_L_D1S2,P25,60.0174122537,01,C,2015_Jul_22_1700,X,
stim/posf.jpg,stim/negf.jpg,stim/4.jpg,stim/3.jpg,stim/latef.jpg,CD,1,2,0,56,56,23,,,,,,,,,,2,1,0.833078069044,,,,,,PLC_L_D1S2,P25,60.0174122537,01,C,2015_Jul_22_1700,X,
stim/posf.jpg,stim/negf.jpg,stim/6.jpg,stim/5.jpg,stim/latef.jpg,EF,2,4,0,57,57,54,,,,,,,,,,4,1,0.932968656744,,,,,,PLC_L_D1S2,P25,60.0174122537,01,C,2015_Jul_22_1700,X,
stim/posf.jpg,stim/negf.jpg,stim/5.jpg,stim/6.jpg,stim/latef.jpg,EF,1,2,0,58,58,40,,,,,,,,,,2,1,0.833030544768,,,,,,PLC_L_D1S2,P25,60.0174122537,01,C,2015_Jul_22_1700,X,
stim/posf.jpg,stim/negf.jpg,stim/2.jpg,stim/1.jpg,stim/latef.jpg,AB,2,4,0,59,59,12,,,,,,,,,,4,1,0.832866877441,,,,,,PLC_L_D1S2,P25,60.0174122537,01,C,2015_Jul_22_1700,X,
,,,,,,,,,,,,,,,,,,,,,,,,-1.0,0.74609375,1,0,0,PLC_L_D1S2,P25,60.0174122537,01,C,2015_Jul_22_1700,X,
stim/posf.jpg,stim/negf.jpg,stim/6.jpg,stim/5.jpg,stim/latef.jpg,EF,2,4,,,,,0,0,0,55,,,,,,4,1,0.916352155426,,,,,,PLC_L_D1S2,P25,60.0174122537,01,C,2015_Jul_22_1700,X,
stim/posf.jpg,stim/negf.jpg,stim/5.jpg,stim/6.jpg,stim/latef.jpg,EF,1,2,,,,,0,1,1,47,,,,,,2,1,0.683079141213,,,,,,PLC_L_D1S2,P25,60.0174122537,01,C,2015_Jul_22_1700,X,
stim/negf.jpg,stim/posf.jpg,stim/6.jpg,stim/5.jpg,stim/latef.jpg,EF,2,4,,,,,0,2,2,58,,,,,,4,1,0.749766879321,,,,,,PLC_L_D1S2,P25,60.0174122537,01,C,2015_Jul_22_1700,X,
stim/posf.jpg,stim/negf.jpg,stim/3.jpg,stim/4.jpg,stim/latef.jpg,CD,2,4,,,,,0,3,3,37,,,,,,4,1,0.933015865235,,,,,,PLC_L_D1S2,P25,60.0174122537,01,C,2015_Jul_22_1700,X,
stim/negf.jpg,stim/posf.jpg,stim/3.jpg,stim/4.jpg,stim/latef.jpg,CD,2,4,,,,,0,4,4,39,,,,,,4,1,0.883042594256,,,,,,PLC_L_D1S2,P25,60.0174122537,01,C,2015_Jul_22_1700,X,
stim/posf.jpg,stim/negf.jpg,stim/1.jpg,stim/2.jpg,stim/latef.jpg,AB,1,2,,,,,0,5,5,6,,,,,,2,1,0.982992351214,,,,,,PLC_L_D1S2,P25,60.0174122537,01,C,2015_Jul_22_1700,X,
stim/posf.jpg,stim/negf.jpg,stim/6.jpg,stim/5.jpg,stim/latef.jpg,EF,2,4,,,,,0,6,6,56,,,,,,4,1,0.883041072469,,,,,,PLC_L_D1S2,P25,60.0174122537,01,C,2015_Jul_22_1700,X,
stim/posf.jpg,stim/negf.jpg,stim/6.jpg,stim/5.jpg,stim/latef.jpg,EF,2,4,,,,,0,7,7,54,,,,,,4,1,1.13298207013,,,,,,PLC_L_D1S2,P25,60.0174122537,01,C,2015_Jul_22_1700,X,
stim/posf.jpg,stim/negf.jpg,stim/3.jpg,stim/4.jpg,stim/latef.jpg,CD,2,4,,,,,0,8,8,30,,,,,,4,1,0.99966879772,,,,,,PLC_L_D1S2,P25,60.0174122537,01,C,2015_Jul_22_1700,X,
stim/posf.jpg,stim/negf.jpg,stim/4.jpg,stim/3.jpg,stim/latef.jpg,CD,1,2,,,,,0,9,9,25,,,,,,2,1,0.683097345518,,,,,,PLC_L_D1S2,P25,60.0174122537,01,C,2015_Jul_22_1700,X,
stim/negf.jpg,stim/posf.jpg,stim/5.jpg,stim/6.jpg,stim/latef.jpg,EF,1,2,,,,,0,10,10,49,,,,,,2,1,0.983014639685,,,,,,PLC_L_D1S2,P25,60.0174122537,01,C,2015_Jul_22_1700,X,
stim/posf.jpg,stim/negf.jpg,stim/4.jpg,stim/3.jpg,stim/latef.jpg,CD,1,2,,,,,0,11,11,27,,,,,,2,1,1.03299463239,,,,,,PLC_L_D1S2,P25,60.0174122537,01,C,2015_Jul_22_1700,X,
stim/posf.jpg,stim/negf.jpg,stim/2.jpg,stim/1.jpg,stim/latef.jpg,AB,2,4,,,,,0,12,12,12,,,,,,4,1,0.799711513028,,,,,,PLC_L_D1S2,P25,60.0174122537,01,C,2015_Jul_22_1700,X,
stim/posf.jpg,stim/negf.jpg,stim/3.jpg,stim/4.jpg,stim/latef.jpg,CD,2,4,,,,,0,13,13,32,,,,,,4,1,1.01633560824,,,,,,PLC_L_D1S2,P25,60.0174122537,01,C,2015_Jul_22_1700,X,
stim/posf.jpg,stim/negf.jpg,stim/6.jpg,stim/5.jpg,stim/latef.jpg,EF,2,4,,,,,0,14,14,57,,,,,,2,0,1.23291812799,,,,,,PLC_L_D1S2,P25,60.0174122537,01,C,2015_Jul_22_1700,X,
stim/negf.jpg,stim/posf.jpg,stim/3.jpg,stim/4.jpg,stim/latef.jpg,CD,2,4,,,,,0,15,15,38,,,,,,4,1,0.866366586843,,,,,,PLC_L_D1S2,P25,60.0174122537,01,C,2015_Jul_22_1700,X,
stim/posf.jpg,stim/negf.jpg,stim/1.jpg,stim/2.jpg,stim/latef.jpg,AB,1,2,,,,,0,16,16,3,,,,,,2,1,0.69975839671,,,,,,PLC_L_D1S2,P25,60.0174122537,01,C,2015_Jul_22_1700,X,
stim/posf.jpg,stim/negf.jpg,stim/4.jpg,stim/3.jpg,stim/latef.jpg,CD,1,2,,,,,0,17,17,22,,,,,,2,1,0.899702923651,,,,,,PLC_L_D1S2,P25,60.0174122537,01,C,2015_Jul_22_1700,X,
stim/negf.jpg,stim/posf.jpg,stim/6.jpg,stim/5.jpg,stim/latef.jpg,EF,2,4,,,,,0,18,18,59,,,,,,4,1,1.13295269903,,,,,,PLC_L_D1S2,P25,60.0174122537,01,C,2015_Jul_22_1700,X,
stim/posf.jpg,stim/negf.jpg,stim/2.jpg,stim/1.jpg,stim/latef.jpg,AB,2,4,,,,,0,19,19,17,,,,,,4,1,0.799730815066,,,,,,PLC_L_D1S2,P25,60.0174122537,01,C,2015_Jul_22_1700,X,
stim/posf.jpg,stim/negf.jpg,stim/1.jpg,stim/2.jpg,stim/latef.jpg,AB,1,2,,,,,0,20,20,4,,,,,,2,1,1.01633335865,,,,,,PLC_L_D1S2,P25,60.0174122537,01,C,2015_Jul_22_1700,X,
stim/posf.jpg,stim/negf.jpg,stim/1.jpg,stim/2.jpg,stim/latef.jpg,AB,1,2,,,,,0,21,21,5,,,,,,2,1,0.616438668736,,,,,,PLC_L_D1S2,P25,60.0174122537,01,C,2015_Jul_22_1700,X,
stim/posf.jpg,stim/negf.jpg,stim/2.jpg,stim/1.jpg,stim/latef.jpg,AB,2,4,,,,,0,22,22,10,,,,,,4,1,0.699713882926,,,,,,PLC_L_D1S2,P25,60.0174122537,01,C,2015_Jul_22_1700,X,
stim/posf.jpg,stim/negf.jpg,stim/1.jpg,stim/2.jpg,stim/latef.jpg,AB,1,2,,,,,0,23,23,7,,,,,,2,1,0.599751163709,,,,,,PLC_L_D1S2,P25,60.0174122537,01,C,2015_Jul_22_1700,X,
stim/negf.jpg,stim/posf.jpg,stim/5.jpg,stim/6.jpg,stim/latef.jpg,EF,1,2,,,,,0,24,24,48,,,,,,2,1,1.11629739815,,,,,,PLC_L_D1S2,P25,60.0174122537,01,C,2015_Jul_22_1700,X,
stim/posf.jpg,stim/negf.jpg,stim/5.jpg,stim/6.jpg,stim/latef.jpg,EF,1,2,,,,,0,25,25,46,,,,,,2,1,1.26625391142,,,,,,PLC_L_D1S2,P25,60.0174122537,01,C,2015_Jul_22_1700,X,
stim/posf.jpg,stim/negf.jpg,stim/2.jpg,stim/1.jpg,stim/latef.jpg,AB,2,4,,,,,0,26,26,14,,,,,,4,1,1.13294976372,,,,,,PLC_L_D1S2,P25,60.0174122537,01,C,2015_Jul_22_1700,X,
stim/negf.jpg,stim/posf.jpg,stim/2.jpg,stim/1.jpg,stim/latef.jpg,AB,2,4,,,,,0,27,27,19,,,,,,4,1,1.06633621726,,,,,,PLC_L_D1S2,P25,60.0174122537,01,C,2015_Jul_22_1700,X,
stim/posf.jpg,stim/negf.jpg,stim/4.jpg,stim/3.jpg,stim/latef.jpg,CD,1,2,,,,,0,28,28,21,,,,,,2,1,0.983028089157,,,,,,PLC_L_D1S2,P25,60.0174122537,01,C,2015_Jul_22_1700,X,
stim/posf.jpg,stim/negf.jpg,stim/5.jpg,stim/6.jpg,stim/latef.jpg,EF,1,2,,,,,0,29,29,40,,,,,,2,1,0.949596276734,,,,,,PLC_L_D1S2,P25,60.0174122537,01,C,2015_Jul_22_1700,X,
stim/posf.jpg,stim/negf.jpg,stim/4.jpg,stim/3.jpg,stim/latef.jpg,CD,1,2,,,,,0,30,30,23,,,,,,2,1,0.916358329793,,,,,,PLC_L_D1S2,P25,60.0174122537,01,C,2015_Jul_22_1700,X,
stim/posf.jpg,stim/negf.jpg,stim/1.jpg,stim/2.jpg,stim/latef.jpg,AB,1,2,,,,,0,31,31,2,,,,,,2,1,0.982951825355,,,,,,PLC_L_D1S2,P25,60.0174122537,01,C,2015_Jul_22_1700,X,
stim/negf.jpg,stim/posf.jpg,stim/4.jpg,stim/3.jpg,stim/latef.jpg,CD,1,2,,,,,0,32,32,28,,,,,,2,1,0.96634137209,,,,,,PLC_L_D1S2,P25,60.0174122537,01,C,2015_Jul_22_1700,X,
stim/posf.jpg,stim/negf.jpg,stim/3.jpg,stim/4.jpg,stim/latef.jpg,CD,2,4,,,,,0,33,33,35,,,,,,4,1,0.91634698556,,,,,,PLC_L_D1S2,P25,60.0174122537,01,C,2015_Jul_22_1700,X,
stim/posf.jpg,stim/negf.jpg,stim/6.jpg,stim/5.jpg,stim/latef.jpg,EF,2,4,,,,,0,34,34,50,,,,,,4,1,1.29956308463,,,,,,PLC_L_D1S2,P25,60.0174122537,01,C,2015_Jul_22_1700,X,
stim/posf.jpg,stim/negf.jpg,stim/1.jpg,stim/2.jpg,stim/latef.jpg,AB,1,2,,,,,0,35,35,1,,,,,,2,1,0.68312734518,,,,,,PLC_L_D1S2,P25,60.0174122537,01,C,2015_Jul_22_1700,X,
stim/posf.jpg,stim/negf.jpg,stim/6.jpg,stim/5.jpg,stim/latef.jpg,EF,2,4,,,,,0,36,36,52,,,,,,4,1,0.749696110194,,,,,,PLC_L_D1S2,P25,60.0174122537,01,C,2015_Jul_22_1700,X,
stim/posf.jpg,stim/negf.jpg,stim/3.jpg,stim/4.jpg,stim/latef.jpg,CD,2,4,,,,,0,37,37,36,,,,,,4,1,0.883017457698,,,,,,PLC_L_D1S2,P25,60.0174122537,01,C,2015_Jul_22_1700,X,
stim/posf.jpg,stim/negf.jpg,stim/4.jpg,stim/3.jpg,stim/latef.jpg,CD,1,2,,,,,0,38,38,20,,,,,,2,1,0.666453734732,,,,,,PLC_L_D1S2,P25,60.0174122537,01,C,2015_Jul_22_1700,X,
stim/posf.jpg,stim/negf.jpg,stim/3.jpg,stim/4.jpg,stim/latef.jpg,CD,2,4,,,,,0,39,39,33,,,,,,4,1,1.09963477404,,,,,,PLC_L_D1S2,P25,60.0174122537,01,C,2015_Jul_22_1700,X,
stim/posf.jpg,stim/negf.jpg,stim/2.jpg,stim/1.jpg,stim/latef.jpg,AB,2,4,,,,,0,40,40,18,,,,,,4,1,0.666391768514,,,,,,PLC_L_D1S2,P25,60.0174122537,01,C,2015_Jul_22_1700,X,
stim/posf.jpg,stim/negf.jpg,stim/5.jpg,stim/6.jpg,stim/latef.jpg,EF,1,2,,,,,0,41,41,42,,,,,,2,1,1.06632684895,,,,,,PLC_L_D1S2,P25,60.0174122537,01,C,2015_Jul_22_1700,X,
stim/posf.jpg,stim/negf.jpg,stim/5.jpg,stim/6.jpg,stim/latef.jpg,EF,1,2,,,,,0,42,42,43,,,,,,4,0,0.966381744567,,,,,,PLC_L_D1S2,P25,60.0174122537,01,C,2015_Jul_22_1700,X,
stim/posf.jpg,stim/negf.jpg,stim/6.jpg,stim/5.jpg,stim/latef.jpg,EF,2,4,,,,,0,43,43,51,,,,,,4,1,0.783048137051,,,,,,PLC_L_D1S2,P25,60.0174122537,01,C,2015_Jul_22_1700,X,
stim/posf.jpg,stim/negf.jpg,stim/5.jpg,stim/6.jpg,stim/latef.jpg,EF,1,2,,,,,0,44,44,41,,,,,,2,1,0.866461491036,,,,,,PLC_L_D1S2,P25,60.0174122537,01,C,2015_Jul_22_1700,X,
stim/negf.jpg,stim/posf.jpg,stim/1.jpg,stim/2.jpg,stim/latef.jpg,AB,1,2,,,,,0,45,45,9,,,,,,4,0,0.599801373668,,,,,,PLC_L_D1S2,P25,60.0174122537,01,C,2015_Jul_22_1700,X,
stim/posf.jpg,stim/negf.jpg,stim/4.jpg,stim/3.jpg,stim/latef.jpg,CD,1,2,,,,,0,46,46,26,,,,,,2,1,0.883049282903,,,,,,PLC_L_D1S2,P25,60.0174122537,01,C,2015_Jul_22_1700,X,
stim/negf.jpg,stim/posf.jpg,stim/4.jpg,stim/3.jpg,stim/latef.jpg,CD,1,2,,,,,0,47,47,29,,,,,,2,1,0.766461578253,,,,,,PLC_L_D1S2,P25,60.0174122537,01,C,2015_Jul_22_1700,X,
stim/posf.jpg,stim/negf.jpg,stim/6.jpg,stim/5.jpg,stim/latef.jpg,EF,2,4,,,,,0,48,48,53,,,,,,4,1,1.03297449728,,,,,,PLC_L_D1S2,P25,60.0174122537,01,C,2015_Jul_22_1700,X,
stim/posf.jpg,stim/negf.jpg,stim/2.jpg,stim/1.jpg,stim/latef.jpg,AB,2,4,,,,,0,49,49,15,,,,,,4,1,0.883052434747,,,,,,PLC_L_D1S2,P25,60.0174122537,01,C,2015_Jul_22_1700,X,
stim/posf.jpg,stim/negf.jpg,stim/3.jpg,stim/4.jpg,stim/latef.jpg,CD,2,4,,,,,0,50,50,31,,,,,,4,1,1.56616618008,,,,,,PLC_L_D1S2,P25,60.0174122537,01,C,2015_Jul_22_1700,X,
stim/posf.jpg,stim/negf.jpg,stim/1.jpg,stim/2.jpg,stim/latef.jpg,AB,1,2,,,,,0,51,51,8,,,,,,2,1,0.749714681413,,,,,,PLC_L_D1S2,P25,60.0174122537,01,C,2015_Jul_22_1700,X,
stim/posf.jpg,stim/negf.jpg,stim/3.jpg,stim/4.jpg,stim/latef.jpg,CD,2,4,,,,,0,52,52,34,,,,,,4,1,0.94969097341,,,,,,PLC_L_D1S2,P25,60.0174122537,01,C,2015_Jul_22_1700,X,
stim/posf.jpg,stim/negf.jpg,stim/2.jpg,stim/1.jpg,stim/latef.jpg,AB,2,4,,,,,0,53,53,11,,,,,,4,1,0.883021917798,,,,,,PLC_L_D1S2,P25,60.0174122537,01,C,2015_Jul_22_1700,X,
stim/posf.jpg,stim/negf.jpg,stim/4.jpg,stim/3.jpg,stim/latef.jpg,CD,1,2,,,,,0,54,54,24,,,,,,4,0,0.866347690815,,,,,,PLC_L_D1S2,P25,60.0174122537,01,C,2015_Jul_22_1700,X,
stim/posf.jpg,stim/negf.jpg,stim/1.jpg,stim/2.jpg,stim/latef.jpg,AB,1,2,,,,,0,55,55,0,,,,,,2,1,0.899707341647,,,,,,PLC_L_D1S2,P25,60.0174122537,01,C,2015_Jul_22_1700,X,
stim/posf.jpg,stim/negf.jpg,stim/2.jpg,stim/1.jpg,stim/latef.jpg,AB,2,4,,,,,0,56,56,13,,,,,,4,1,0.79977086875,,,,,,PLC_L_D1S2,P25,60.0174122537,01,C,2015_Jul_22_1700,X,
stim/posf.jpg,stim/negf.jpg,stim/5.jpg,stim/6.jpg,stim/latef.jpg,EF,1,2,,,,,0,57,57,44,,,,,,2,1,0.933038908584,,,,,,PLC_L_D1S2,P25,60.0174122537,01,C,2015_Jul_22_1700,X,
stim/posf.jpg,stim/negf.jpg,stim/2.jpg,stim/1.jpg,stim/latef.jpg,AB,2,4,,,,,0,58,58,16,,,,,,4,1,0.683068392461,,,,,,PLC_L_D1S2,P25,60.0174122537,01,C,2015_Jul_22_1700,X,
stim/posf.jpg,stim/negf.jpg,stim/5.jpg,stim/6.jpg,stim/latef.jpg,EF,1,2,,,,,0,59,59,45,,,,,,2,1,0.816399291738,,,,,,PLC_L_D1S2,P25,60.0174122537,01,C,2015_Jul_22_1700,X,
