fb_corr,fb_incorr,symbol2,symbol1,fb_late,pair,position,correct,block_01.thisRepN,block_01.thisTrialN,block_01.thisN,block_01.thisIndex,block_02.thisRepN,block_02.thisTrialN,block_02.thisN,block_02.thisIndex,mouse.x,mouse.y,mouse.leftButton,mouse.midButton,mouse.rightButton,buttonBox_2.keys,buttonBox_2.corr,buttonBox_2.rt,mouse_2.x,mouse_2.y,mouse_2.leftButton,mouse_2.midButton,mouse_2.rightButton,expName,Participant,frameRate,SessionNumber,Version,date,Group,
,,,,,,,,,,,,,,,,0.9765625,1.0,1,0,0,,,,,,,,,PLC_L_D1S2,P27,60.0182038806,01,A,2015_Jul_30_1550,X,
stim/negf.jpg,stim/posf.jpg,stim/6.jpg,stim/3.jpg,stim/latef.jpg,EF,2,4,0,0,0,58,,,,,,,,,,2,0,0.883058831137,,,,,,PLC_L_D1S2,P27,60.0182038806,01,A,2015_Jul_30_1550,X,
stim/posf.jpg,stim/negf.jpg,stim/4.jpg,stim/1.jpg,stim/latef.jpg,AB,1,2,0,1,1,8,,,,,,,,,,2,1,0.966353741701,,,,,,PLC_L_D1S2,P27,60.0182038806,01,A,2015_Jul_30_1550,X,
stim/posf.jpg,stim/negf.jpg,stim/1.jpg,stim/4.jpg,stim/latef.jpg,AB,2,4,0,2,2,13,,,,,,,,,,4,1,1.33291866678,,,,,,PLC_L_D1S2,P27,60.0182038806,01,A,2015_Jul_30_1550,X,
stim/posf.jpg,stim/negf.jpg,stim/6.jpg,stim/3.jpg,stim/latef.jpg,EF,2,4,0,3,3,51,,,,,,,,,,2,0,0.88302678025,,,,,,PLC_L_D1S2,P27,60.0182038806,01,A,2015_Jul_30_1550,X,
stim/posf.jpg,stim/negf.jpg,stim/1.jpg,stim/4.jpg,stim/latef.jpg,AB,2,4,0,4,4,14,,,,,,,,,,4,1,0.999659346922,,,,,,PLC_L_D1S2,P27,60.0182038806,01,A,2015_Jul_30_1550,X,
stim/posf.jpg,stim/negf.jpg,stim/6.jpg,stim/3.jpg,stim/latef.jpg,EF,2,4,0,5,5,55,,,,,,,,,,2,0,1.01637109495,,,,,,PLC_L_D1S2,P27,60.0182038806,01,A,2015_Jul_30_1550,X,
stim/posf.jpg,stim/negf.jpg,stim/2.jpg,stim/5.jpg,stim/latef.jpg,CD,2,4,0,6,6,32,,,,,,,,,,4,1,1.09967776784,,,,,,PLC_L_D1S2,P27,60.0182038806,01,A,2015_Jul_30_1550,X,
stim/negf.jpg,stim/posf.jpg,stim/5.jpg,stim/2.jpg,stim/latef.jpg,CD,1,2,0,7,7,29,,,,,,,,,,4,0,0.666424294554,,,,,,PLC_L_D1S2,P27,60.0182038806,01,A,2015_Jul_30_1550,X,
stim/negf.jpg,stim/posf.jpg,stim/4.jpg,stim/1.jpg,stim/latef.jpg,AB,1,2,0,8,8,9,,,,,,,,,,2,1,0.983006891678,,,,,,PLC_L_D1S2,P27,60.0182038806,01,A,2015_Jul_30_1550,X,
stim/posf.jpg,stim/negf.jpg,stim/5.jpg,stim/2.jpg,stim/latef.jpg,CD,1,2,0,9,9,21,,,,,,,,,,2,1,1.21624398313,,,,,,PLC_L_D1S2,P27,60.0182038806,01,A,2015_Jul_30_1550,X,
stim/negf.jpg,stim/posf.jpg,stim/6.jpg,stim/3.jpg,stim/latef.jpg,EF,2,4,0,10,10,59,,,,,,,,,,2,0,1.16530202329,,,,,,PLC_L_D1S2,P27,60.0182038806,01,A,2015_Jul_30_1550,X,
stim/posf.jpg,stim/negf.jpg,stim/2.jpg,stim/5.jpg,stim/latef.jpg,CD,2,4,0,11,11,30,,,,,,,,,,4,1,1.19954751017,,,,,,PLC_L_D1S2,P27,60.0182038806,01,A,2015_Jul_30_1550,X,
stim/posf.jpg,stim/negf.jpg,stim/3.jpg,stim/6.jpg,stim/latef.jpg,EF,1,2,0,12,12,45,,,,,,,,,,4,0,0.71642141638,,,,,,PLC_L_D1S2,P27,60.0182038806,01,A,2015_Jul_30_1550,X,
stim/posf.jpg,stim/negf.jpg,stim/6.jpg,stim/3.jpg,stim/latef.jpg,EF,2,4,0,13,13,53,,,,,,,,,,2,0,0.91636861377,,,,,,PLC_L_D1S2,P27,60.0182038806,01,A,2015_Jul_30_1550,X,
stim/posf.jpg,stim/negf.jpg,stim/4.jpg,stim/1.jpg,stim/latef.jpg,AB,1,2,0,14,14,3,,,,,,,,,,2,1,1.24953262006,,,,,,PLC_L_D1S2,P27,60.0182038806,01,A,2015_Jul_30_1550,X,
stim/posf.jpg,stim/negf.jpg,stim/5.jpg,stim/2.jpg,stim/latef.jpg,CD,1,2,0,15,15,22,,,,,,,,,,2,1,1.1662611439,,,,,,PLC_L_D1S2,P27,60.0182038806,01,A,2015_Jul_30_1550,X,
stim/negf.jpg,stim/posf.jpg,stim/3.jpg,stim/6.jpg,stim/latef.jpg,EF,1,2,0,16,16,49,,,,,,,,,,2,1,1.41624089142,,,,,,PLC_L_D1S2,P27,60.0182038806,01,A,2015_Jul_30_1550,X,
stim/posf.jpg,stim/negf.jpg,stim/4.jpg,stim/1.jpg,stim/latef.jpg,AB,1,2,0,17,17,7,,,,,,,,,,2,1,0.982987360997,,,,,,PLC_L_D1S2,P27,60.0182038806,01,A,2015_Jul_30_1550,X,
stim/posf.jpg,stim/negf.jpg,stim/4.jpg,stim/1.jpg,stim/latef.jpg,AB,1,2,0,18,18,5,,,,,,,,,,2,1,0.733094620341,,,,,,PLC_L_D1S2,P27,60.0182038806,01,A,2015_Jul_30_1550,X,
stim/posf.jpg,stim/negf.jpg,stim/6.jpg,stim/3.jpg,stim/latef.jpg,EF,2,4,0,19,19,52,,,,,,,,,,2,0,0.833059288276,,,,,,PLC_L_D1S2,P27,60.0182038806,01,A,2015_Jul_30_1550,X,
stim/posf.jpg,stim/negf.jpg,stim/3.jpg,stim/6.jpg,stim/latef.jpg,EF,1,2,0,20,20,43,,,,,,,,,,4,0,1.18294015534,,,,,,PLC_L_D1S2,P27,60.0182038806,01,A,2015_Jul_30_1550,X,
stim/posf.jpg,stim/negf.jpg,stim/4.jpg,stim/1.jpg,stim/latef.jpg,AB,1,2,0,21,21,4,,,,,,,,,,2,1,0.849662038631,,,,,,PLC_L_D1S2,P27,60.0182038806,01,A,2015_Jul_30_1550,X,
stim/posf.jpg,stim/negf.jpg,stim/2.jpg,stim/5.jpg,stim/latef.jpg,CD,2,4,0,22,22,36,,,,,,,,,,4,1,0.999684522672,,,,,,PLC_L_D1S2,P27,60.0182038806,01,A,2015_Jul_30_1550,X,
stim/posf.jpg,stim/negf.jpg,stim/5.jpg,stim/2.jpg,stim/latef.jpg,CD,1,2,0,23,23,24,,,,,,,,,,2,1,0.899694035383,,,,,,PLC_L_D1S2,P27,60.0182038806,01,A,2015_Jul_30_1550,X,
stim/posf.jpg,stim/negf.jpg,stim/1.jpg,stim/4.jpg,stim/latef.jpg,AB,2,4,0,24,24,16,,,,,,,,,,2,0,0.833060373982,,,,,,PLC_L_D1S2,P27,60.0182038806,01,A,2015_Jul_30_1550,X,
stim/posf.jpg,stim/negf.jpg,stim/4.jpg,stim/1.jpg,stim/latef.jpg,AB,1,2,0,25,25,1,,,,,,,,,,2,1,0.94969693461,,,,,,PLC_L_D1S2,P27,60.0182038806,01,A,2015_Jul_30_1550,X,
stim/posf.jpg,stim/negf.jpg,stim/3.jpg,stim/6.jpg,stim/latef.jpg,EF,1,2,0,26,26,44,,,,,,,,,,4,0,0.766422980278,,,,,,PLC_L_D1S2,P27,60.0182038806,01,A,2015_Jul_30_1550,X,
stim/posf.jpg,stim/negf.jpg,stim/2.jpg,stim/5.jpg,stim/latef.jpg,CD,2,4,0,27,27,35,,,,,,,,,,4,1,1.1329657371,,,,,,PLC_L_D1S2,P27,60.0182038806,01,A,2015_Jul_30_1550,X,
stim/posf.jpg,stim/negf.jpg,stim/3.jpg,stim/6.jpg,stim/latef.jpg,EF,1,2,0,28,28,40,,,,,,,,,,2,1,0.833007174382,,,,,,PLC_L_D1S2,P27,60.0182038806,01,A,2015_Jul_30_1550,X,
stim/posf.jpg,stim/negf.jpg,stim/2.jpg,stim/5.jpg,stim/latef.jpg,CD,2,4,0,29,29,34,,,,,,,,,,4,1,0.966358887527,,,,,,PLC_L_D1S2,P27,60.0182038806,01,A,2015_Jul_30_1550,X,
stim/posf.jpg,stim/negf.jpg,stim/6.jpg,stim/3.jpg,stim/latef.jpg,EF,2,4,0,30,30,54,,,,,,,,,,4,1,1.09962574417,,,,,,PLC_L_D1S2,P27,60.0182038806,01,A,2015_Jul_30_1550,X,
stim/posf.jpg,stim/negf.jpg,stim/3.jpg,stim/6.jpg,stim/latef.jpg,EF,1,2,0,31,31,41,,,,,,,,,,2,1,1.03300263006,,,,,,PLC_L_D1S2,P27,60.0182038806,01,A,2015_Jul_30_1550,X,
stim/posf.jpg,stim/negf.jpg,stim/1.jpg,stim/4.jpg,stim/latef.jpg,AB,2,4,0,32,32,15,,,,,,,,,,4,1,1.08294141247,,,,,,PLC_L_D1S2,P27,60.0182038806,01,A,2015_Jul_30_1550,X,
stim/negf.jpg,stim/posf.jpg,stim/1.jpg,stim/4.jpg,stim/latef.jpg,AB,2,4,0,33,33,19,,,,,,,,,,4,1,0.799742636522,,,,,,PLC_L_D1S2,P27,60.0182038806,01,A,2015_Jul_30_1550,X,
stim/posf.jpg,stim/negf.jpg,stim/1.jpg,stim/4.jpg,stim/latef.jpg,AB,2,4,0,34,34,10,,,,,,,,,,4,1,0.616433533582,,,,,,PLC_L_D1S2,P27,60.0182038806,01,A,2015_Jul_30_1550,X,
stim/posf.jpg,stim/negf.jpg,stim/4.jpg,stim/1.jpg,stim/latef.jpg,AB,1,2,0,35,35,2,,,,,,,,,,2,1,0.999711701416,,,,,,PLC_L_D1S2,P27,60.0182038806,01,A,2015_Jul_30_1550,X,
stim/posf.jpg,stim/negf.jpg,stim/5.jpg,stim/2.jpg,stim/latef.jpg,CD,1,2,0,36,36,20,,,,,,,,,,2,1,1.08303351704,,,,,,PLC_L_D1S2,P27,60.0182038806,01,A,2015_Jul_30_1550,X,
stim/posf.jpg,stim/negf.jpg,stim/3.jpg,stim/6.jpg,stim/latef.jpg,EF,1,2,0,37,37,42,,,,,,,,,,2,1,0.949741604951,,,,,,PLC_L_D1S2,P27,60.0182038806,01,A,2015_Jul_30_1550,X,
stim/posf.jpg,stim/negf.jpg,stim/6.jpg,stim/3.jpg,stim/latef.jpg,EF,2,4,0,38,38,50,,,,,,,,,,4,1,0.799742931256,,,,,,PLC_L_D1S2,P27,60.0182038806,01,A,2015_Jul_30_1550,X,
stim/posf.jpg,stim/negf.jpg,stim/2.jpg,stim/5.jpg,stim/latef.jpg,CD,2,4,0,39,39,37,,,,,,,,,,4,1,0.816408511214,,,,,,PLC_L_D1S2,P27,60.0182038806,01,A,2015_Jul_30_1550,X,
stim/posf.jpg,stim/negf.jpg,stim/3.jpg,stim/6.jpg,stim/latef.jpg,EF,1,2,0,40,40,46,,,,,,,,,,2,1,0.91637595206,,,,,,PLC_L_D1S2,P27,60.0182038806,01,A,2015_Jul_30_1550,X,
stim/posf.jpg,stim/negf.jpg,stim/4.jpg,stim/1.jpg,stim/latef.jpg,AB,1,2,0,41,41,0,,,,,,,,,,2,1,1.04963597868,,,,,,PLC_L_D1S2,P27,60.0182038806,01,A,2015_Jul_30_1550,X,
stim/negf.jpg,stim/posf.jpg,stim/2.jpg,stim/5.jpg,stim/latef.jpg,CD,2,4,0,42,42,38,,,,,,,,,,4,1,0.799686420403,,,,,,PLC_L_D1S2,P27,60.0182038806,01,A,2015_Jul_30_1550,X,
stim/posf.jpg,stim/negf.jpg,stim/5.jpg,stim/2.jpg,stim/latef.jpg,CD,1,2,0,43,43,25,,,,,,,,,,2,1,0.79973790573,,,,,,PLC_L_D1S2,P27,60.0182038806,01,A,2015_Jul_30_1550,X,
stim/posf.jpg,stim/negf.jpg,stim/5.jpg,stim/2.jpg,stim/latef.jpg,CD,1,2,0,44,44,23,,,,,,,,,,2,1,0.749739686168,,,,,,PLC_L_D1S2,P27,60.0182038806,01,A,2015_Jul_30_1550,X,
stim/posf.jpg,stim/negf.jpg,stim/1.jpg,stim/4.jpg,stim/latef.jpg,AB,2,4,0,45,45,17,,,,,,,,,,4,1,0.61646515139,,,,,,PLC_L_D1S2,P27,60.0182038806,01,A,2015_Jul_30_1550,X,
stim/negf.jpg,stim/posf.jpg,stim/2.jpg,stim/5.jpg,stim/latef.jpg,CD,2,4,0,46,46,39,,,,,,,,,,4,1,0.783100683454,,,,,,PLC_L_D1S2,P27,60.0182038806,01,A,2015_Jul_30_1550,X,
stim/posf.jpg,stim/negf.jpg,stim/1.jpg,stim/4.jpg,stim/latef.jpg,AB,2,4,0,47,47,12,,,,,,,,,,4,1,0.849733087721,,,,,,PLC_L_D1S2,P27,60.0182038806,01,A,2015_Jul_30_1550,X,
stim/posf.jpg,stim/negf.jpg,stim/6.jpg,stim/3.jpg,stim/latef.jpg,EF,2,4,0,48,48,56,,,,,,,,,,4,1,0.833056482282,,,,,,PLC_L_D1S2,P27,60.0182038806,01,A,2015_Jul_30_1550,X,
stim/posf.jpg,stim/negf.jpg,stim/2.jpg,stim/5.jpg,stim/latef.jpg,CD,2,4,0,49,49,33,,,,,,,,,,4,1,0.883030181728,,,,,,PLC_L_D1S2,P27,60.0182038806,01,A,2015_Jul_30_1550,X,
stim/posf.jpg,stim/negf.jpg,stim/4.jpg,stim/1.jpg,stim/latef.jpg,AB,1,2,0,50,50,6,,,,,,,,,,2,1,0.899695824844,,,,,,PLC_L_D1S2,P27,60.0182038806,01,A,2015_Jul_30_1550,X,
stim/posf.jpg,stim/negf.jpg,stim/1.jpg,stim/4.jpg,stim/latef.jpg,AB,2,4,0,51,51,11,,,,,,,,,,4,1,0.999702621785,,,,,,PLC_L_D1S2,P27,60.0182038806,01,A,2015_Jul_30_1550,X,
stim/posf.jpg,stim/negf.jpg,stim/6.jpg,stim/3.jpg,stim/latef.jpg,EF,2,4,0,52,52,57,,,,,,,,,,4,1,0.799733547868,,,,,,PLC_L_D1S2,P27,60.0182038806,01,A,2015_Jul_30_1550,X,
stim/posf.jpg,stim/negf.jpg,stim/1.jpg,stim/4.jpg,stim/latef.jpg,AB,2,4,0,53,53,18,,,,,,,,,,4,1,0.699790455711,,,,,,PLC_L_D1S2,P27,60.0182038806,01,A,2015_Jul_30_1550,X,
stim/posf.jpg,stim/negf.jpg,stim/2.jpg,stim/5.jpg,stim/latef.jpg,CD,2,4,0,54,54,31,,,,,,,,,,4,1,0.699760001805,,,,,,PLC_L_D1S2,P27,60.0182038806,01,A,2015_Jul_30_1550,X,
stim/posf.jpg,stim/negf.jpg,stim/3.jpg,stim/6.jpg,stim/latef.jpg,EF,1,2,0,55,55,47,,,,,,,,,,2,1,0.933027790768,,,,,,PLC_L_D1S2,P27,60.0182038806,01,A,2015_Jul_30_1550,X,
stim/posf.jpg,stim/negf.jpg,stim/5.jpg,stim/2.jpg,stim/latef.jpg,CD,1,2,0,56,56,27,,,,,,,,,,2,1,0.783020037443,,,,,,PLC_L_D1S2,P27,60.0182038806,01,A,2015_Jul_30_1550,X,
stim/negf.jpg,stim/posf.jpg,stim/5.jpg,stim/2.jpg,stim/latef.jpg,CD,1,2,0,57,57,28,,,,,,,,,,2,1,0.566464170946,,,,,,PLC_L_D1S2,P27,60.0182038806,01,A,2015_Jul_30_1550,X,
stim/negf.jpg,stim/posf.jpg,stim/3.jpg,stim/6.jpg,stim/latef.jpg,EF,1,2,0,58,58,48,,,,,,,,,,2,1,1.11628843693,,,,,,PLC_L_D1S2,P27,60.0182038806,01,A,2015_Jul_30_1550,X,
stim/posf.jpg,stim/negf.jpg,stim/5.jpg,stim/2.jpg,stim/latef.jpg,CD,1,2,0,59,59,26,,,,,,,,,,2,1,0.716432499004,,,,,,PLC_L_D1S2,P27,60.0182038806,01,A,2015_Jul_30_1550,X,
,,,,,,,,,,,,,,,,,,,,,,,,0.9984375,1.0,1,0,0,PLC_L_D1S2,P27,60.0182038806,01,A,2015_Jul_30_1550,X,
stim/negf.jpg,stim/posf.jpg,stim/3.jpg,stim/6.jpg,stim/latef.jpg,EF,1,2,,,,,0,0,0,48,,,,,,2,1,0.733073883655,,,,,,PLC_L_D1S2,P27,60.0182038806,01,A,2015_Jul_30_1550,X,
stim/posf.jpg,stim/negf.jpg,stim/4.jpg,stim/1.jpg,stim/latef.jpg,AB,1,2,,,,,0,1,1,4,,,,,,2,1,1.04959210231,,,,,,PLC_L_D1S2,P27,60.0182038806,01,A,2015_Jul_30_1550,X,
stim/posf.jpg,stim/negf.jpg,stim/3.jpg,stim/6.jpg,stim/latef.jpg,EF,1,2,,,,,0,2,2,45,,,,,,2,1,0.749754007865,,,,,,PLC_L_D1S2,P27,60.0182038806,01,A,2015_Jul_30_1550,X,
stim/posf.jpg,stim/negf.jpg,stim/3.jpg,stim/6.jpg,stim/latef.jpg,EF,1,2,,,,,0,3,3,44,,,,,,2,1,0.599803544334,,,,,,PLC_L_D1S2,P27,60.0182038806,01,A,2015_Jul_30_1550,X,
stim/negf.jpg,stim/posf.jpg,stim/5.jpg,stim/2.jpg,stim/latef.jpg,CD,1,2,,,,,0,4,4,28,,,,,,2,1,0.766445202667,,,,,,PLC_L_D1S2,P27,60.0182038806,01,A,2015_Jul_30_1550,X,
stim/posf.jpg,stim/negf.jpg,stim/3.jpg,stim/6.jpg,stim/latef.jpg,EF,1,2,,,,,0,5,5,43,,,,,,2,1,0.733101351118,,,,,,PLC_L_D1S2,P27,60.0182038806,01,A,2015_Jul_30_1550,X,
stim/posf.jpg,stim/negf.jpg,stim/2.jpg,stim/5.jpg,stim/latef.jpg,CD,2,4,,,,,0,6,6,34,,,,,,4,1,0.816402878174,,,,,,PLC_L_D1S2,P27,60.0182038806,01,A,2015_Jul_30_1550,X,
stim/posf.jpg,stim/negf.jpg,stim/6.jpg,stim/3.jpg,stim/latef.jpg,EF,2,4,,,,,0,7,7,53,,,,,,4,1,0.683076400929,,,,,,PLC_L_D1S2,P27,60.0182038806,01,A,2015_Jul_30_1550,X,
stim/posf.jpg,stim/negf.jpg,stim/4.jpg,stim/1.jpg,stim/latef.jpg,AB,1,2,,,,,0,8,8,7,,,,,,2,1,1.0829363689,,,,,,PLC_L_D1S2,P27,60.0182038806,01,A,2015_Jul_30_1550,X,
stim/posf.jpg,stim/negf.jpg,stim/3.jpg,stim/6.jpg,stim/latef.jpg,EF,1,2,,,,,0,9,9,47,,,,,,2,1,0.766391753446,,,,,,PLC_L_D1S2,P27,60.0182038806,01,A,2015_Jul_30_1550,X,
stim/negf.jpg,stim/posf.jpg,stim/5.jpg,stim/2.jpg,stim/latef.jpg,CD,1,2,,,,,0,10,10,29,,,,,,2,1,0.766426911076,,,,,,PLC_L_D1S2,P27,60.0182038806,01,A,2015_Jul_30_1550,X,
stim/posf.jpg,stim/negf.jpg,stim/3.jpg,stim/6.jpg,stim/latef.jpg,EF,1,2,,,,,0,11,11,46,,,,,,2,1,0.733080879091,,,,,,PLC_L_D1S2,P27,60.0182038806,01,A,2015_Jul_30_1550,X,
stim/posf.jpg,stim/negf.jpg,stim/5.jpg,stim/2.jpg,stim/latef.jpg,CD,1,2,,,,,0,12,12,22,,,,,,2,1,0.93303792603,,,,,,PLC_L_D1S2,P27,60.0182038806,01,A,2015_Jul_30_1550,X,
stim/posf.jpg,stim/negf.jpg,stim/4.jpg,stim/1.jpg,stim/latef.jpg,AB,1,2,,,,,0,13,13,0,,,,,,2,1,0.93304263577,,,,,,PLC_L_D1S2,P27,60.0182038806,01,A,2015_Jul_30_1550,X,
stim/negf.jpg,stim/posf.jpg,stim/3.jpg,stim/6.jpg,stim/latef.jpg,EF,1,2,,,,,0,14,14,49,,,,,,2,1,0.766422496071,,,,,,PLC_L_D1S2,P27,60.0182038806,01,A,2015_Jul_30_1550,X,
stim/posf.jpg,stim/negf.jpg,stim/5.jpg,stim/2.jpg,stim/latef.jpg,CD,1,2,,,,,0,15,15,21,,,,,,2,1,0.549779664815,,,,,,PLC_L_D1S2,P27,60.0182038806,01,A,2015_Jul_30_1550,X,
stim/posf.jpg,stim/negf.jpg,stim/6.jpg,stim/3.jpg,stim/latef.jpg,EF,2,4,,,,,0,16,16,57,,,,,,4,1,0.916361822843,,,,,,PLC_L_D1S2,P27,60.0182038806,01,A,2015_Jul_30_1550,X,
stim/posf.jpg,stim/negf.jpg,stim/1.jpg,stim/4.jpg,stim/latef.jpg,AB,2,4,,,,,0,17,17,10,,,,,,4,1,0.683145988376,,,,,,PLC_L_D1S2,P27,60.0182038806,01,A,2015_Jul_30_1550,X,
stim/posf.jpg,stim/negf.jpg,stim/6.jpg,stim/3.jpg,stim/latef.jpg,EF,2,4,,,,,0,18,18,52,,,,,,4,1,0.649784684326,,,,,,PLC_L_D1S2,P27,60.0182038806,01,A,2015_Jul_30_1550,X,
stim/posf.jpg,stim/negf.jpg,stim/1.jpg,stim/4.jpg,stim/latef.jpg,AB,2,4,,,,,0,19,19,17,,,,,,4,1,0.683105161615,,,,,,PLC_L_D1S2,P27,60.0182038806,01,A,2015_Jul_30_1550,X,
stim/posf.jpg,stim/negf.jpg,stim/3.jpg,stim/6.jpg,stim/latef.jpg,EF,1,2,,,,,0,20,20,42,,,,,,2,1,0.883025108082,,,,,,PLC_L_D1S2,P27,60.0182038806,01,A,2015_Jul_30_1550,X,
stim/posf.jpg,stim/negf.jpg,stim/4.jpg,stim/1.jpg,stim/latef.jpg,AB,1,2,,,,,0,21,21,1,,,,,,2,1,0.783133850121,,,,,,PLC_L_D1S2,P27,60.0182038806,01,A,2015_Jul_30_1550,X,
stim/posf.jpg,stim/negf.jpg,stim/5.jpg,stim/2.jpg,stim/latef.jpg,CD,1,2,,,,,0,22,22,20,,,,,,2,1,1.11628814821,,,,,,PLC_L_D1S2,P27,60.0182038806,01,A,2015_Jul_30_1550,X,
stim/posf.jpg,stim/negf.jpg,stim/4.jpg,stim/1.jpg,stim/latef.jpg,AB,1,2,,,,,0,23,23,5,,,,,,2,1,0.899696089503,,,,,,PLC_L_D1S2,P27,60.0182038806,01,A,2015_Jul_30_1550,X,
stim/posf.jpg,stim/negf.jpg,stim/4.jpg,stim/1.jpg,stim/latef.jpg,AB,1,2,,,,,0,24,24,8,,,,,,2,1,0.8164015248,,,,,,PLC_L_D1S2,P27,60.0182038806,01,A,2015_Jul_30_1550,X,
stim/negf.jpg,stim/posf.jpg,stim/4.jpg,stim/1.jpg,stim/latef.jpg,AB,1,2,,,,,0,25,25,9,,,,,,2,1,0.66648086255,,,,,,PLC_L_D1S2,P27,60.0182038806,01,A,2015_Jul_30_1550,X,
stim/negf.jpg,stim/posf.jpg,stim/2.jpg,stim/5.jpg,stim/latef.jpg,CD,2,4,,,,,0,26,26,39,,,,,,4,1,1.59949434967,,,,,,PLC_L_D1S2,P27,60.0182038806,01,A,2015_Jul_30_1550,X,
stim/posf.jpg,stim/negf.jpg,stim/5.jpg,stim/2.jpg,stim/latef.jpg,CD,1,2,,,,,0,27,27,27,,,,,,2,1,0.933014822445,,,,,,PLC_L_D1S2,P27,60.0182038806,01,A,2015_Jul_30_1550,X,
stim/posf.jpg,stim/negf.jpg,stim/5.jpg,stim/2.jpg,stim/latef.jpg,CD,1,2,,,,,0,28,28,26,,,,,,2,1,0.866380006165,,,,,,PLC_L_D1S2,P27,60.0182038806,01,A,2015_Jul_30_1550,X,
stim/posf.jpg,stim/negf.jpg,stim/2.jpg,stim/5.jpg,stim/latef.jpg,CD,2,4,,,,,0,29,29,33,,,,,,4,1,0.816349949249,,,,,,PLC_L_D1S2,P27,60.0182038806,01,A,2015_Jul_30_1550,X,
stim/posf.jpg,stim/negf.jpg,stim/5.jpg,stim/2.jpg,stim/latef.jpg,CD,1,2,,,,,0,30,30,24,,,,,,2,1,0.783073522755,,,,,,PLC_L_D1S2,P27,60.0182038806,01,A,2015_Jul_30_1550,X,
stim/posf.jpg,stim/negf.jpg,stim/1.jpg,stim/4.jpg,stim/latef.jpg,AB,2,4,,,,,0,31,31,12,,,,,,4,1,0.999687045962,,,,,,PLC_L_D1S2,P27,60.0182038806,01,A,2015_Jul_30_1550,X,
stim/posf.jpg,stim/negf.jpg,stim/2.jpg,stim/5.jpg,stim/latef.jpg,CD,2,4,,,,,0,32,32,31,,,,,,4,1,0.683082662536,,,,,,PLC_L_D1S2,P27,60.0182038806,01,A,2015_Jul_30_1550,X,
stim/posf.jpg,stim/negf.jpg,stim/1.jpg,stim/4.jpg,stim/latef.jpg,AB,2,4,,,,,0,33,33,18,,,,,,4,1,0.683115483343,,,,,,PLC_L_D1S2,P27,60.0182038806,01,A,2015_Jul_30_1550,X,
stim/posf.jpg,stim/negf.jpg,stim/1.jpg,stim/4.jpg,stim/latef.jpg,AB,2,4,,,,,0,34,34,11,,,,,,4,1,0.533163858918,,,,,,PLC_L_D1S2,P27,60.0182038806,01,A,2015_Jul_30_1550,X,
stim/posf.jpg,stim/negf.jpg,stim/2.jpg,stim/5.jpg,stim/latef.jpg,CD,2,4,,,,,0,35,35,37,,,,,,4,1,0.716433112533,,,,,,PLC_L_D1S2,P27,60.0182038806,01,A,2015_Jul_30_1550,X,
stim/posf.jpg,stim/negf.jpg,stim/1.jpg,stim/4.jpg,stim/latef.jpg,AB,2,4,,,,,0,36,36,15,,,,,,4,1,0.599728504297,,,,,,PLC_L_D1S2,P27,60.0182038806,01,A,2015_Jul_30_1550,X,
stim/posf.jpg,stim/negf.jpg,stim/4.jpg,stim/1.jpg,stim/latef.jpg,AB,1,2,,,,,0,37,37,3,,,,,,2,1,0.699781096383,,,,,,PLC_L_D1S2,P27,60.0182038806,01,A,2015_Jul_30_1550,X,
stim/posf.jpg,stim/negf.jpg,stim/6.jpg,stim/3.jpg,stim/latef.jpg,EF,2,4,,,,,0,38,38,56,,,,,,4,1,0.983015186352,,,,,,PLC_L_D1S2,P27,60.0182038806,01,A,2015_Jul_30_1550,X,
stim/posf.jpg,stim/negf.jpg,stim/1.jpg,stim/4.jpg,stim/latef.jpg,AB,2,4,,,,,0,39,39,16,,,,,,4,1,0.649786497846,,,,,,PLC_L_D1S2,P27,60.0182038806,01,A,2015_Jul_30_1550,X,
stim/posf.jpg,stim/negf.jpg,stim/2.jpg,stim/5.jpg,stim/latef.jpg,CD,2,4,,,,,0,40,40,35,,,,,,4,1,0.616474065609,,,,,,PLC_L_D1S2,P27,60.0182038806,01,A,2015_Jul_30_1550,X,
stim/posf.jpg,stim/negf.jpg,stim/4.jpg,stim/1.jpg,stim/latef.jpg,AB,1,2,,,,,0,41,41,6,,,,,,2,1,0.64980322554,,,,,,PLC_L_D1S2,P27,60.0182038806,01,A,2015_Jul_30_1550,X,
stim/posf.jpg,stim/negf.jpg,stim/3.jpg,stim/6.jpg,stim/latef.jpg,EF,1,2,,,,,0,42,42,40,,,,,,2,1,1.11629747446,,,,,,PLC_L_D1S2,P27,60.0182038806,01,A,2015_Jul_30_1550,X,
stim/posf.jpg,stim/negf.jpg,stim/2.jpg,stim/5.jpg,stim/latef.jpg,CD,2,4,,,,,0,43,43,30,,,,,,4,1,0.799689836919,,,,,,PLC_L_D1S2,P27,60.0182038806,01,A,2015_Jul_30_1550,X,
stim/posf.jpg,stim/negf.jpg,stim/6.jpg,stim/3.jpg,stim/latef.jpg,EF,2,4,,,,,0,44,44,51,,,,,,4,1,0.699770500974,,,,,,PLC_L_D1S2,P27,60.0182038806,01,A,2015_Jul_30_1550,X,
stim/posf.jpg,stim/negf.jpg,stim/2.jpg,stim/5.jpg,stim/latef.jpg,CD,2,4,,,,,0,45,45,32,,,,,,4,1,0.649799721807,,,,,,PLC_L_D1S2,P27,60.0182038806,01,A,2015_Jul_30_1550,X,
stim/posf.jpg,stim/negf.jpg,stim/6.jpg,stim/3.jpg,stim/latef.jpg,EF,2,4,,,,,0,46,46,54,,,,,,4,1,0.816402327802,,,,,,PLC_L_D1S2,P27,60.0182038806,01,A,2015_Jul_30_1550,X,
stim/posf.jpg,stim/negf.jpg,stim/5.jpg,stim/2.jpg,stim/latef.jpg,CD,1,2,,,,,0,47,47,25,,,,,,2,1,1.04965827926,,,,,,PLC_L_D1S2,P27,60.0182038806,01,A,2015_Jul_30_1550,X,
stim/posf.jpg,stim/negf.jpg,stim/1.jpg,stim/4.jpg,stim/latef.jpg,AB,2,4,,,,,0,48,48,13,,,,,,4,1,0.616452907873,,,,,,PLC_L_D1S2,P27,60.0182038806,01,A,2015_Jul_30_1550,X,
stim/negf.jpg,stim/posf.jpg,stim/6.jpg,stim/3.jpg,stim/latef.jpg,EF,2,4,,,,,0,49,49,58,,,,,,4,1,0.749748083097,,,,,,PLC_L_D1S2,P27,60.0182038806,01,A,2015_Jul_30_1550,X,
stim/posf.jpg,stim/negf.jpg,stim/3.jpg,stim/6.jpg,stim/latef.jpg,EF,1,2,,,,,0,50,50,41,,,,,,2,1,0.783087817385,,,,,,PLC_L_D1S2,P27,60.0182038806,01,A,2015_Jul_30_1550,X,
stim/negf.jpg,stim/posf.jpg,stim/1.jpg,stim/4.jpg,stim/latef.jpg,AB,2,4,,,,,0,51,51,19,,,,,,4,1,0.716415563793,,,,,,PLC_L_D1S2,P27,60.0182038806,01,A,2015_Jul_30_1550,X,
stim/posf.jpg,stim/negf.jpg,stim/5.jpg,stim/2.jpg,stim/latef.jpg,CD,1,2,,,,,0,52,52,23,,,,,,2,1,0.583151642469,,,,,,PLC_L_D1S2,P27,60.0182038806,01,A,2015_Jul_30_1550,X,
stim/negf.jpg,stim/posf.jpg,stim/6.jpg,stim/3.jpg,stim/latef.jpg,EF,2,4,,,,,0,53,53,59,,,,,,4,1,0.483186153488,,,,,,PLC_L_D1S2,P27,60.0182038806,01,A,2015_Jul_30_1550,X,
stim/posf.jpg,stim/negf.jpg,stim/4.jpg,stim/1.jpg,stim/latef.jpg,AB,1,2,,,,,0,54,54,2,,,,,,2,1,0.983022046451,,,,,,PLC_L_D1S2,P27,60.0182038806,01,A,2015_Jul_30_1550,X,
stim/negf.jpg,stim/posf.jpg,stim/2.jpg,stim/5.jpg,stim/latef.jpg,CD,2,4,,,,,0,55,55,38,,,,,,4,1,0.666408781889,,,,,,PLC_L_D1S2,P27,60.0182038806,01,A,2015_Jul_30_1550,X,
stim/posf.jpg,stim/negf.jpg,stim/6.jpg,stim/3.jpg,stim/latef.jpg,EF,2,4,,,,,0,56,56,50,,,,,,4,1,0.966346192886,,,,,,PLC_L_D1S2,P27,60.0182038806,01,A,2015_Jul_30_1550,X,
stim/posf.jpg,stim/negf.jpg,stim/6.jpg,stim/3.jpg,stim/latef.jpg,EF,2,4,,,,,0,57,57,55,,,,,,4,1,0.633095143646,,,,,,PLC_L_D1S2,P27,60.0182038806,01,A,2015_Jul_30_1550,X,
stim/posf.jpg,stim/negf.jpg,stim/1.jpg,stim/4.jpg,stim/latef.jpg,AB,2,4,,,,,0,58,58,14,,,,,,4,1,0.783081098638,,,,,,PLC_L_D1S2,P27,60.0182038806,01,A,2015_Jul_30_1550,X,
stim/posf.jpg,stim/negf.jpg,stim/2.jpg,stim/5.jpg,stim/latef.jpg,CD,2,4,,,,,0,59,59,36,,,,,,4,1,0.899711743521,,,,,,PLC_L_D1S2,P27,60.0182038806,01,A,2015_Jul_30_1550,X,
