fb_corr,fb_incorr,symbol2,symbol1,fb_late,pair,position,correct,block_01.thisRepN,block_01.thisTrialN,block_01.thisN,block_01.thisIndex,block_02.thisRepN,block_02.thisTrialN,block_02.thisN,block_02.thisIndex,mouse.x,mouse.y,mouse.leftButton,mouse.midButton,mouse.rightButton,buttonBox_2.keys,buttonBox_2.corr,buttonBox_2.rt,mouse_2.x,mouse_2.y,mouse_2.leftButton,mouse_2.midButton,mouse_2.rightButton,expName,Participant,frameRate,SessionNumber,Version,date,Group,
,,,,,,,,,,,,,,,,0.99375,1.0,1,0,0,,,,,,,,,PLC_L_D1S2,P29,60.023484894,01,B,2015_Aug_05_1657,X,
stim/posf.jpg,stim/negf.jpg,stim/4.jpg,stim/2.jpg,stim/latef.jpg,CD,2,4,0,0,0,33,,,,,,,,,,4,1,1.34958072503,,,,,,PLC_L_D1S2,P29,60.023484894,01,B,2015_Aug_05_1657,X,
stim/posf.jpg,stim/negf.jpg,stim/2.jpg,stim/4.jpg,stim/latef.jpg,CD,1,2,0,1,1,20,,,,,,,,,,2,1,0.866338235282,,,,,,PLC_L_D1S2,P29,60.023484894,01,B,2015_Aug_05_1657,X,
stim/posf.jpg,stim/negf.jpg,stim/6.jpg,stim/1.jpg,stim/latef.jpg,AB,1,2,0,2,2,0,,,,,,,,,,4,0,1.08296299816,,,,,,PLC_L_D1S2,P29,60.023484894,01,B,2015_Aug_05_1657,X,
stim/negf.jpg,stim/posf.jpg,stim/4.jpg,stim/2.jpg,stim/latef.jpg,CD,2,4,0,3,3,39,,,,,,,,,,4,1,0.966345865272,,,,,,PLC_L_D1S2,P29,60.023484894,01,B,2015_Aug_05_1657,X,
stim/posf.jpg,stim/negf.jpg,stim/3.jpg,stim/5.jpg,stim/latef.jpg,EF,2,4,0,4,4,51,,,,,,,,,,2,0,1.26626137299,,,,,,PLC_L_D1S2,P29,60.023484894,01,B,2015_Aug_05_1657,X,
stim/posf.jpg,stim/negf.jpg,stim/4.jpg,stim/2.jpg,stim/latef.jpg,CD,2,4,0,5,5,37,,,,,,,,,,4,1,0.783136142073,,,,,,PLC_L_D1S2,P29,60.023484894,01,B,2015_Aug_05_1657,X,
stim/posf.jpg,stim/negf.jpg,stim/2.jpg,stim/4.jpg,stim/latef.jpg,CD,1,2,0,6,6,22,,,,,,,,,,2,1,1.0495877836,,,,,,PLC_L_D1S2,P29,60.023484894,01,B,2015_Aug_05_1657,X,
stim/posf.jpg,stim/negf.jpg,stim/3.jpg,stim/5.jpg,stim/latef.jpg,EF,2,4,0,7,7,50,,,,,,,,,,2,0,1.01630368379,,,,,,PLC_L_D1S2,P29,60.023484894,01,B,2015_Aug_05_1657,X,
stim/negf.jpg,stim/posf.jpg,stim/2.jpg,stim/4.jpg,stim/latef.jpg,CD,1,2,0,8,8,29,,,,,,,,,,2,1,0.683082948689,,,,,,PLC_L_D1S2,P29,60.023484894,01,B,2015_Aug_05_1657,X,
stim/posf.jpg,stim/negf.jpg,stim/5.jpg,stim/3.jpg,stim/latef.jpg,EF,1,2,0,9,9,40,,,,,,,,,,2,1,1.13295069304,,,,,,PLC_L_D1S2,P29,60.023484894,01,B,2015_Aug_05_1657,X,
stim/posf.jpg,stim/negf.jpg,stim/6.jpg,stim/1.jpg,stim/latef.jpg,AB,1,2,0,10,10,7,,,,,,,,,,2,1,1.51615463585,,,,,,PLC_L_D1S2,P29,60.023484894,01,B,2015_Aug_05_1657,X,
stim/negf.jpg,stim/posf.jpg,stim/3.jpg,stim/5.jpg,stim/latef.jpg,EF,2,4,0,11,11,59,,,,,,,,,,4,1,1.18293811423,,,,,,PLC_L_D1S2,P29,60.023484894,01,B,2015_Aug_05_1657,X,
stim/posf.jpg,stim/negf.jpg,stim/6.jpg,stim/1.jpg,stim/latef.jpg,AB,1,2,0,12,12,6,,,,,,,,,,2,1,1.13294513821,,,,,,PLC_L_D1S2,P29,60.023484894,01,B,2015_Aug_05_1657,X,
stim/posf.jpg,stim/negf.jpg,stim/1.jpg,stim/6.jpg,stim/latef.jpg,AB,2,4,0,13,13,11,,,,,,,,,,4,1,1.2662430123,,,,,,PLC_L_D1S2,P29,60.023484894,01,B,2015_Aug_05_1657,X,
stim/posf.jpg,stim/negf.jpg,stim/2.jpg,stim/4.jpg,stim/latef.jpg,CD,1,2,0,14,14,25,,,,,,,,,,2,1,0.849688224569,,,,,,PLC_L_D1S2,P29,60.023484894,01,B,2015_Aug_05_1657,X,
stim/posf.jpg,stim/negf.jpg,stim/1.jpg,stim/6.jpg,stim/latef.jpg,AB,2,4,0,15,15,16,,,,,,,,,,4,1,1.04965766552,,,,,,PLC_L_D1S2,P29,60.023484894,01,B,2015_Aug_05_1657,X,
stim/posf.jpg,stim/negf.jpg,stim/3.jpg,stim/5.jpg,stim/latef.jpg,EF,2,4,0,16,16,54,,,,,,,,,,4,1,1.23292983011,,,,,,PLC_L_D1S2,P29,60.023484894,01,B,2015_Aug_05_1657,X,
stim/posf.jpg,stim/negf.jpg,stim/2.jpg,stim/4.jpg,stim/latef.jpg,CD,1,2,0,17,17,26,,,,,,,,,,2,1,1.31622335387,,,,,,PLC_L_D1S2,P29,60.023484894,01,B,2015_Aug_05_1657,X,
stim/posf.jpg,stim/negf.jpg,stim/6.jpg,stim/1.jpg,stim/latef.jpg,AB,1,2,0,18,18,5,,,,,,,,,,2,1,1.31623028612,,,,,,PLC_L_D1S2,P29,60.023484894,01,B,2015_Aug_05_1657,X,
stim/posf.jpg,stim/negf.jpg,stim/1.jpg,stim/6.jpg,stim/latef.jpg,AB,2,4,0,19,19,12,,,,,,,,,,4,1,0.999711576185,,,,,,PLC_L_D1S2,P29,60.023484894,01,B,2015_Aug_05_1657,X,
stim/posf.jpg,stim/negf.jpg,stim/6.jpg,stim/1.jpg,stim/latef.jpg,AB,1,2,0,20,20,4,,,,,,,,,,2,1,1.06626641955,,,,,,PLC_L_D1S2,P29,60.023484894,01,B,2015_Aug_05_1657,X,
stim/posf.jpg,stim/negf.jpg,stim/5.jpg,stim/3.jpg,stim/latef.jpg,EF,1,2,0,21,21,41,,,,,,,,,,2,1,1.18293071281,,,,,,PLC_L_D1S2,P29,60.023484894,01,B,2015_Aug_05_1657,X,
stim/negf.jpg,stim/posf.jpg,stim/4.jpg,stim/2.jpg,stim/latef.jpg,CD,2,4,0,22,22,38,,,,,,,,,,4,1,0.783028275621,,,,,,PLC_L_D1S2,P29,60.023484894,01,B,2015_Aug_05_1657,X,
stim/negf.jpg,stim/posf.jpg,stim/5.jpg,stim/3.jpg,stim/latef.jpg,EF,1,2,0,23,23,49,,,,,,,,,,2,1,0.966328824863,,,,,,PLC_L_D1S2,P29,60.023484894,01,B,2015_Aug_05_1657,X,
stim/negf.jpg,stim/posf.jpg,stim/6.jpg,stim/1.jpg,stim/latef.jpg,AB,1,2,0,24,24,9,,,,,,,,,,2,1,0.883074846524,,,,,,PLC_L_D1S2,P29,60.023484894,01,B,2015_Aug_05_1657,X,
stim/posf.jpg,stim/negf.jpg,stim/4.jpg,stim/2.jpg,stim/latef.jpg,CD,2,4,0,25,25,30,,,,,,,,,,4,1,0.633121079086,,,,,,PLC_L_D1S2,P29,60.023484894,01,B,2015_Aug_05_1657,X,
stim/posf.jpg,stim/negf.jpg,stim/2.jpg,stim/4.jpg,stim/latef.jpg,CD,1,2,0,26,26,21,,,,,,,,,,2,1,0.699797256422,,,,,,PLC_L_D1S2,P29,60.023484894,01,B,2015_Aug_05_1657,X,
stim/posf.jpg,stim/negf.jpg,stim/5.jpg,stim/3.jpg,stim/latef.jpg,EF,1,2,0,27,27,42,,,,,,,,,,2,1,1.33285451969,,,,,,PLC_L_D1S2,P29,60.023484894,01,B,2015_Aug_05_1657,X,
stim/negf.jpg,stim/posf.jpg,stim/5.jpg,stim/3.jpg,stim/latef.jpg,EF,1,2,0,28,28,48,,,,,,,,,,2,1,1.04960590971,,,,,,PLC_L_D1S2,P29,60.023484894,01,B,2015_Aug_05_1657,X,
stim/posf.jpg,stim/negf.jpg,stim/3.jpg,stim/5.jpg,stim/latef.jpg,EF,2,4,0,29,29,55,,,,,,,,,,4,1,0.932959751582,,,,,,PLC_L_D1S2,P29,60.023484894,01,B,2015_Aug_05_1657,X,
stim/posf.jpg,stim/negf.jpg,stim/3.jpg,stim/5.jpg,stim/latef.jpg,EF,2,4,0,30,30,56,,,,,,,,,,4,1,0.966294807201,,,,,,PLC_L_D1S2,P29,60.023484894,01,B,2015_Aug_05_1657,X,
stim/posf.jpg,stim/negf.jpg,stim/4.jpg,stim/2.jpg,stim/latef.jpg,CD,2,4,0,31,31,32,,,,,,,,,,4,1,0.933044430326,,,,,,PLC_L_D1S2,P29,60.023484894,01,B,2015_Aug_05_1657,X,
stim/posf.jpg,stim/negf.jpg,stim/6.jpg,stim/1.jpg,stim/latef.jpg,AB,1,2,0,32,32,8,,,,,,,,,,2,1,0.933030496649,,,,,,PLC_L_D1S2,P29,60.023484894,01,B,2015_Aug_05_1657,X,
stim/posf.jpg,stim/negf.jpg,stim/1.jpg,stim/6.jpg,stim/latef.jpg,AB,2,4,0,33,33,10,,,,,,,,,,4,1,0.666440098796,,,,,,PLC_L_D1S2,P29,60.023484894,01,B,2015_Aug_05_1657,X,
stim/posf.jpg,stim/negf.jpg,stim/4.jpg,stim/2.jpg,stim/latef.jpg,CD,2,4,0,34,34,36,,,,,,,,,,4,1,0.799682117871,,,,,,PLC_L_D1S2,P29,60.023484894,01,B,2015_Aug_05_1657,X,
stim/posf.jpg,stim/negf.jpg,stim/1.jpg,stim/6.jpg,stim/latef.jpg,AB,2,4,0,35,35,15,,,,,,,,,,4,1,1.44947663297,,,,,,PLC_L_D1S2,P29,60.023484894,01,B,2015_Aug_05_1657,X,
stim/posf.jpg,stim/negf.jpg,stim/4.jpg,stim/2.jpg,stim/latef.jpg,CD,2,4,0,36,36,34,,,,,,,,,,4,1,0.899693350827,,,,,,PLC_L_D1S2,P29,60.023484894,01,B,2015_Aug_05_1657,X,
stim/posf.jpg,stim/negf.jpg,stim/5.jpg,stim/3.jpg,stim/latef.jpg,EF,1,2,0,37,37,46,,,,,,,,,,2,1,1.01628416522,,,,,,PLC_L_D1S2,P29,60.023484894,01,B,2015_Aug_05_1657,X,
stim/posf.jpg,stim/negf.jpg,stim/1.jpg,stim/6.jpg,stim/latef.jpg,AB,2,4,0,38,38,18,,,,,,,,,,4,1,0.949697998895,,,,,,PLC_L_D1S2,P29,60.023484894,01,B,2015_Aug_05_1657,X,
stim/posf.jpg,stim/negf.jpg,stim/2.jpg,stim/4.jpg,stim/latef.jpg,CD,1,2,0,39,39,23,,,,,,,,,,2,1,0.64974936373,,,,,,PLC_L_D1S2,P29,60.023484894,01,B,2015_Aug_05_1657,X,
stim/posf.jpg,stim/negf.jpg,stim/4.jpg,stim/2.jpg,stim/latef.jpg,CD,2,4,0,40,40,35,,,,,,,,,,4,1,0.649787218941,,,,,,PLC_L_D1S2,P29,60.023484894,01,B,2015_Aug_05_1657,X,
stim/posf.jpg,stim/negf.jpg,stim/3.jpg,stim/5.jpg,stim/latef.jpg,EF,2,4,0,41,41,52,,,,,,,,,,4,1,1.08296085683,,,,,,PLC_L_D1S2,P29,60.023484894,01,B,2015_Aug_05_1657,X,
stim/posf.jpg,stim/negf.jpg,stim/1.jpg,stim/6.jpg,stim/latef.jpg,AB,2,4,0,42,42,13,,,,,,,,,,4,1,0.666380099473,,,,,,PLC_L_D1S2,P29,60.023484894,01,B,2015_Aug_05_1657,X,
stim/posf.jpg,stim/negf.jpg,stim/3.jpg,stim/5.jpg,stim/latef.jpg,EF,2,4,0,43,43,53,,,,,,,,,,4,1,0.683081844942,,,,,,PLC_L_D1S2,P29,60.023484894,01,B,2015_Aug_05_1657,X,
stim/negf.jpg,stim/posf.jpg,stim/1.jpg,stim/6.jpg,stim/latef.jpg,AB,2,4,0,44,44,19,,,,,,,,,,4,1,0.66642148848,,,,,,PLC_L_D1S2,P29,60.023484894,01,B,2015_Aug_05_1657,X,
stim/posf.jpg,stim/negf.jpg,stim/5.jpg,stim/3.jpg,stim/latef.jpg,EF,1,2,0,45,45,44,,,,,,,,,,2,1,0.766452330236,,,,,,PLC_L_D1S2,P29,60.023484894,01,B,2015_Aug_05_1657,X,
stim/negf.jpg,stim/posf.jpg,stim/3.jpg,stim/5.jpg,stim/latef.jpg,EF,2,4,0,46,46,58,,,,,,,,,,4,1,0.899680427665,,,,,,PLC_L_D1S2,P29,60.023484894,01,B,2015_Aug_05_1657,X,
stim/posf.jpg,stim/negf.jpg,stim/5.jpg,stim/3.jpg,stim/latef.jpg,EF,1,2,0,47,47,47,,,,,,,,,,2,1,0.666440059698,,,,,,PLC_L_D1S2,P29,60.023484894,01,B,2015_Aug_05_1657,X,
stim/posf.jpg,stim/negf.jpg,stim/3.jpg,stim/5.jpg,stim/latef.jpg,EF,2,4,0,48,48,57,,,,,,,,,,4,1,0.66647364729,,,,,,PLC_L_D1S2,P29,60.023484894,01,B,2015_Aug_05_1657,X,
stim/posf.jpg,stim/negf.jpg,stim/2.jpg,stim/4.jpg,stim/latef.jpg,CD,1,2,0,49,49,27,,,,,,,,,,2,1,0.766374213825,,,,,,PLC_L_D1S2,P29,60.023484894,01,B,2015_Aug_05_1657,X,
stim/negf.jpg,stim/posf.jpg,stim/2.jpg,stim/4.jpg,stim/latef.jpg,CD,1,2,0,50,50,28,,,,,,,,,,2,1,0.81640274433,,,,,,PLC_L_D1S2,P29,60.023484894,01,B,2015_Aug_05_1657,X,
stim/posf.jpg,stim/negf.jpg,stim/6.jpg,stim/1.jpg,stim/latef.jpg,AB,1,2,0,51,51,1,,,,,,,,,,2,1,0.833027459089,,,,,,PLC_L_D1S2,P29,60.023484894,01,B,2015_Aug_05_1657,X,
stim/posf.jpg,stim/negf.jpg,stim/6.jpg,stim/1.jpg,stim/latef.jpg,AB,1,2,0,52,52,2,,,,,,,,,,2,1,1.14961971406,,,,,,PLC_L_D1S2,P29,60.023484894,01,B,2015_Aug_05_1657,X,
stim/posf.jpg,stim/negf.jpg,stim/5.jpg,stim/3.jpg,stim/latef.jpg,EF,1,2,0,53,53,45,,,,,,,,,,2,1,0.683106740902,,,,,,PLC_L_D1S2,P29,60.023484894,01,B,2015_Aug_05_1657,X,
stim/posf.jpg,stim/negf.jpg,stim/1.jpg,stim/6.jpg,stim/latef.jpg,AB,2,4,0,54,54,17,,,,,,,,,,4,1,0.866376255907,,,,,,PLC_L_D1S2,P29,60.023484894,01,B,2015_Aug_05_1657,X,
stim/posf.jpg,stim/negf.jpg,stim/4.jpg,stim/2.jpg,stim/latef.jpg,CD,2,4,0,55,55,31,,,,,,,,,,4,1,0.666452970831,,,,,,PLC_L_D1S2,P29,60.023484894,01,B,2015_Aug_05_1657,X,
stim/posf.jpg,stim/negf.jpg,stim/6.jpg,stim/1.jpg,stim/latef.jpg,AB,1,2,0,56,56,3,,,,,,,,,,2,1,0.733092477904,,,,,,PLC_L_D1S2,P29,60.023484894,01,B,2015_Aug_05_1657,X,
stim/posf.jpg,stim/negf.jpg,stim/2.jpg,stim/4.jpg,stim/latef.jpg,CD,1,2,0,57,57,24,,,,,,,,,,2,1,0.816370558227,,,,,,PLC_L_D1S2,P29,60.023484894,01,B,2015_Aug_05_1657,X,
stim/posf.jpg,stim/negf.jpg,stim/1.jpg,stim/6.jpg,stim/latef.jpg,AB,2,4,0,58,58,14,,,,,,,,,,4,1,0.716423062898,,,,,,PLC_L_D1S2,P29,60.023484894,01,B,2015_Aug_05_1657,X,
stim/posf.jpg,stim/negf.jpg,stim/5.jpg,stim/3.jpg,stim/latef.jpg,EF,1,2,0,59,59,43,,,,,,,,,,2,1,1.23291997158,,,,,,PLC_L_D1S2,P29,60.023484894,01,B,2015_Aug_05_1657,X,
,,,,,,,,,,,,,,,,,,,,,,,,0.99375,1.0,1,0,0,PLC_L_D1S2,P29,60.023484894,01,B,2015_Aug_05_1657,X,
stim/posf.jpg,stim/negf.jpg,stim/4.jpg,stim/2.jpg,stim/latef.jpg,CD,2,4,,,,,0,0,0,31,,,,,,4,1,0.766412324673,,,,,,PLC_L_D1S2,P29,60.023484894,01,B,2015_Aug_05_1657,X,
stim/posf.jpg,stim/negf.jpg,stim/3.jpg,stim/5.jpg,stim/latef.jpg,EF,2,4,,,,,0,1,1,53,,,,,,4,1,1.0496497829,,,,,,PLC_L_D1S2,P29,60.023484894,01,B,2015_Aug_05_1657,X,
stim/negf.jpg,stim/posf.jpg,stim/2.jpg,stim/4.jpg,stim/latef.jpg,CD,1,2,,,,,0,2,2,29,,,,,,2,1,0.699818811067,,,,,,PLC_L_D1S2,P29,60.023484894,01,B,2015_Aug_05_1657,X,
stim/negf.jpg,stim/posf.jpg,stim/4.jpg,stim/2.jpg,stim/latef.jpg,CD,2,4,,,,,0,3,3,38,,,,,,4,1,0.633124928666,,,,,,PLC_L_D1S2,P29,60.023484894,01,B,2015_Aug_05_1657,X,
stim/posf.jpg,stim/negf.jpg,stim/5.jpg,stim/3.jpg,stim/latef.jpg,EF,1,2,,,,,0,4,4,42,,,,,,2,1,0.649788175321,,,,,,PLC_L_D1S2,P29,60.023484894,01,B,2015_Aug_05_1657,X,
stim/posf.jpg,stim/negf.jpg,stim/5.jpg,stim/3.jpg,stim/latef.jpg,EF,1,2,,,,,0,5,5,47,,,,,,2,1,0.71646236471,,,,,,PLC_L_D1S2,P29,60.023484894,01,B,2015_Aug_05_1657,X,
stim/posf.jpg,stim/negf.jpg,stim/1.jpg,stim/6.jpg,stim/latef.jpg,AB,2,4,,,,,0,6,6,11,,,,,,4,1,0.616460187291,,,,,,PLC_L_D1S2,P29,60.023484894,01,B,2015_Aug_05_1657,X,
stim/posf.jpg,stim/negf.jpg,stim/3.jpg,stim/5.jpg,stim/latef.jpg,EF,2,4,,,,,0,7,7,57,,,,,,4,1,0.816407580365,,,,,,PLC_L_D1S2,P29,60.023484894,01,B,2015_Aug_05_1657,X,
stim/posf.jpg,stim/negf.jpg,stim/2.jpg,stim/4.jpg,stim/latef.jpg,CD,1,2,,,,,0,8,8,26,,,,,,2,1,0.61646873757,,,,,,PLC_L_D1S2,P29,60.023484894,01,B,2015_Aug_05_1657,X,
stim/posf.jpg,stim/negf.jpg,stim/3.jpg,stim/5.jpg,stim/latef.jpg,EF,2,4,,,,,0,9,9,56,,,,,,4,1,1.23298295433,,,,,,PLC_L_D1S2,P29,60.023484894,01,B,2015_Aug_05_1657,X,
stim/posf.jpg,stim/negf.jpg,stim/5.jpg,stim/3.jpg,stim/latef.jpg,EF,1,2,,,,,0,10,10,41,,,,,,2,1,0.866389194107,,,,,,PLC_L_D1S2,P29,60.023484894,01,B,2015_Aug_05_1657,X,
stim/posf.jpg,stim/negf.jpg,stim/5.jpg,stim/3.jpg,stim/latef.jpg,EF,1,2,,,,,0,11,11,44,,,,,,2,1,1.06629484329,,,,,,PLC_L_D1S2,P29,60.023484894,01,B,2015_Aug_05_1657,X,
stim/posf.jpg,stim/negf.jpg,stim/5.jpg,stim/3.jpg,stim/latef.jpg,EF,1,2,,,,,0,12,12,45,,,,,,2,1,1.2829142348,,,,,,PLC_L_D1S2,P29,60.023484894,01,B,2015_Aug_05_1657,X,
stim/posf.jpg,stim/negf.jpg,stim/4.jpg,stim/2.jpg,stim/latef.jpg,CD,2,4,,,,,0,13,13,37,,,,,,4,1,1.11628287501,,,,,,PLC_L_D1S2,P29,60.023484894,01,B,2015_Aug_05_1657,X,
stim/posf.jpg,stim/negf.jpg,stim/5.jpg,stim/3.jpg,stim/latef.jpg,EF,1,2,,,,,0,14,14,40,,,,,,2,1,1.43284400251,,,,,,PLC_L_D1S2,P29,60.023484894,01,B,2015_Aug_05_1657,X,
stim/posf.jpg,stim/negf.jpg,stim/2.jpg,stim/4.jpg,stim/latef.jpg,CD,1,2,,,,,0,15,15,23,,,,,,None,0,,,,,,,PLC_L_D1S2,P29,60.023484894,01,B,2015_Aug_05_1657,X,
stim/posf.jpg,stim/negf.jpg,stim/4.jpg,stim/2.jpg,stim/latef.jpg,CD,2,4,,,,,0,16,16,34,,,,,,4,1,1.19959933685,,,,,,PLC_L_D1S2,P29,60.023484894,01,B,2015_Aug_05_1657,X,
stim/posf.jpg,stim/negf.jpg,stim/1.jpg,stim/6.jpg,stim/latef.jpg,AB,2,4,,,,,0,17,17,12,,,,,,4,1,0.816412602866,,,,,,PLC_L_D1S2,P29,60.023484894,01,B,2015_Aug_05_1657,X,
stim/negf.jpg,stim/posf.jpg,stim/5.jpg,stim/3.jpg,stim/latef.jpg,EF,1,2,,,,,0,18,18,48,,,,,,2,1,0.599801915017,,,,,,PLC_L_D1S2,P29,60.023484894,01,B,2015_Aug_05_1657,X,
stim/posf.jpg,stim/negf.jpg,stim/3.jpg,stim/5.jpg,stim/latef.jpg,EF,2,4,,,,,0,19,19,54,,,,,,4,1,0.916360543301,,,,,,PLC_L_D1S2,P29,60.023484894,01,B,2015_Aug_05_1657,X,
stim/posf.jpg,stim/negf.jpg,stim/2.jpg,stim/4.jpg,stim/latef.jpg,CD,1,2,,,,,0,20,20,24,,,,,,2,1,0.916374696526,,,,,,PLC_L_D1S2,P29,60.023484894,01,B,2015_Aug_05_1657,X,
stim/negf.jpg,stim/posf.jpg,stim/2.jpg,stim/4.jpg,stim/latef.jpg,CD,1,2,,,,,0,21,21,28,,,,,,2,1,1.06630006729,,,,,,PLC_L_D1S2,P29,60.023484894,01,B,2015_Aug_05_1657,X,
stim/posf.jpg,stim/negf.jpg,stim/4.jpg,stim/2.jpg,stim/latef.jpg,CD,2,4,,,,,0,22,22,30,,,,,,4,1,0.799746625414,,,,,,PLC_L_D1S2,P29,60.023484894,01,B,2015_Aug_05_1657,X,
stim/posf.jpg,stim/negf.jpg,stim/2.jpg,stim/4.jpg,stim/latef.jpg,CD,1,2,,,,,0,23,23,22,,,,,,2,1,0.716432307906,,,,,,PLC_L_D1S2,P29,60.023484894,01,B,2015_Aug_05_1657,X,
stim/posf.jpg,stim/negf.jpg,stim/3.jpg,stim/5.jpg,stim/latef.jpg,EF,2,4,,,,,0,24,24,52,,,,,,4,1,0.999672896922,,,,,,PLC_L_D1S2,P29,60.023484894,01,B,2015_Aug_05_1657,X,
stim/posf.jpg,stim/negf.jpg,stim/1.jpg,stim/6.jpg,stim/latef.jpg,AB,2,4,,,,,0,25,25,15,,,,,,4,1,0.783034693593,,,,,,PLC_L_D1S2,P29,60.023484894,01,B,2015_Aug_05_1657,X,
stim/posf.jpg,stim/negf.jpg,stim/4.jpg,stim/2.jpg,stim/latef.jpg,CD,2,4,,,,,0,26,26,36,,,,,,4,1,1.01636192975,,,,,,PLC_L_D1S2,P29,60.023484894,01,B,2015_Aug_05_1657,X,
stim/posf.jpg,stim/negf.jpg,stim/6.jpg,stim/1.jpg,stim/latef.jpg,AB,1,2,,,,,0,27,27,3,,,,,,2,1,0.916358011,,,,,,PLC_L_D1S2,P29,60.023484894,01,B,2015_Aug_05_1657,X,
stim/posf.jpg,stim/negf.jpg,stim/6.jpg,stim/1.jpg,stim/latef.jpg,AB,1,2,,,,,0,28,28,0,,,,,,2,1,0.982998026338,,,,,,PLC_L_D1S2,P29,60.023484894,01,B,2015_Aug_05_1657,X,
stim/posf.jpg,stim/negf.jpg,stim/1.jpg,stim/6.jpg,stim/latef.jpg,AB,2,4,,,,,0,29,29,18,,,,,,4,1,0.633114291192,,,,,,PLC_L_D1S2,P29,60.023484894,01,B,2015_Aug_05_1657,X,
stim/negf.jpg,stim/posf.jpg,stim/4.jpg,stim/2.jpg,stim/latef.jpg,CD,2,4,,,,,0,30,30,39,,,,,,4,1,0.849717436269,,,,,,PLC_L_D1S2,P29,60.023484894,01,B,2015_Aug_05_1657,X,
stim/posf.jpg,stim/negf.jpg,stim/3.jpg,stim/5.jpg,stim/latef.jpg,EF,2,4,,,,,0,31,31,50,,,,,,4,1,0.81639218505,,,,,,PLC_L_D1S2,P29,60.023484894,01,B,2015_Aug_05_1657,X,
stim/posf.jpg,stim/negf.jpg,stim/2.jpg,stim/4.jpg,stim/latef.jpg,CD,1,2,,,,,0,32,32,27,,,,,,2,1,0.733052980606,,,,,,PLC_L_D1S2,P29,60.023484894,01,B,2015_Aug_05_1657,X,
stim/negf.jpg,stim/posf.jpg,stim/3.jpg,stim/5.jpg,stim/latef.jpg,EF,2,4,,,,,0,33,33,59,,,,,,4,1,1.38287026237,,,,,,PLC_L_D1S2,P29,60.023484894,01,B,2015_Aug_05_1657,X,
stim/posf.jpg,stim/negf.jpg,stim/6.jpg,stim/1.jpg,stim/latef.jpg,AB,1,2,,,,,0,34,34,6,,,,,,2,1,1.39956940636,,,,,,PLC_L_D1S2,P29,60.023484894,01,B,2015_Aug_05_1657,X,
stim/posf.jpg,stim/negf.jpg,stim/5.jpg,stim/3.jpg,stim/latef.jpg,EF,1,2,,,,,0,35,35,46,,,,,,2,1,0.733088047879,,,,,,PLC_L_D1S2,P29,60.023484894,01,B,2015_Aug_05_1657,X,
stim/posf.jpg,stim/negf.jpg,stim/3.jpg,stim/5.jpg,stim/latef.jpg,EF,2,4,,,,,0,36,36,51,,,,,,4,1,0.683112467153,,,,,,PLC_L_D1S2,P29,60.023484894,01,B,2015_Aug_05_1657,X,
stim/posf.jpg,stim/negf.jpg,stim/4.jpg,stim/2.jpg,stim/latef.jpg,CD,2,4,,,,,0,37,37,32,,,,,,4,1,0.866380433304,,,,,,PLC_L_D1S2,P29,60.023484894,01,B,2015_Aug_05_1657,X,
stim/posf.jpg,stim/negf.jpg,stim/1.jpg,stim/6.jpg,stim/latef.jpg,AB,2,4,,,,,0,38,38,17,,,,,,4,1,0.933015450202,,,,,,PLC_L_D1S2,P29,60.023484894,01,B,2015_Aug_05_1657,X,
stim/posf.jpg,stim/negf.jpg,stim/6.jpg,stim/1.jpg,stim/latef.jpg,AB,1,2,,,,,0,39,39,8,,,,,,2,1,0.783039667974,,,,,,PLC_L_D1S2,P29,60.023484894,01,B,2015_Aug_05_1657,X,
stim/negf.jpg,stim/posf.jpg,stim/3.jpg,stim/5.jpg,stim/latef.jpg,EF,2,4,,,,,0,40,40,58,,,,,,4,1,0.716403730785,,,,,,PLC_L_D1S2,P29,60.023484894,01,B,2015_Aug_05_1657,X,
stim/posf.jpg,stim/negf.jpg,stim/1.jpg,stim/6.jpg,stim/latef.jpg,AB,2,4,,,,,0,41,41,13,,,,,,4,1,0.749766337974,,,,,,PLC_L_D1S2,P29,60.023484894,01,B,2015_Aug_05_1657,X,
stim/posf.jpg,stim/negf.jpg,stim/2.jpg,stim/4.jpg,stim/latef.jpg,CD,1,2,,,,,0,42,42,20,,,,,,2,1,1.09962166442,,,,,,PLC_L_D1S2,P29,60.023484894,01,B,2015_Aug_05_1657,X,
stim/posf.jpg,stim/negf.jpg,stim/1.jpg,stim/6.jpg,stim/latef.jpg,AB,2,4,,,,,0,43,43,10,,,,,,4,1,0.633130718074,,,,,,PLC_L_D1S2,P29,60.023484894,01,B,2015_Aug_05_1657,X,
stim/posf.jpg,stim/negf.jpg,stim/6.jpg,stim/1.jpg,stim/latef.jpg,AB,1,2,,,,,0,44,44,4,,,,,,2,1,0.616391995579,,,,,,PLC_L_D1S2,P29,60.023484894,01,B,2015_Aug_05_1657,X,
stim/negf.jpg,stim/posf.jpg,stim/5.jpg,stim/3.jpg,stim/latef.jpg,EF,1,2,,,,,0,45,45,49,,,,,,2,1,0.766410051015,,,,,,PLC_L_D1S2,P29,60.023484894,01,B,2015_Aug_05_1657,X,
stim/posf.jpg,stim/negf.jpg,stim/4.jpg,stim/2.jpg,stim/latef.jpg,CD,2,4,,,,,0,46,46,35,,,,,,4,1,0.883026798945,,,,,,PLC_L_D1S2,P29,60.023484894,01,B,2015_Aug_05_1657,X,
stim/posf.jpg,stim/negf.jpg,stim/6.jpg,stim/1.jpg,stim/latef.jpg,AB,1,2,,,,,0,47,47,5,,,,,,2,1,0.733095298925,,,,,,PLC_L_D1S2,P29,60.023484894,01,B,2015_Aug_05_1657,X,
stim/posf.jpg,stim/negf.jpg,stim/2.jpg,stim/4.jpg,stim/latef.jpg,CD,1,2,,,,,0,48,48,21,,,,,,2,1,0.549799618801,,,,,,PLC_L_D1S2,P29,60.023484894,01,B,2015_Aug_05_1657,X,
stim/posf.jpg,stim/negf.jpg,stim/2.jpg,stim/4.jpg,stim/latef.jpg,CD,1,2,,,,,0,49,49,25,,,,,,2,1,0.549816469738,,,,,,PLC_L_D1S2,P29,60.023484894,01,B,2015_Aug_05_1657,X,
stim/posf.jpg,stim/negf.jpg,stim/6.jpg,stim/1.jpg,stim/latef.jpg,AB,1,2,,,,,0,50,50,1,,,,,,2,1,0.683112088209,,,,,,PLC_L_D1S2,P29,60.023484894,01,B,2015_Aug_05_1657,X,
stim/negf.jpg,stim/posf.jpg,stim/6.jpg,stim/1.jpg,stim/latef.jpg,AB,1,2,,,,,0,51,51,9,,,,,,2,1,0.71641107807,,,,,,PLC_L_D1S2,P29,60.023484894,01,B,2015_Aug_05_1657,X,
stim/posf.jpg,stim/negf.jpg,stim/1.jpg,stim/6.jpg,stim/latef.jpg,AB,2,4,,,,,0,52,52,14,,,,,,4,1,0.783110957395,,,,,,PLC_L_D1S2,P29,60.023484894,01,B,2015_Aug_05_1657,X,
stim/posf.jpg,stim/negf.jpg,stim/3.jpg,stim/5.jpg,stim/latef.jpg,EF,2,4,,,,,0,53,53,55,,,,,,4,1,1.13289869062,,,,,,PLC_L_D1S2,P29,60.023484894,01,B,2015_Aug_05_1657,X,
stim/posf.jpg,stim/negf.jpg,stim/1.jpg,stim/6.jpg,stim/latef.jpg,AB,2,4,,,,,0,54,54,16,,,,,,4,1,1.31622490273,,,,,,PLC_L_D1S2,P29,60.023484894,01,B,2015_Aug_05_1657,X,
stim/negf.jpg,stim/posf.jpg,stim/1.jpg,stim/6.jpg,stim/latef.jpg,AB,2,4,,,,,0,55,55,19,,,,,,4,1,0.933025185431,,,,,,PLC_L_D1S2,P29,60.023484894,01,B,2015_Aug_05_1657,X,
stim/posf.jpg,stim/negf.jpg,stim/5.jpg,stim/3.jpg,stim/latef.jpg,EF,1,2,,,,,0,56,56,43,,,,,,2,1,0.849734055631,,,,,,PLC_L_D1S2,P29,60.023484894,01,B,2015_Aug_05_1657,X,
stim/posf.jpg,stim/negf.jpg,stim/4.jpg,stim/2.jpg,stim/latef.jpg,CD,2,4,,,,,0,57,57,33,,,,,,4,1,0.899709019824,,,,,,PLC_L_D1S2,P29,60.023484894,01,B,2015_Aug_05_1657,X,
stim/posf.jpg,stim/negf.jpg,stim/6.jpg,stim/1.jpg,stim/latef.jpg,AB,1,2,,,,,0,58,58,2,,,,,,2,1,0.583163892136,,,,,,PLC_L_D1S2,P29,60.023484894,01,B,2015_Aug_05_1657,X,
stim/posf.jpg,stim/negf.jpg,stim/6.jpg,stim/1.jpg,stim/latef.jpg,AB,1,2,,,,,0,59,59,7,,,,,,2,1,0.633133319549,,,,,,PLC_L_D1S2,P29,60.023484894,01,B,2015_Aug_05_1657,X,
