fb_corr,fb_incorr,symbol2,symbol1,fb_late,pair,position,correct,block_01.thisRepN,block_01.thisTrialN,block_01.thisN,block_01.thisIndex,block_02.thisRepN,block_02.thisTrialN,block_02.thisN,block_02.thisIndex,mouse.x,mouse.y,mouse.leftButton,mouse.midButton,mouse.rightButton,buttonBox_2.keys,buttonBox_2.corr,buttonBox_2.rt,mouse_2.x,mouse_2.y,mouse_2.leftButton,mouse_2.midButton,mouse_2.rightButton,expName,Participant,frameRate,SessionNumber,Version,date,Group,
,,,,,,,,,,,,,,,,0.9984375,1.0,1,0,0,,,,,,,,,PLC_L_D1S2,P3,60.0160285815,01,C,2014_Dez_17_1537,X,
stim/posf.jpg,stim/negf.jpg,stim/3.jpg,stim/4.jpg,stim/latef.jpg,AB,1,2,0,0,0,1,,,,,,,,,,2,1,1.03303108698,,,,,,PLC_L_D1S2,P3,60.0160285815,01,C,2014_Dez_17_1537,X,
stim/posf.jpg,stim/negf.jpg,stim/1.jpg,stim/2.jpg,stim/latef.jpg,CD,1,2,0,1,1,26,,,,,,,,,,4,0,0.849727472725,,,,,,PLC_L_D1S2,P3,60.0160285815,01,C,2014_Dez_17_1537,X,
stim/negf.jpg,stim/posf.jpg,stim/2.jpg,stim/1.jpg,stim/latef.jpg,CD,2,4,0,2,2,39,,,,,,,,,,2,0,1.29955246953,,,,,,PLC_L_D1S2,P3,60.0160285815,01,C,2014_Dez_17_1537,X,
stim/posf.jpg,stim/negf.jpg,stim/6.jpg,stim/5.jpg,stim/latef.jpg,EF,2,4,0,3,3,50,,,,,,,,,,4,1,1.28291501267,,,,,,PLC_L_D1S2,P3,60.0160285815,01,C,2014_Dez_17_1537,X,
stim/negf.jpg,stim/posf.jpg,stim/1.jpg,stim/2.jpg,stim/latef.jpg,CD,1,2,0,4,4,28,,,,,,,,,,4,0,1.09968752115,,,,,,PLC_L_D1S2,P3,60.0160285815,01,C,2014_Dez_17_1537,X,
stim/posf.jpg,stim/negf.jpg,stim/1.jpg,stim/2.jpg,stim/latef.jpg,CD,1,2,0,5,5,23,,,,,,,,,,4,0,1.06632833437,,,,,,PLC_L_D1S2,P3,60.0160285815,01,C,2014_Dez_17_1537,X,
stim/posf.jpg,stim/negf.jpg,stim/4.jpg,stim/3.jpg,stim/latef.jpg,AB,2,4,0,6,6,14,,,,,,,,,,4,1,0.94964927181,,,,,,PLC_L_D1S2,P3,60.0160285815,01,C,2014_Dez_17_1537,X,
stim/posf.jpg,stim/negf.jpg,stim/4.jpg,stim/3.jpg,stim/latef.jpg,AB,2,4,0,7,7,11,,,,,,,,,,4,1,1.01633862903,,,,,,PLC_L_D1S2,P3,60.0160285815,01,C,2014_Dez_17_1537,X,
stim/posf.jpg,stim/negf.jpg,stim/2.jpg,stim/1.jpg,stim/latef.jpg,CD,2,4,0,8,8,34,,,,,,,,,,2,0,1.08297358666,,,,,,PLC_L_D1S2,P3,60.0160285815,01,C,2014_Dez_17_1537,X,
stim/posf.jpg,stim/negf.jpg,stim/2.jpg,stim/1.jpg,stim/latef.jpg,CD,2,4,0,9,9,35,,,,,,,,,,2,0,0.949661193525,,,,,,PLC_L_D1S2,P3,60.0160285815,01,C,2014_Dez_17_1537,X,
stim/posf.jpg,stim/negf.jpg,stim/1.jpg,stim/2.jpg,stim/latef.jpg,CD,1,2,0,10,10,21,,,,,,,,,,2,1,0.932962004797,,,,,,PLC_L_D1S2,P3,60.0160285815,01,C,2014_Dez_17_1537,X,
stim/posf.jpg,stim/negf.jpg,stim/6.jpg,stim/5.jpg,stim/latef.jpg,EF,2,4,0,11,11,51,,,,,,,,,,4,1,1.34962860129,,,,,,PLC_L_D1S2,P3,60.0160285815,01,C,2014_Dez_17_1537,X,
stim/posf.jpg,stim/negf.jpg,stim/4.jpg,stim/3.jpg,stim/latef.jpg,AB,2,4,0,12,12,16,,,,,,,,,,4,1,0.966373167119,,,,,,PLC_L_D1S2,P3,60.0160285815,01,C,2014_Dez_17_1537,X,
stim/posf.jpg,stim/negf.jpg,stim/3.jpg,stim/4.jpg,stim/latef.jpg,AB,1,2,0,13,13,5,,,,,,,,,,2,1,0.766406421004,,,,,,PLC_L_D1S2,P3,60.0160285815,01,C,2014_Dez_17_1537,X,
stim/posf.jpg,stim/negf.jpg,stim/3.jpg,stim/4.jpg,stim/latef.jpg,AB,1,2,0,14,14,4,,,,,,,,,,2,1,0.616451250742,,,,,,PLC_L_D1S2,P3,60.0160285815,01,C,2014_Dez_17_1537,X,
stim/posf.jpg,stim/negf.jpg,stim/6.jpg,stim/5.jpg,stim/latef.jpg,EF,2,4,0,15,15,55,,,,,,,,,,4,1,1.11730227291,,,,,,PLC_L_D1S2,P3,60.0160285815,01,C,2014_Dez_17_1537,X,
stim/posf.jpg,stim/negf.jpg,stim/5.jpg,stim/6.jpg,stim/latef.jpg,EF,1,2,0,16,16,42,,,,,,,,,,2,1,1.28291107886,,,,,,PLC_L_D1S2,P3,60.0160285815,01,C,2014_Dez_17_1537,X,
stim/posf.jpg,stim/negf.jpg,stim/2.jpg,stim/1.jpg,stim/latef.jpg,CD,2,4,0,17,17,37,,,,,,,,,,4,1,1.21627801595,,,,,,PLC_L_D1S2,P3,60.0160285815,01,C,2014_Dez_17_1537,X,
stim/posf.jpg,stim/negf.jpg,stim/1.jpg,stim/2.jpg,stim/latef.jpg,CD,1,2,0,18,18,27,,,,,,,,,,2,1,0.583158613845,,,,,,PLC_L_D1S2,P3,60.0160285815,01,C,2014_Dez_17_1537,X,
stim/posf.jpg,stim/negf.jpg,stim/2.jpg,stim/1.jpg,stim/latef.jpg,CD,2,4,0,19,19,32,,,,,,,,,,4,1,0.783086349727,,,,,,PLC_L_D1S2,P3,60.0160285815,01,C,2014_Dez_17_1537,X,
stim/posf.jpg,stim/negf.jpg,stim/2.jpg,stim/1.jpg,stim/latef.jpg,CD,2,4,0,20,20,36,,,,,,,,,,4,1,0.699740528267,,,,,,PLC_L_D1S2,P3,60.0160285815,01,C,2014_Dez_17_1537,X,
stim/posf.jpg,stim/negf.jpg,stim/4.jpg,stim/3.jpg,stim/latef.jpg,AB,2,4,0,21,21,18,,,,,,,,,,4,1,0.849698591739,,,,,,PLC_L_D1S2,P3,60.0160285815,01,C,2014_Dez_17_1537,X,
stim/posf.jpg,stim/negf.jpg,stim/3.jpg,stim/4.jpg,stim/latef.jpg,AB,1,2,0,22,22,0,,,,,,,,,,2,1,0.716440366614,,,,,,PLC_L_D1S2,P3,60.0160285815,01,C,2014_Dez_17_1537,X,
stim/posf.jpg,stim/negf.jpg,stim/1.jpg,stim/2.jpg,stim/latef.jpg,CD,1,2,0,23,23,22,,,,,,,,,,2,1,0.933000139848,,,,,,PLC_L_D1S2,P3,60.0160285815,01,C,2014_Dez_17_1537,X,
stim/posf.jpg,stim/negf.jpg,stim/1.jpg,stim/2.jpg,stim/latef.jpg,CD,1,2,0,24,24,20,,,,,,,,,,2,1,0.533145221465,,,,,,PLC_L_D1S2,P3,60.0160285815,01,C,2014_Dez_17_1537,X,
stim/posf.jpg,stim/negf.jpg,stim/5.jpg,stim/6.jpg,stim/latef.jpg,EF,1,2,0,25,25,41,,,,,,,,,,2,1,0.783079736242,,,,,,PLC_L_D1S2,P3,60.0160285815,01,C,2014_Dez_17_1537,X,
stim/posf.jpg,stim/negf.jpg,stim/3.jpg,stim/4.jpg,stim/latef.jpg,AB,1,2,0,26,26,7,,,,,,,,,,2,1,0.849740877135,,,,,,PLC_L_D1S2,P3,60.0160285815,01,C,2014_Dez_17_1537,X,
stim/posf.jpg,stim/negf.jpg,stim/6.jpg,stim/5.jpg,stim/latef.jpg,EF,2,4,0,27,27,52,,,,,,,,,,4,1,1.06630478568,,,,,,PLC_L_D1S2,P3,60.0160285815,01,C,2014_Dez_17_1537,X,
stim/negf.jpg,stim/posf.jpg,stim/4.jpg,stim/3.jpg,stim/latef.jpg,AB,2,4,0,28,28,19,,,,,,,,,,4,1,0.799730059172,,,,,,PLC_L_D1S2,P3,60.0160285815,01,C,2014_Dez_17_1537,X,
stim/posf.jpg,stim/negf.jpg,stim/5.jpg,stim/6.jpg,stim/latef.jpg,EF,1,2,0,29,29,45,,,,,,,,,,2,1,0.699758049939,,,,,,PLC_L_D1S2,P3,60.0160285815,01,C,2014_Dez_17_1537,X,
stim/posf.jpg,stim/negf.jpg,stim/4.jpg,stim/3.jpg,stim/latef.jpg,AB,2,4,0,30,30,13,,,,,,,,,,4,1,0.866320021654,,,,,,PLC_L_D1S2,P3,60.0160285815,01,C,2014_Dez_17_1537,X,
stim/posf.jpg,stim/negf.jpg,stim/4.jpg,stim/3.jpg,stim/latef.jpg,AB,2,4,0,31,31,17,,,,,,,,,,4,1,0.999661758935,,,,,,PLC_L_D1S2,P3,60.0160285815,01,C,2014_Dez_17_1537,X,
stim/negf.jpg,stim/posf.jpg,stim/6.jpg,stim/5.jpg,stim/latef.jpg,EF,2,4,0,32,32,59,,,,,,,,,,4,1,0.783060160451,,,,,,PLC_L_D1S2,P3,60.0160285815,01,C,2014_Dez_17_1537,X,
stim/negf.jpg,stim/posf.jpg,stim/6.jpg,stim/5.jpg,stim/latef.jpg,EF,2,4,0,33,33,58,,,,,,,,,,4,1,0.699812145773,,,,,,PLC_L_D1S2,P3,60.0160285815,01,C,2014_Dez_17_1537,X,
stim/negf.jpg,stim/posf.jpg,stim/2.jpg,stim/1.jpg,stim/latef.jpg,CD,2,4,0,34,34,38,,,,,,,,,,4,1,0.982995153419,,,,,,PLC_L_D1S2,P3,60.0160285815,01,C,2014_Dez_17_1537,X,
stim/posf.jpg,stim/negf.jpg,stim/4.jpg,stim/3.jpg,stim/latef.jpg,AB,2,4,0,35,35,12,,,,,,,,,,4,1,0.849678438508,,,,,,PLC_L_D1S2,P3,60.0160285815,01,C,2014_Dez_17_1537,X,
stim/negf.jpg,stim/posf.jpg,stim/5.jpg,stim/6.jpg,stim/latef.jpg,EF,1,2,0,36,36,48,,,,,,,,,,2,1,1.11629314065,,,,,,PLC_L_D1S2,P3,60.0160285815,01,C,2014_Dez_17_1537,X,
stim/posf.jpg,stim/negf.jpg,stim/2.jpg,stim/1.jpg,stim/latef.jpg,CD,2,4,0,37,37,33,,,,,,,,,,4,1,0.849722239682,,,,,,PLC_L_D1S2,P3,60.0160285815,01,C,2014_Dez_17_1537,X,
stim/posf.jpg,stim/negf.jpg,stim/5.jpg,stim/6.jpg,stim/latef.jpg,EF,1,2,0,38,38,43,,,,,,,,,,2,1,0.966344195907,,,,,,PLC_L_D1S2,P3,60.0160285815,01,C,2014_Dez_17_1537,X,
stim/posf.jpg,stim/negf.jpg,stim/1.jpg,stim/2.jpg,stim/latef.jpg,CD,1,2,0,39,39,25,,,,,,,,,,2,1,1.26623885835,,,,,,PLC_L_D1S2,P3,60.0160285815,01,C,2014_Dez_17_1537,X,
stim/posf.jpg,stim/negf.jpg,stim/6.jpg,stim/5.jpg,stim/latef.jpg,EF,2,4,0,40,40,57,,,,,,,,,,4,1,0.88304185382,,,,,,PLC_L_D1S2,P3,60.0160285815,01,C,2014_Dez_17_1537,X,
stim/posf.jpg,stim/negf.jpg,stim/2.jpg,stim/1.jpg,stim/latef.jpg,CD,2,4,0,41,41,30,,,,,,,,,,4,1,0.733016097623,,,,,,PLC_L_D1S2,P3,60.0160285815,01,C,2014_Dez_17_1537,X,
stim/posf.jpg,stim/negf.jpg,stim/5.jpg,stim/6.jpg,stim/latef.jpg,EF,1,2,0,42,42,46,,,,,,,,,,2,1,0.783069940828,,,,,,PLC_L_D1S2,P3,60.0160285815,01,C,2014_Dez_17_1537,X,
stim/posf.jpg,stim/negf.jpg,stim/3.jpg,stim/4.jpg,stim/latef.jpg,AB,1,2,0,43,43,8,,,,,,,,,,2,1,0.866367407765,,,,,,PLC_L_D1S2,P3,60.0160285815,01,C,2014_Dez_17_1537,X,
stim/posf.jpg,stim/negf.jpg,stim/2.jpg,stim/1.jpg,stim/latef.jpg,CD,2,4,0,44,44,31,,,,,,,,,,4,1,0.899708985648,,,,,,PLC_L_D1S2,P3,60.0160285815,01,C,2014_Dez_17_1537,X,
stim/posf.jpg,stim/negf.jpg,stim/1.jpg,stim/2.jpg,stim/latef.jpg,CD,1,2,0,45,45,24,,,,,,,,,,2,1,0.78306168525,,,,,,PLC_L_D1S2,P3,60.0160285815,01,C,2014_Dez_17_1537,X,
stim/negf.jpg,stim/posf.jpg,stim/1.jpg,stim/2.jpg,stim/latef.jpg,CD,1,2,0,46,46,29,,,,,,,,,,2,1,0.733075760332,,,,,,PLC_L_D1S2,P3,60.0160285815,01,C,2014_Dez_17_1537,X,
stim/negf.jpg,stim/posf.jpg,stim/5.jpg,stim/6.jpg,stim/latef.jpg,EF,1,2,0,47,47,49,,,,,,,,,,2,1,0.716422992309,,,,,,PLC_L_D1S2,P3,60.0160285815,01,C,2014_Dez_17_1537,X,
stim/posf.jpg,stim/negf.jpg,stim/3.jpg,stim/4.jpg,stim/latef.jpg,AB,1,2,0,48,48,2,,,,,,,,,,2,1,0.833062587499,,,,,,PLC_L_D1S2,P3,60.0160285815,01,C,2014_Dez_17_1537,X,
stim/posf.jpg,stim/negf.jpg,stim/3.jpg,stim/4.jpg,stim/latef.jpg,AB,1,2,0,49,49,6,,,,,,,,,,2,1,0.549817138217,,,,,,PLC_L_D1S2,P3,60.0160285815,01,C,2014_Dez_17_1537,X,
stim/posf.jpg,stim/negf.jpg,stim/4.jpg,stim/3.jpg,stim/latef.jpg,AB,2,4,0,50,50,15,,,,,,,,,,4,1,0.716395233119,,,,,,PLC_L_D1S2,P3,60.0160285815,01,C,2014_Dez_17_1537,X,
stim/posf.jpg,stim/negf.jpg,stim/5.jpg,stim/6.jpg,stim/latef.jpg,EF,1,2,0,51,51,44,,,,,,,,,,2,1,0.749777126488,,,,,,PLC_L_D1S2,P3,60.0160285815,01,C,2014_Dez_17_1537,X,
stim/posf.jpg,stim/negf.jpg,stim/6.jpg,stim/5.jpg,stim/latef.jpg,EF,2,4,0,52,52,56,,,,,,,,,,2,0,0.716457361974,,,,,,PLC_L_D1S2,P3,60.0160285815,01,C,2014_Dez_17_1537,X,
stim/negf.jpg,stim/posf.jpg,stim/3.jpg,stim/4.jpg,stim/latef.jpg,AB,1,2,0,53,53,9,,,,,,,,,,2,1,0.683092740655,,,,,,PLC_L_D1S2,P3,60.0160285815,01,C,2014_Dez_17_1537,X,
stim/posf.jpg,stim/negf.jpg,stim/6.jpg,stim/5.jpg,stim/latef.jpg,EF,2,4,0,54,54,53,,,,,,,,,,4,1,0.783082265547,,,,,,PLC_L_D1S2,P3,60.0160285815,01,C,2014_Dez_17_1537,X,
stim/posf.jpg,stim/negf.jpg,stim/5.jpg,stim/6.jpg,stim/latef.jpg,EF,1,2,0,55,55,40,,,,,,,,,,2,1,0.716426562205,,,,,,PLC_L_D1S2,P3,60.0160285815,01,C,2014_Dez_17_1537,X,
stim/posf.jpg,stim/negf.jpg,stim/4.jpg,stim/3.jpg,stim/latef.jpg,AB,2,4,0,56,56,10,,,,,,,,,,4,1,0.716407043556,,,,,,PLC_L_D1S2,P3,60.0160285815,01,C,2014_Dez_17_1537,X,
stim/posf.jpg,stim/negf.jpg,stim/3.jpg,stim/4.jpg,stim/latef.jpg,AB,1,2,0,57,57,3,,,,,,,,,,2,1,0.533157275509,,,,,,PLC_L_D1S2,P3,60.0160285815,01,C,2014_Dez_17_1537,X,
stim/posf.jpg,stim/negf.jpg,stim/6.jpg,stim/5.jpg,stim/latef.jpg,EF,2,4,0,58,58,54,,,,,,,,,,4,1,0.849718877302,,,,,,PLC_L_D1S2,P3,60.0160285815,01,C,2014_Dez_17_1537,X,
stim/posf.jpg,stim/negf.jpg,stim/5.jpg,stim/6.jpg,stim/latef.jpg,EF,1,2,0,59,59,47,,,,,,,,,,2,1,0.966346797391,,,,,,PLC_L_D1S2,P3,60.0160285815,01,C,2014_Dez_17_1537,X,
,,,,,,,,,,,,,,,,,,,,,,,,0.9109375,-0.5625,1,0,0,PLC_L_D1S2,P3,60.0160285815,01,C,2014_Dez_17_1537,X,
stim/negf.jpg,stim/posf.jpg,stim/4.jpg,stim/3.jpg,stim/latef.jpg,AB,2,4,,,,,0,0,0,19,,,,,,4,1,0.899710769092,,,,,,PLC_L_D1S2,P3,60.0160285815,01,C,2014_Dez_17_1537,X,
stim/posf.jpg,stim/negf.jpg,stim/2.jpg,stim/1.jpg,stim/latef.jpg,CD,2,4,,,,,0,1,1,30,,,,,,4,1,0.816342755317,,,,,,PLC_L_D1S2,P3,60.0160285815,01,C,2014_Dez_17_1537,X,
stim/posf.jpg,stim/negf.jpg,stim/2.jpg,stim/1.jpg,stim/latef.jpg,CD,2,4,,,,,0,2,2,36,,,,,,4,1,0.699762278478,,,,,,PLC_L_D1S2,P3,60.0160285815,01,C,2014_Dez_17_1537,X,
stim/posf.jpg,stim/negf.jpg,stim/3.jpg,stim/4.jpg,stim/latef.jpg,AB,1,2,,,,,0,3,3,5,,,,,,2,1,0.783082915166,,,,,,PLC_L_D1S2,P3,60.0160285815,01,C,2014_Dez_17_1537,X,
stim/posf.jpg,stim/negf.jpg,stim/6.jpg,stim/5.jpg,stim/latef.jpg,EF,2,4,,,,,0,4,4,51,,,,,,4,1,0.666435115525,,,,,,PLC_L_D1S2,P3,60.0160285815,01,C,2014_Dez_17_1537,X,
stim/posf.jpg,stim/negf.jpg,stim/1.jpg,stim/2.jpg,stim/latef.jpg,CD,1,2,,,,,0,5,5,22,,,,,,2,1,0.799733463658,,,,,,PLC_L_D1S2,P3,60.0160285815,01,C,2014_Dez_17_1537,X,
stim/posf.jpg,stim/negf.jpg,stim/6.jpg,stim/5.jpg,stim/latef.jpg,EF,2,4,,,,,0,6,6,50,,,,,,4,1,0.666414264555,,,,,,PLC_L_D1S2,P3,60.0160285815,01,C,2014_Dez_17_1537,X,
stim/posf.jpg,stim/negf.jpg,stim/2.jpg,stim/1.jpg,stim/latef.jpg,CD,2,4,,,,,0,7,7,37,,,,,,4,1,0.733099525567,,,,,,PLC_L_D1S2,P3,60.0160285815,01,C,2014_Dez_17_1537,X,
stim/posf.jpg,stim/negf.jpg,stim/2.jpg,stim/1.jpg,stim/latef.jpg,CD,2,4,,,,,0,8,8,31,,,,,,4,1,0.5164863392,,,,,,PLC_L_D1S2,P3,60.0160285815,01,C,2014_Dez_17_1537,X,
stim/posf.jpg,stim/negf.jpg,stim/2.jpg,stim/1.jpg,stim/latef.jpg,CD,2,4,,,,,0,9,9,33,,,,,,4,1,0.483169362635,,,,,,PLC_L_D1S2,P3,60.0160285815,01,C,2014_Dez_17_1537,X,
stim/posf.jpg,stim/negf.jpg,stim/5.jpg,stim/6.jpg,stim/latef.jpg,EF,1,2,,,,,0,10,10,43,,,,,,2,1,0.79972230284,,,,,,PLC_L_D1S2,P3,60.0160285815,01,C,2014_Dez_17_1537,X,
stim/negf.jpg,stim/posf.jpg,stim/1.jpg,stim/2.jpg,stim/latef.jpg,CD,1,2,,,,,0,11,11,29,,,,,,2,1,0.816396075217,,,,,,PLC_L_D1S2,P3,60.0160285815,01,C,2014_Dez_17_1537,X,
stim/posf.jpg,stim/negf.jpg,stim/5.jpg,stim/6.jpg,stim/latef.jpg,EF,1,2,,,,,0,12,12,44,,,,,,2,1,1.01633535988,,,,,,PLC_L_D1S2,P3,60.0160285815,01,C,2014_Dez_17_1537,X,
stim/negf.jpg,stim/posf.jpg,stim/3.jpg,stim/4.jpg,stim/latef.jpg,AB,1,2,,,,,0,13,13,9,,,,,,2,1,0.766414029969,,,,,,PLC_L_D1S2,P3,60.0160285815,01,C,2014_Dez_17_1537,X,
stim/posf.jpg,stim/negf.jpg,stim/4.jpg,stim/3.jpg,stim/latef.jpg,AB,2,4,,,,,0,14,14,17,,,,,,4,1,0.966323032157,,,,,,PLC_L_D1S2,P3,60.0160285815,01,C,2014_Dez_17_1537,X,
stim/posf.jpg,stim/negf.jpg,stim/4.jpg,stim/3.jpg,stim/latef.jpg,AB,2,4,,,,,0,15,15,13,,,,,,4,1,0.533107690921,,,,,,PLC_L_D1S2,P3,60.0160285815,01,C,2014_Dez_17_1537,X,
stim/posf.jpg,stim/negf.jpg,stim/6.jpg,stim/5.jpg,stim/latef.jpg,EF,2,4,,,,,0,16,16,57,,,,,,2,0,0.633098370688,,,,,,PLC_L_D1S2,P3,60.0160285815,01,C,2014_Dez_17_1537,X,
stim/posf.jpg,stim/negf.jpg,stim/4.jpg,stim/3.jpg,stim/latef.jpg,AB,2,4,,,,,0,17,17,18,,,,,,4,1,0.666437229796,,,,,,PLC_L_D1S2,P3,60.0160285815,01,C,2014_Dez_17_1537,X,
stim/posf.jpg,stim/negf.jpg,stim/1.jpg,stim/2.jpg,stim/latef.jpg,CD,1,2,,,,,0,18,18,26,,,,,,2,1,0.949734203501,,,,,,PLC_L_D1S2,P3,60.0160285815,01,C,2014_Dez_17_1537,X,
stim/posf.jpg,stim/negf.jpg,stim/5.jpg,stim/6.jpg,stim/latef.jpg,EF,1,2,,,,,0,19,19,47,,,,,,2,1,0.749794100797,,,,,,PLC_L_D1S2,P3,60.0160285815,01,C,2014_Dez_17_1537,X,
stim/posf.jpg,stim/negf.jpg,stim/5.jpg,stim/6.jpg,stim/latef.jpg,EF,1,2,,,,,0,20,20,42,,,,,,2,1,0.666426456944,,,,,,PLC_L_D1S2,P3,60.0160285815,01,C,2014_Dez_17_1537,X,
stim/negf.jpg,stim/posf.jpg,stim/1.jpg,stim/2.jpg,stim/latef.jpg,CD,1,2,,,,,0,21,21,28,,,,,,2,1,0.666432462915,,,,,,PLC_L_D1S2,P3,60.0160285815,01,C,2014_Dez_17_1537,X,
stim/posf.jpg,stim/negf.jpg,stim/4.jpg,stim/3.jpg,stim/latef.jpg,AB,2,4,,,,,0,22,22,12,,,,,,4,1,0.799676483635,,,,,,PLC_L_D1S2,P3,60.0160285815,01,C,2014_Dez_17_1537,X,
stim/posf.jpg,stim/negf.jpg,stim/3.jpg,stim/4.jpg,stim/latef.jpg,AB,1,2,,,,,0,23,23,3,,,,,,2,1,0.61635487252,,,,,,PLC_L_D1S2,P3,60.0160285815,01,C,2014_Dez_17_1537,X,
stim/posf.jpg,stim/negf.jpg,stim/2.jpg,stim/1.jpg,stim/latef.jpg,CD,2,4,,,,,0,24,24,32,,,,,,4,1,0.733083017421,,,,,,PLC_L_D1S2,P3,60.0160285815,01,C,2014_Dez_17_1537,X,
stim/posf.jpg,stim/negf.jpg,stim/4.jpg,stim/3.jpg,stim/latef.jpg,AB,2,4,,,,,0,25,25,11,,,,,,4,1,0.583108295426,,,,,,PLC_L_D1S2,P3,60.0160285815,01,C,2014_Dez_17_1537,X,
stim/posf.jpg,stim/negf.jpg,stim/5.jpg,stim/6.jpg,stim/latef.jpg,EF,1,2,,,,,0,26,26,40,,,,,,2,1,0.733106725513,,,,,,PLC_L_D1S2,P3,60.0160285815,01,C,2014_Dez_17_1537,X,
stim/posf.jpg,stim/negf.jpg,stim/5.jpg,stim/6.jpg,stim/latef.jpg,EF,1,2,,,,,0,27,27,45,,,,,,2,1,0.683077979866,,,,,,PLC_L_D1S2,P3,60.0160285815,01,C,2014_Dez_17_1537,X,
stim/negf.jpg,stim/posf.jpg,stim/6.jpg,stim/5.jpg,stim/latef.jpg,EF,2,4,,,,,0,28,28,59,,,,,,4,1,0.666463449148,,,,,,PLC_L_D1S2,P3,60.0160285815,01,C,2014_Dez_17_1537,X,
stim/posf.jpg,stim/negf.jpg,stim/3.jpg,stim/4.jpg,stim/latef.jpg,AB,1,2,,,,,0,29,29,8,,,,,,2,1,0.599802584944,,,,,,PLC_L_D1S2,P3,60.0160285815,01,C,2014_Dez_17_1537,X,
stim/negf.jpg,stim/posf.jpg,stim/2.jpg,stim/1.jpg,stim/latef.jpg,CD,2,4,,,,,0,30,30,39,,,,,,4,1,0.633121871264,,,,,,PLC_L_D1S2,P3,60.0160285815,01,C,2014_Dez_17_1537,X,
stim/negf.jpg,stim/posf.jpg,stim/6.jpg,stim/5.jpg,stim/latef.jpg,EF,2,4,,,,,0,31,31,58,,,,,,4,1,0.849714393125,,,,,,PLC_L_D1S2,P3,60.0160285815,01,C,2014_Dez_17_1537,X,
stim/posf.jpg,stim/negf.jpg,stim/2.jpg,stim/1.jpg,stim/latef.jpg,CD,2,4,,,,,0,32,32,34,,,,,,4,1,0.666429641882,,,,,,PLC_L_D1S2,P3,60.0160285815,01,C,2014_Dez_17_1537,X,
stim/posf.jpg,stim/negf.jpg,stim/3.jpg,stim/4.jpg,stim/latef.jpg,AB,1,2,,,,,0,33,33,7,,,,,,2,1,0.699753911624,,,,,,PLC_L_D1S2,P3,60.0160285815,01,C,2014_Dez_17_1537,X,
stim/posf.jpg,stim/negf.jpg,stim/6.jpg,stim/5.jpg,stim/latef.jpg,EF,2,4,,,,,0,34,34,55,,,,,,4,1,0.733059249178,,,,,,PLC_L_D1S2,P3,60.0160285815,01,C,2014_Dez_17_1537,X,
stim/posf.jpg,stim/negf.jpg,stim/1.jpg,stim/2.jpg,stim/latef.jpg,CD,1,2,,,,,0,35,35,21,,,,,,2,1,0.566495364696,,,,,,PLC_L_D1S2,P3,60.0160285815,01,C,2014_Dez_17_1537,X,
stim/posf.jpg,stim/negf.jpg,stim/3.jpg,stim/4.jpg,stim/latef.jpg,AB,1,2,,,,,0,36,36,6,,,,,,2,1,0.616455199584,,,,,,PLC_L_D1S2,P3,60.0160285815,01,C,2014_Dez_17_1537,X,
stim/posf.jpg,stim/negf.jpg,stim/3.jpg,stim/4.jpg,stim/latef.jpg,AB,1,2,,,,,0,37,37,1,,,,,,2,1,0.583158863466,,,,,,PLC_L_D1S2,P3,60.0160285815,01,C,2014_Dez_17_1537,X,
stim/posf.jpg,stim/negf.jpg,stim/3.jpg,stim/4.jpg,stim/latef.jpg,AB,1,2,,,,,0,38,38,0,,,,,,2,1,0.583122319382,,,,,,PLC_L_D1S2,P3,60.0160285815,01,C,2014_Dez_17_1537,X,
stim/posf.jpg,stim/negf.jpg,stim/5.jpg,stim/6.jpg,stim/latef.jpg,EF,1,2,,,,,0,39,39,41,,,,,,2,1,0.499835068909,,,,,,PLC_L_D1S2,P3,60.0160285815,01,C,2014_Dez_17_1537,X,
stim/posf.jpg,stim/negf.jpg,stim/3.jpg,stim/4.jpg,stim/latef.jpg,AB,1,2,,,,,0,40,40,4,,,,,,2,1,0.499892256448,,,,,,PLC_L_D1S2,P3,60.0160285815,01,C,2014_Dez_17_1537,X,
stim/posf.jpg,stim/negf.jpg,stim/3.jpg,stim/4.jpg,stim/latef.jpg,AB,1,2,,,,,0,41,41,2,,,,,,2,1,0.533174388162,,,,,,PLC_L_D1S2,P3,60.0160285815,01,C,2014_Dez_17_1537,X,
stim/posf.jpg,stim/negf.jpg,stim/5.jpg,stim/6.jpg,stim/latef.jpg,EF,1,2,,,,,0,42,42,46,,,,,,2,1,0.666423521627,,,,,,PLC_L_D1S2,P3,60.0160285815,01,C,2014_Dez_17_1537,X,
stim/posf.jpg,stim/negf.jpg,stim/1.jpg,stim/2.jpg,stim/latef.jpg,CD,1,2,,,,,0,43,43,23,,,,,,2,1,0.733102758626,,,,,,PLC_L_D1S2,P3,60.0160285815,01,C,2014_Dez_17_1537,X,
stim/posf.jpg,stim/negf.jpg,stim/4.jpg,stim/3.jpg,stim/latef.jpg,AB,2,4,,,,,0,44,44,14,,,,,,4,1,0.89971979158,,,,,,PLC_L_D1S2,P3,60.0160285815,01,C,2014_Dez_17_1537,X,
stim/posf.jpg,stim/negf.jpg,stim/6.jpg,stim/5.jpg,stim/latef.jpg,EF,2,4,,,,,0,45,45,52,,,,,,4,1,0.766412598401,,,,,,PLC_L_D1S2,P3,60.0160285815,01,C,2014_Dez_17_1537,X,
stim/posf.jpg,stim/negf.jpg,stim/1.jpg,stim/2.jpg,stim/latef.jpg,CD,1,2,,,,,0,46,46,24,,,,,,2,1,0.666435798226,,,,,,PLC_L_D1S2,P3,60.0160285815,01,C,2014_Dez_17_1537,X,
stim/posf.jpg,stim/negf.jpg,stim/1.jpg,stim/2.jpg,stim/latef.jpg,CD,1,2,,,,,0,47,47,25,,,,,,2,1,0.649781842243,,,,,,PLC_L_D1S2,P3,60.0160285815,01,C,2014_Dez_17_1537,X,
stim/posf.jpg,stim/negf.jpg,stim/2.jpg,stim/1.jpg,stim/latef.jpg,CD,2,4,,,,,0,48,48,35,,,,,,4,1,0.616470219022,,,,,,PLC_L_D1S2,P3,60.0160285815,01,C,2014_Dez_17_1537,X,
stim/posf.jpg,stim/negf.jpg,stim/6.jpg,stim/5.jpg,stim/latef.jpg,EF,2,4,,,,,0,49,49,56,,,,,,4,1,0.699731316306,,,,,,PLC_L_D1S2,P3,60.0160285815,01,C,2014_Dez_17_1537,X,
stim/negf.jpg,stim/posf.jpg,stim/2.jpg,stim/1.jpg,stim/latef.jpg,CD,2,4,,,,,0,50,50,38,,,,,,4,1,0.516498035353,,,,,,PLC_L_D1S2,P3,60.0160285815,01,C,2014_Dez_17_1537,X,
stim/negf.jpg,stim/posf.jpg,stim/5.jpg,stim/6.jpg,stim/latef.jpg,EF,1,2,,,,,0,51,51,48,,,,,,2,1,0.733070990444,,,,,,PLC_L_D1S2,P3,60.0160285815,01,C,2014_Dez_17_1537,X,
stim/posf.jpg,stim/negf.jpg,stim/4.jpg,stim/3.jpg,stim/latef.jpg,AB,2,4,,,,,0,52,52,16,,,,,,4,1,0.749835953115,,,,,,PLC_L_D1S2,P3,60.0160285815,01,C,2014_Dez_17_1537,X,
stim/posf.jpg,stim/negf.jpg,stim/6.jpg,stim/5.jpg,stim/latef.jpg,EF,2,4,,,,,0,53,53,54,,,,,,4,1,0.766415007407,,,,,,PLC_L_D1S2,P3,60.0160285815,01,C,2014_Dez_17_1537,X,
stim/posf.jpg,stim/negf.jpg,stim/4.jpg,stim/3.jpg,stim/latef.jpg,AB,2,4,,,,,0,54,54,10,,,,,,4,1,0.783091342171,,,,,,PLC_L_D1S2,P3,60.0160285815,01,C,2014_Dez_17_1537,X,
stim/posf.jpg,stim/negf.jpg,stim/4.jpg,stim/3.jpg,stim/latef.jpg,AB,2,4,,,,,0,55,55,15,,,,,,4,1,0.649782485845,,,,,,PLC_L_D1S2,P3,60.0160285815,01,C,2014_Dez_17_1537,X,
stim/posf.jpg,stim/negf.jpg,stim/6.jpg,stim/5.jpg,stim/latef.jpg,EF,2,4,,,,,0,56,56,53,,,,,,4,1,0.566548732717,,,,,,PLC_L_D1S2,P3,60.0160285815,01,C,2014_Dez_17_1537,X,
stim/negf.jpg,stim/posf.jpg,stim/5.jpg,stim/6.jpg,stim/latef.jpg,EF,1,2,,,,,0,57,57,49,,,,,,2,1,0.783135558378,,,,,,PLC_L_D1S2,P3,60.0160285815,01,C,2014_Dez_17_1537,X,
stim/posf.jpg,stim/negf.jpg,stim/1.jpg,stim/2.jpg,stim/latef.jpg,CD,1,2,,,,,0,58,58,27,,,,,,2,1,0.716424195307,,,,,,PLC_L_D1S2,P3,60.0160285815,01,C,2014_Dez_17_1537,X,
stim/posf.jpg,stim/negf.jpg,stim/1.jpg,stim/2.jpg,stim/latef.jpg,CD,1,2,,,,,0,59,59,20,,,,,,2,1,0.466504573649,,,,,,PLC_L_D1S2,P3,60.0160285815,01,C,2014_Dez_17_1537,X,
