fb_corr,fb_incorr,symbol2,symbol1,fb_late,pair,position,correct,block_01.thisRepN,block_01.thisTrialN,block_01.thisN,block_01.thisIndex,block_02.thisRepN,block_02.thisTrialN,block_02.thisN,block_02.thisIndex,mouse.x,mouse.y,mouse.leftButton,mouse.midButton,mouse.rightButton,buttonBox_2.keys,buttonBox_2.corr,buttonBox_2.rt,mouse_2.x,mouse_2.y,mouse_2.leftButton,mouse_2.midButton,mouse_2.rightButton,expName,Participant,frameRate,SessionNumber,Version,date,Group,
,,,,,,,,,,,,,,,,0.9984375,1.0,1,0,0,,,,,,,,,PLC_L_D1S2,P5,60.0255339423,01,C,2015_Jan_14_1554,X,
stim/posf.jpg,stim/negf.jpg,stim/4.jpg,stim/1.jpg,stim/latef.jpg,EF,1,2,0,0,0,46,,,,,,,,,,None,0,,,,,,,PLC_L_D1S2,P5,60.0255339423,01,C,2015_Jan_14_1554,X,
stim/posf.jpg,stim/negf.jpg,stim/4.jpg,stim/1.jpg,stim/latef.jpg,EF,1,2,0,1,1,47,,,,,,,,,,4,0,0.449892047834,,,,,,PLC_L_D1S2,P5,60.0255339423,01,C,2015_Jan_14_1554,X,
stim/posf.jpg,stim/negf.jpg,stim/6.jpg,stim/2.jpg,stim/latef.jpg,CD,1,2,0,2,2,22,,,,,,,,,,2,1,0.316551211828,,,,,,PLC_L_D1S2,P5,60.0255339423,01,C,2015_Jan_14_1554,X,
stim/posf.jpg,stim/negf.jpg,stim/5.jpg,stim/3.jpg,stim/latef.jpg,AB,1,2,0,3,3,5,,,,,,,,,,4,0,0.583131164686,,,,,,PLC_L_D1S2,P5,60.0255339423,01,C,2015_Jan_14_1554,X,
stim/posf.jpg,stim/negf.jpg,stim/2.jpg,stim/6.jpg,stim/latef.jpg,CD,2,4,0,4,4,37,,,,,,,,,,2,0,0.416561037282,,,,,,PLC_L_D1S2,P5,60.0255339423,01,C,2015_Jan_14_1554,X,
stim/posf.jpg,stim/negf.jpg,stim/2.jpg,stim/6.jpg,stim/latef.jpg,CD,2,4,0,5,5,36,,,,,,,,,,2,0,0.866395136897,,,,,,PLC_L_D1S2,P5,60.0255339423,01,C,2015_Jan_14_1554,X,
stim/posf.jpg,stim/negf.jpg,stim/1.jpg,stim/4.jpg,stim/latef.jpg,EF,2,4,0,6,6,56,,,,,,,,,,4,1,0.549795468472,,,,,,PLC_L_D1S2,P5,60.0255339423,01,C,2015_Jan_14_1554,X,
stim/posf.jpg,stim/negf.jpg,stim/3.jpg,stim/5.jpg,stim/latef.jpg,AB,2,4,0,7,7,12,,,,,,,,,,4,1,0.366524858742,,,,,,PLC_L_D1S2,P5,60.0255339423,01,C,2015_Jan_14_1554,X,
stim/posf.jpg,stim/negf.jpg,stim/3.jpg,stim/5.jpg,stim/latef.jpg,AB,2,4,0,8,8,14,,,,,,,,,,4,1,0.399847806228,,,,,,PLC_L_D1S2,P5,60.0255339423,01,C,2015_Jan_14_1554,X,
stim/posf.jpg,stim/negf.jpg,stim/4.jpg,stim/1.jpg,stim/latef.jpg,EF,1,2,0,9,9,40,,,,,,,,,,4,0,0.883029565832,,,,,,PLC_L_D1S2,P5,60.0255339423,01,C,2015_Jan_14_1554,X,
stim/posf.jpg,stim/negf.jpg,stim/1.jpg,stim/4.jpg,stim/latef.jpg,EF,2,4,0,10,10,53,,,,,,,,,,2,0,0.28328646519,,,,,,PLC_L_D1S2,P5,60.0255339423,01,C,2015_Jan_14_1554,X,
stim/posf.jpg,stim/negf.jpg,stim/3.jpg,stim/5.jpg,stim/latef.jpg,AB,2,4,0,11,11,10,,,,,,,,,,4,1,0.333215724635,,,,,,PLC_L_D1S2,P5,60.0255339423,01,C,2015_Jan_14_1554,X,
stim/posf.jpg,stim/negf.jpg,stim/2.jpg,stim/6.jpg,stim/latef.jpg,CD,2,4,0,12,12,32,,,,,,,,,,2,0,0.949736741315,,,,,,PLC_L_D1S2,P5,60.0255339423,01,C,2015_Jan_14_1554,X,
stim/negf.jpg,stim/posf.jpg,stim/6.jpg,stim/2.jpg,stim/latef.jpg,CD,1,2,0,13,13,29,,,,,,,,,,4,0,0.566430959049,,,,,,PLC_L_D1S2,P5,60.0255339423,01,C,2015_Jan_14_1554,X,
stim/negf.jpg,stim/posf.jpg,stim/6.jpg,stim/2.jpg,stim/latef.jpg,CD,1,2,0,14,14,28,,,,,,,,,,2,1,0.699755590726,,,,,,PLC_L_D1S2,P5,60.0255339423,01,C,2015_Jan_14_1554,X,
stim/posf.jpg,stim/negf.jpg,stim/5.jpg,stim/3.jpg,stim/latef.jpg,AB,1,2,0,15,15,1,,,,,,,,,,4,0,0.683107730364,,,,,,PLC_L_D1S2,P5,60.0255339423,01,C,2015_Jan_14_1554,X,
stim/posf.jpg,stim/negf.jpg,stim/5.jpg,stim/3.jpg,stim/latef.jpg,AB,1,2,0,16,16,7,,,,,,,,,,2,1,0.449853272331,,,,,,PLC_L_D1S2,P5,60.0255339423,01,C,2015_Jan_14_1554,X,
stim/negf.jpg,stim/posf.jpg,stim/5.jpg,stim/3.jpg,stim/latef.jpg,AB,1,2,0,17,17,9,,,,,,,,,,4,0,0.3498759217,,,,,,PLC_L_D1S2,P5,60.0255339423,01,C,2015_Jan_14_1554,X,
stim/posf.jpg,stim/negf.jpg,stim/4.jpg,stim/1.jpg,stim/latef.jpg,EF,1,2,0,18,18,45,,,,,,,,,,4,0,0.366592467003,,,,,,PLC_L_D1S2,P5,60.0255339423,01,C,2015_Jan_14_1554,X,
stim/posf.jpg,stim/negf.jpg,stim/3.jpg,stim/5.jpg,stim/latef.jpg,AB,2,4,0,19,19,11,,,,,,,,,,4,1,0.366583790409,,,,,,PLC_L_D1S2,P5,60.0255339423,01,C,2015_Jan_14_1554,X,
stim/posf.jpg,stim/negf.jpg,stim/2.jpg,stim/6.jpg,stim/latef.jpg,CD,2,4,0,20,20,30,,,,,,,,,,2,0,0.533150729879,,,,,,PLC_L_D1S2,P5,60.0255339423,01,C,2015_Jan_14_1554,X,
stim/posf.jpg,stim/negf.jpg,stim/2.jpg,stim/6.jpg,stim/latef.jpg,CD,2,4,0,21,21,35,,,,,,,,,,4,1,0.416497128228,,,,,,PLC_L_D1S2,P5,60.0255339423,01,C,2015_Jan_14_1554,X,
stim/posf.jpg,stim/negf.jpg,stim/5.jpg,stim/3.jpg,stim/latef.jpg,AB,1,2,0,22,22,3,,,,,,,,,,4,0,0.383217969722,,,,,,PLC_L_D1S2,P5,60.0255339423,01,C,2015_Jan_14_1554,X,
stim/negf.jpg,stim/posf.jpg,stim/1.jpg,stim/4.jpg,stim/latef.jpg,EF,2,4,0,23,23,59,,,,,,,,,,2,0,0.333228735014,,,,,,PLC_L_D1S2,P5,60.0255339423,01,C,2015_Jan_14_1554,X,
stim/negf.jpg,stim/posf.jpg,stim/2.jpg,stim/6.jpg,stim/latef.jpg,CD,2,4,0,24,24,38,,,,,,,,,,2,0,0.399886389251,,,,,,PLC_L_D1S2,P5,60.0255339423,01,C,2015_Jan_14_1554,X,
stim/posf.jpg,stim/negf.jpg,stim/3.jpg,stim/5.jpg,stim/latef.jpg,AB,2,4,0,25,25,17,,,,,,,,,,2,0,0.533139933008,,,,,,PLC_L_D1S2,P5,60.0255339423,01,C,2015_Jan_14_1554,X,
stim/posf.jpg,stim/negf.jpg,stim/2.jpg,stim/6.jpg,stim/latef.jpg,CD,2,4,0,26,26,31,,,,,,,,,,4,1,0.416556068916,,,,,,PLC_L_D1S2,P5,60.0255339423,01,C,2015_Jan_14_1554,X,
stim/posf.jpg,stim/negf.jpg,stim/4.jpg,stim/1.jpg,stim/latef.jpg,EF,1,2,0,27,27,44,,,,,,,,,,4,0,0.816371027394,,,,,,PLC_L_D1S2,P5,60.0255339423,01,C,2015_Jan_14_1554,X,
stim/posf.jpg,stim/negf.jpg,stim/3.jpg,stim/5.jpg,stim/latef.jpg,AB,2,4,0,28,28,16,,,,,,,,,,2,0,0.699743530712,,,,,,PLC_L_D1S2,P5,60.0255339423,01,C,2015_Jan_14_1554,X,
stim/negf.jpg,stim/posf.jpg,stim/1.jpg,stim/4.jpg,stim/latef.jpg,EF,2,4,0,29,29,58,,,,,,,,,,4,1,0.416493272633,,,,,,PLC_L_D1S2,P5,60.0255339423,01,C,2015_Jan_14_1554,X,
stim/negf.jpg,stim/posf.jpg,stim/4.jpg,stim/1.jpg,stim/latef.jpg,EF,1,2,0,30,30,48,,,,,,,,,,2,1,0.783068485694,,,,,,PLC_L_D1S2,P5,60.0255339423,01,C,2015_Jan_14_1554,X,
stim/posf.jpg,stim/negf.jpg,stim/4.jpg,stim/1.jpg,stim/latef.jpg,EF,1,2,0,31,31,42,,,,,,,,,,4,0,0.416541512689,,,,,,PLC_L_D1S2,P5,60.0255339423,01,C,2015_Jan_14_1554,X,
stim/posf.jpg,stim/negf.jpg,stim/1.jpg,stim/4.jpg,stim/latef.jpg,EF,2,4,0,32,32,51,,,,,,,,,,4,1,0.983011963023,,,,,,PLC_L_D1S2,P5,60.0255339423,01,C,2015_Jan_14_1554,X,
stim/posf.jpg,stim/negf.jpg,stim/4.jpg,stim/1.jpg,stim/latef.jpg,EF,1,2,0,33,33,43,,,,,,,,,,4,0,0.549805666853,,,,,,PLC_L_D1S2,P5,60.0255339423,01,C,2015_Jan_14_1554,X,
stim/posf.jpg,stim/negf.jpg,stim/5.jpg,stim/3.jpg,stim/latef.jpg,AB,1,2,0,34,34,6,,,,,,,,,,2,1,0.566522133961,,,,,,PLC_L_D1S2,P5,60.0255339423,01,C,2015_Jan_14_1554,X,
stim/posf.jpg,stim/negf.jpg,stim/3.jpg,stim/5.jpg,stim/latef.jpg,AB,2,4,0,35,35,18,,,,,,,,,,4,1,0.783098238742,,,,,,PLC_L_D1S2,P5,60.0255339423,01,C,2015_Jan_14_1554,X,
stim/posf.jpg,stim/negf.jpg,stim/6.jpg,stim/2.jpg,stim/latef.jpg,CD,1,2,0,36,36,23,,,,,,,,,,2,1,0.433232070315,,,,,,PLC_L_D1S2,P5,60.0255339423,01,C,2015_Jan_14_1554,X,
stim/posf.jpg,stim/negf.jpg,stim/6.jpg,stim/2.jpg,stim/latef.jpg,CD,1,2,0,37,37,26,,,,,,,,,,4,0,1.5828099653,,,,,,PLC_L_D1S2,P5,60.0255339423,01,C,2015_Jan_14_1554,X,
stim/posf.jpg,stim/negf.jpg,stim/5.jpg,stim/3.jpg,stim/latef.jpg,AB,1,2,0,38,38,0,,,,,,,,,,2,1,0.566491574907,,,,,,PLC_L_D1S2,P5,60.0255339423,01,C,2015_Jan_14_1554,X,
stim/posf.jpg,stim/negf.jpg,stim/2.jpg,stim/6.jpg,stim/latef.jpg,CD,2,4,0,39,39,33,,,,,,,,,,4,1,0.399846753608,,,,,,PLC_L_D1S2,P5,60.0255339423,01,C,2015_Jan_14_1554,X,
stim/posf.jpg,stim/negf.jpg,stim/6.jpg,stim/2.jpg,stim/latef.jpg,CD,1,2,0,40,40,25,,,,,,,,,,2,1,0.383184309952,,,,,,PLC_L_D1S2,P5,60.0255339423,01,C,2015_Jan_14_1554,X,
stim/posf.jpg,stim/negf.jpg,stim/1.jpg,stim/4.jpg,stim/latef.jpg,EF,2,4,0,41,41,57,,,,,,,,,,2,0,0.533156408011,,,,,,PLC_L_D1S2,P5,60.0255339423,01,C,2015_Jan_14_1554,X,
stim/posf.jpg,stim/negf.jpg,stim/6.jpg,stim/2.jpg,stim/latef.jpg,CD,1,2,0,42,42,24,,,,,,,,,,4,0,0.383218616331,,,,,,PLC_L_D1S2,P5,60.0255339423,01,C,2015_Jan_14_1554,X,
stim/posf.jpg,stim/negf.jpg,stim/5.jpg,stim/3.jpg,stim/latef.jpg,AB,1,2,0,43,43,4,,,,,,,,,,2,1,0.299875631478,,,,,,PLC_L_D1S2,P5,60.0255339423,01,C,2015_Jan_14_1554,X,
stim/posf.jpg,stim/negf.jpg,stim/3.jpg,stim/5.jpg,stim/latef.jpg,AB,2,4,0,44,44,15,,,,,,,,,,4,1,0.699815478773,,,,,,PLC_L_D1S2,P5,60.0255339423,01,C,2015_Jan_14_1554,X,
stim/posf.jpg,stim/negf.jpg,stim/5.jpg,stim/3.jpg,stim/latef.jpg,AB,1,2,0,45,45,2,,,,,,,,,,2,1,0.383109895753,,,,,,PLC_L_D1S2,P5,60.0255339423,01,C,2015_Jan_14_1554,X,
stim/negf.jpg,stim/posf.jpg,stim/3.jpg,stim/5.jpg,stim/latef.jpg,AB,2,4,0,46,46,19,,,,,,,,,,4,1,0.349875548772,,,,,,PLC_L_D1S2,P5,60.0255339423,01,C,2015_Jan_14_1554,X,
stim/negf.jpg,stim/posf.jpg,stim/2.jpg,stim/6.jpg,stim/latef.jpg,CD,2,4,0,47,47,39,,,,,,,,,,2,0,0.366537580403,,,,,,PLC_L_D1S2,P5,60.0255339423,01,C,2015_Jan_14_1554,X,
stim/posf.jpg,stim/negf.jpg,stim/2.jpg,stim/6.jpg,stim/latef.jpg,CD,2,4,0,48,48,34,,,,,,,,,,4,1,0.549819486246,,,,,,PLC_L_D1S2,P5,60.0255339423,01,C,2015_Jan_14_1554,X,
stim/posf.jpg,stim/negf.jpg,stim/1.jpg,stim/4.jpg,stim/latef.jpg,EF,2,4,0,49,49,55,,,,,,,,,,2,0,0.366478347989,,,,,,PLC_L_D1S2,P5,60.0255339423,01,C,2015_Jan_14_1554,X,
stim/posf.jpg,stim/negf.jpg,stim/6.jpg,stim/2.jpg,stim/latef.jpg,CD,1,2,0,50,50,27,,,,,,,,,,4,0,0.399867905249,,,,,,PLC_L_D1S2,P5,60.0255339423,01,C,2015_Jan_14_1554,X,
stim/posf.jpg,stim/negf.jpg,stim/6.jpg,stim/2.jpg,stim/latef.jpg,CD,1,2,0,51,51,20,,,,,,,,,,2,1,0.383207530742,,,,,,PLC_L_D1S2,P5,60.0255339423,01,C,2015_Jan_14_1554,X,
stim/posf.jpg,stim/negf.jpg,stim/1.jpg,stim/4.jpg,stim/latef.jpg,EF,2,4,0,52,52,52,,,,,,,,,,4,1,0.34987098341,,,,,,PLC_L_D1S2,P5,60.0255339423,01,C,2015_Jan_14_1554,X,
stim/posf.jpg,stim/negf.jpg,stim/5.jpg,stim/3.jpg,stim/latef.jpg,AB,1,2,0,53,53,8,,,,,,,,,,2,1,0.366568786066,,,,,,PLC_L_D1S2,P5,60.0255339423,01,C,2015_Jan_14_1554,X,
stim/posf.jpg,stim/negf.jpg,stim/3.jpg,stim/5.jpg,stim/latef.jpg,AB,2,4,0,54,54,13,,,,,,,,,,4,1,0.316570366499,,,,,,PLC_L_D1S2,P5,60.0255339423,01,C,2015_Jan_14_1554,X,
stim/negf.jpg,stim/posf.jpg,stim/4.jpg,stim/1.jpg,stim/latef.jpg,EF,1,2,0,55,55,49,,,,,,,,,,2,1,0.549809723951,,,,,,PLC_L_D1S2,P5,60.0255339423,01,C,2015_Jan_14_1554,X,
stim/posf.jpg,stim/negf.jpg,stim/6.jpg,stim/2.jpg,stim/latef.jpg,CD,1,2,0,56,56,21,,,,,,,,,,4,0,0.383189308391,,,,,,PLC_L_D1S2,P5,60.0255339423,01,C,2015_Jan_14_1554,X,
stim/posf.jpg,stim/negf.jpg,stim/1.jpg,stim/4.jpg,stim/latef.jpg,EF,2,4,0,57,57,54,,,,,,,,,,2,0,0.249915927264,,,,,,PLC_L_D1S2,P5,60.0255339423,01,C,2015_Jan_14_1554,X,
stim/posf.jpg,stim/negf.jpg,stim/1.jpg,stim/4.jpg,stim/latef.jpg,EF,2,4,0,58,58,50,,,,,,,,,,4,1,0.549804975132,,,,,,PLC_L_D1S2,P5,60.0255339423,01,C,2015_Jan_14_1554,X,
stim/posf.jpg,stim/negf.jpg,stim/4.jpg,stim/1.jpg,stim/latef.jpg,EF,1,2,0,59,59,41,,,,,,,,,,4,0,0.549812499859,,,,,,PLC_L_D1S2,P5,60.0255339423,01,C,2015_Jan_14_1554,X,
,,,,,,,,,,,,,,,,,,,,,,,,0.9984375,1.0,1,0,0,PLC_L_D1S2,P5,60.0255339423,01,C,2015_Jan_14_1554,X,
stim/posf.jpg,stim/negf.jpg,stim/5.jpg,stim/3.jpg,stim/latef.jpg,AB,1,2,,,,,0,0,0,6,,,,,,2,1,0.316541175851,,,,,,PLC_L_D1S2,P5,60.0255339423,01,C,2015_Jan_14_1554,X,
stim/posf.jpg,stim/negf.jpg,stim/2.jpg,stim/6.jpg,stim/latef.jpg,CD,2,4,,,,,0,1,1,30,,,,,,4,1,0.299948334417,,,,,,PLC_L_D1S2,P5,60.0255339423,01,C,2015_Jan_14_1554,X,
stim/posf.jpg,stim/negf.jpg,stim/5.jpg,stim/3.jpg,stim/latef.jpg,AB,1,2,,,,,0,2,2,2,,,,,,2,1,0.29994387131,,,,,,PLC_L_D1S2,P5,60.0255339423,01,C,2015_Jan_14_1554,X,
stim/posf.jpg,stim/negf.jpg,stim/5.jpg,stim/3.jpg,stim/latef.jpg,AB,1,2,,,,,0,3,3,8,,,,,,4,0,0.316521900881,,,,,,PLC_L_D1S2,P5,60.0255339423,01,C,2015_Jan_14_1554,X,
stim/negf.jpg,stim/posf.jpg,stim/1.jpg,stim/4.jpg,stim/latef.jpg,EF,2,4,,,,,0,4,4,59,,,,,,2,0,0.133318472348,,,,,,PLC_L_D1S2,P5,60.0255339423,01,C,2015_Jan_14_1554,X,
stim/negf.jpg,stim/posf.jpg,stim/2.jpg,stim/6.jpg,stim/latef.jpg,CD,2,4,,,,,0,5,5,39,,,,,,2,0,0.283244591978,,,,,,PLC_L_D1S2,P5,60.0255339423,01,C,2015_Jan_14_1554,X,
stim/posf.jpg,stim/negf.jpg,stim/3.jpg,stim/5.jpg,stim/latef.jpg,AB,2,4,,,,,0,6,6,18,,,,,,2,0,0.44988895614,,,,,,PLC_L_D1S2,P5,60.0255339423,01,C,2015_Jan_14_1554,X,
stim/posf.jpg,stim/negf.jpg,stim/6.jpg,stim/2.jpg,stim/latef.jpg,CD,1,2,,,,,0,7,7,22,,,,,,4,0,0.433170624392,,,,,,PLC_L_D1S2,P5,60.0255339423,01,C,2015_Jan_14_1554,X,
stim/posf.jpg,stim/negf.jpg,stim/2.jpg,stim/6.jpg,stim/latef.jpg,CD,2,4,,,,,0,8,8,35,,,,,,2,0,0.299889974173,,,,,,PLC_L_D1S2,P5,60.0255339423,01,C,2015_Jan_14_1554,X,
stim/posf.jpg,stim/negf.jpg,stim/6.jpg,stim/2.jpg,stim/latef.jpg,CD,1,2,,,,,0,9,9,21,,,,,,4,0,0.216600417288,,,,,,PLC_L_D1S2,P5,60.0255339423,01,C,2015_Jan_14_1554,X,
stim/posf.jpg,stim/negf.jpg,stim/6.jpg,stim/2.jpg,stim/latef.jpg,CD,1,2,,,,,0,10,10,27,,,,,,2,1,0.299905958956,,,,,,PLC_L_D1S2,P5,60.0255339423,01,C,2015_Jan_14_1554,X,
stim/negf.jpg,stim/posf.jpg,stim/3.jpg,stim/5.jpg,stim/latef.jpg,AB,2,4,,,,,0,11,11,19,,,,,,2,0,0.316571232655,,,,,,PLC_L_D1S2,P5,60.0255339423,01,C,2015_Jan_14_1554,X,
stim/posf.jpg,stim/negf.jpg,stim/4.jpg,stim/1.jpg,stim/latef.jpg,EF,1,2,,,,,0,12,12,42,,,,,,4,0,0.299921200889,,,,,,PLC_L_D1S2,P5,60.0255339423,01,C,2015_Jan_14_1554,X,
stim/posf.jpg,stim/negf.jpg,stim/4.jpg,stim/1.jpg,stim/latef.jpg,EF,1,2,,,,,0,13,13,44,,,,,,2,1,0.299821839603,,,,,,PLC_L_D1S2,P5,60.0255339423,01,C,2015_Jan_14_1554,X,
stim/posf.jpg,stim/negf.jpg,stim/3.jpg,stim/5.jpg,stim/latef.jpg,AB,2,4,,,,,0,14,14,14,,,,,,4,1,0.333199751882,,,,,,PLC_L_D1S2,P5,60.0255339423,01,C,2015_Jan_14_1554,X,
stim/posf.jpg,stim/negf.jpg,stim/5.jpg,stim/3.jpg,stim/latef.jpg,AB,1,2,,,,,0,15,15,0,,,,,,4,0,0.299894834269,,,,,,PLC_L_D1S2,P5,60.0255339423,01,C,2015_Jan_14_1554,X,
stim/posf.jpg,stim/negf.jpg,stim/1.jpg,stim/4.jpg,stim/latef.jpg,EF,2,4,,,,,0,16,16,54,,,,,,2,0,0.216587109168,,,,,,PLC_L_D1S2,P5,60.0255339423,01,C,2015_Jan_14_1554,X,
stim/posf.jpg,stim/negf.jpg,stim/2.jpg,stim/6.jpg,stim/latef.jpg,CD,2,4,,,,,0,17,17,36,,,,,,4,1,0.249932188735,,,,,,PLC_L_D1S2,P5,60.0255339423,01,C,2015_Jan_14_1554,X,
stim/posf.jpg,stim/negf.jpg,stim/1.jpg,stim/4.jpg,stim/latef.jpg,EF,2,4,,,,,0,18,18,50,,,,,,4,1,0.316591707613,,,,,,PLC_L_D1S2,P5,60.0255339423,01,C,2015_Jan_14_1554,X,
stim/posf.jpg,stim/negf.jpg,stim/3.jpg,stim/5.jpg,stim/latef.jpg,AB,2,4,,,,,0,19,19,11,,,,,,4,1,0.333208999898,,,,,,PLC_L_D1S2,P5,60.0255339423,01,C,2015_Jan_14_1554,X,
stim/posf.jpg,stim/negf.jpg,stim/2.jpg,stim/6.jpg,stim/latef.jpg,CD,2,4,,,,,0,20,20,32,,,,,,4,1,0.383211732199,,,,,,PLC_L_D1S2,P5,60.0255339423,01,C,2015_Jan_14_1554,X,
stim/posf.jpg,stim/negf.jpg,stim/1.jpg,stim/4.jpg,stim/latef.jpg,EF,2,4,,,,,0,21,21,51,,,,,,2,0,0.299911222054,,,,,,PLC_L_D1S2,P5,60.0255339423,01,C,2015_Jan_14_1554,X,
stim/negf.jpg,stim/posf.jpg,stim/5.jpg,stim/3.jpg,stim/latef.jpg,AB,1,2,,,,,0,22,22,9,,,,,,4,0,0.499809181099,,,,,,PLC_L_D1S2,P5,60.0255339423,01,C,2015_Jan_14_1554,X,
stim/posf.jpg,stim/negf.jpg,stim/6.jpg,stim/2.jpg,stim/latef.jpg,CD,1,2,,,,,0,23,23,25,,,,,,2,1,0.299898512423,,,,,,PLC_L_D1S2,P5,60.0255339423,01,C,2015_Jan_14_1554,X,
stim/posf.jpg,stim/negf.jpg,stim/4.jpg,stim/1.jpg,stim/latef.jpg,EF,1,2,,,,,0,24,24,47,,,,,,4,0,0.516455994857,,,,,,PLC_L_D1S2,P5,60.0255339423,01,C,2015_Jan_14_1554,X,
stim/posf.jpg,stim/negf.jpg,stim/6.jpg,stim/2.jpg,stim/latef.jpg,CD,1,2,,,,,0,25,25,26,,,,,,2,1,0.499828615466,,,,,,PLC_L_D1S2,P5,60.0255339423,01,C,2015_Jan_14_1554,X,
stim/posf.jpg,stim/negf.jpg,stim/3.jpg,stim/5.jpg,stim/latef.jpg,AB,2,4,,,,,0,26,26,17,,,,,,4,1,0.449831705658,,,,,,PLC_L_D1S2,P5,60.0255339423,01,C,2015_Jan_14_1554,X,
stim/posf.jpg,stim/negf.jpg,stim/3.jpg,stim/5.jpg,stim/latef.jpg,AB,2,4,,,,,0,27,27,15,,,,,,2,0,0.516401144348,,,,,,PLC_L_D1S2,P5,60.0255339423,01,C,2015_Jan_14_1554,X,
stim/posf.jpg,stim/negf.jpg,stim/6.jpg,stim/2.jpg,stim/latef.jpg,CD,1,2,,,,,0,28,28,24,,,,,,4,0,0.649769640192,,,,,,PLC_L_D1S2,P5,60.0255339423,01,C,2015_Jan_14_1554,X,
stim/posf.jpg,stim/negf.jpg,stim/3.jpg,stim/5.jpg,stim/latef.jpg,AB,2,4,,,,,0,29,29,12,,,,,,2,0,0.383202902223,,,,,,PLC_L_D1S2,P5,60.0255339423,01,C,2015_Jan_14_1554,X,
stim/posf.jpg,stim/negf.jpg,stim/2.jpg,stim/6.jpg,stim/latef.jpg,CD,2,4,,,,,0,30,30,37,,,,,,4,1,0.3665312707,,,,,,PLC_L_D1S2,P5,60.0255339423,01,C,2015_Jan_14_1554,X,
stim/negf.jpg,stim/posf.jpg,stim/4.jpg,stim/1.jpg,stim/latef.jpg,EF,1,2,,,,,0,31,31,48,,,,,,2,1,0.333235234189,,,,,,PLC_L_D1S2,P5,60.0255339423,01,C,2015_Jan_14_1554,X,
stim/negf.jpg,stim/posf.jpg,stim/6.jpg,stim/2.jpg,stim/latef.jpg,CD,1,2,,,,,0,32,32,29,,,,,,4,0,0.383192382041,,,,,,PLC_L_D1S2,P5,60.0255339423,01,C,2015_Jan_14_1554,X,
stim/posf.jpg,stim/negf.jpg,stim/4.jpg,stim/1.jpg,stim/latef.jpg,EF,1,2,,,,,0,33,33,43,,,,,,2,1,0.366532720308,,,,,,PLC_L_D1S2,P5,60.0255339423,01,C,2015_Jan_14_1554,X,
stim/posf.jpg,stim/negf.jpg,stim/1.jpg,stim/4.jpg,stim/latef.jpg,EF,2,4,,,,,0,34,34,56,,,,,,4,1,0.616438698812,,,,,,PLC_L_D1S2,P5,60.0255339423,01,C,2015_Jan_14_1554,X,
stim/posf.jpg,stim/negf.jpg,stim/6.jpg,stim/2.jpg,stim/latef.jpg,CD,1,2,,,,,0,35,35,20,,,,,,2,1,0.366542620948,,,,,,PLC_L_D1S2,P5,60.0255339423,01,C,2015_Jan_14_1554,X,
stim/posf.jpg,stim/negf.jpg,stim/1.jpg,stim/4.jpg,stim/latef.jpg,EF,2,4,,,,,0,36,36,55,,,,,,4,1,0.549817137401,,,,,,PLC_L_D1S2,P5,60.0255339423,01,C,2015_Jan_14_1554,X,
stim/posf.jpg,stim/negf.jpg,stim/3.jpg,stim/5.jpg,stim/latef.jpg,AB,2,4,,,,,0,37,37,13,,,,,,2,0,0.516491014011,,,,,,PLC_L_D1S2,P5,60.0255339423,01,C,2015_Jan_14_1554,X,
stim/posf.jpg,stim/negf.jpg,stim/1.jpg,stim/4.jpg,stim/latef.jpg,EF,2,4,,,,,0,38,38,52,,,,,,4,1,0.499776802517,,,,,,PLC_L_D1S2,P5,60.0255339423,01,C,2015_Jan_14_1554,X,
stim/negf.jpg,stim/posf.jpg,stim/4.jpg,stim/1.jpg,stim/latef.jpg,EF,1,2,,,,,0,39,39,49,,,,,,2,1,0.733097864309,,,,,,PLC_L_D1S2,P5,60.0255339423,01,C,2015_Jan_14_1554,X,
stim/posf.jpg,stim/negf.jpg,stim/3.jpg,stim/5.jpg,stim/latef.jpg,AB,2,4,,,,,0,40,40,16,,,,,,4,1,0.61645898129,,,,,,PLC_L_D1S2,P5,60.0255339423,01,C,2015_Jan_14_1554,X,
stim/posf.jpg,stim/negf.jpg,stim/1.jpg,stim/4.jpg,stim/latef.jpg,EF,2,4,,,,,0,41,41,53,,,,,,2,0,0.433201120288,,,,,,PLC_L_D1S2,P5,60.0255339423,01,C,2015_Jan_14_1554,X,
stim/posf.jpg,stim/negf.jpg,stim/5.jpg,stim/3.jpg,stim/latef.jpg,AB,1,2,,,,,0,42,42,5,,,,,,4,0,0.749749387789,,,,,,PLC_L_D1S2,P5,60.0255339423,01,C,2015_Jan_14_1554,X,
stim/posf.jpg,stim/negf.jpg,stim/5.jpg,stim/3.jpg,stim/latef.jpg,AB,1,2,,,,,0,43,43,4,,,,,,2,1,0.666452309184,,,,,,PLC_L_D1S2,P5,60.0255339423,01,C,2015_Jan_14_1554,X,
stim/posf.jpg,stim/negf.jpg,stim/2.jpg,stim/6.jpg,stim/latef.jpg,CD,2,4,,,,,0,44,44,34,,,,,,4,1,0.683115164867,,,,,,PLC_L_D1S2,P5,60.0255339423,01,C,2015_Jan_14_1554,X,
stim/posf.jpg,stim/negf.jpg,stim/2.jpg,stim/6.jpg,stim/latef.jpg,CD,2,4,,,,,0,45,45,31,,,,,,4,1,1.3162775307,,,,,,PLC_L_D1S2,P5,60.0255339423,01,C,2015_Jan_14_1554,X,
stim/posf.jpg,stim/negf.jpg,stim/4.jpg,stim/1.jpg,stim/latef.jpg,EF,1,2,,,,,0,46,46,41,,,,,,2,1,0.43317497923,,,,,,PLC_L_D1S2,P5,60.0255339423,01,C,2015_Jan_14_1554,X,
stim/negf.jpg,stim/posf.jpg,stim/2.jpg,stim/6.jpg,stim/latef.jpg,CD,2,4,,,,,0,47,47,38,,,,,,2,0,0.466559799701,,,,,,PLC_L_D1S2,P5,60.0255339423,01,C,2015_Jan_14_1554,X,
stim/posf.jpg,stim/negf.jpg,stim/4.jpg,stim/1.jpg,stim/latef.jpg,EF,1,2,,,,,0,48,48,40,,,,,,4,0,0.599481335173,,,,,,PLC_L_D1S2,P5,60.0255339423,01,C,2015_Jan_14_1554,X,
stim/negf.jpg,stim/posf.jpg,stim/1.jpg,stim/4.jpg,stim/latef.jpg,EF,2,4,,,,,0,49,49,58,,,,,,2,0,0.416519786619,,,,,,PLC_L_D1S2,P5,60.0255339423,01,C,2015_Jan_14_1554,X,
stim/posf.jpg,stim/negf.jpg,stim/5.jpg,stim/3.jpg,stim/latef.jpg,AB,1,2,,,,,0,50,50,1,,,,,,2,1,0.516483044176,,,,,,PLC_L_D1S2,P5,60.0255339423,01,C,2015_Jan_14_1554,X,
stim/negf.jpg,stim/posf.jpg,stim/6.jpg,stim/2.jpg,stim/latef.jpg,CD,1,2,,,,,0,51,51,28,,,,,,2,1,0.616520150525,,,,,,PLC_L_D1S2,P5,60.0255339423,01,C,2015_Jan_14_1554,X,
stim/posf.jpg,stim/negf.jpg,stim/4.jpg,stim/1.jpg,stim/latef.jpg,EF,1,2,,,,,0,52,52,45,,,,,,4,0,0.415524459499,,,,,,PLC_L_D1S2,P5,60.0255339423,01,C,2015_Jan_14_1554,X,
stim/posf.jpg,stim/negf.jpg,stim/4.jpg,stim/1.jpg,stim/latef.jpg,EF,1,2,,,,,0,53,53,46,,,,,,2,1,0.366499634967,,,,,,PLC_L_D1S2,P5,60.0255339423,01,C,2015_Jan_14_1554,X,
stim/posf.jpg,stim/negf.jpg,stim/6.jpg,stim/2.jpg,stim/latef.jpg,CD,1,2,,,,,0,54,54,23,,,,,,4,0,0.366565423698,,,,,,PLC_L_D1S2,P5,60.0255339423,01,C,2015_Jan_14_1554,X,
stim/posf.jpg,stim/negf.jpg,stim/5.jpg,stim/3.jpg,stim/latef.jpg,AB,1,2,,,,,0,55,55,3,,,,,,2,1,0.399879562261,,,,,,PLC_L_D1S2,P5,60.0255339423,01,C,2015_Jan_14_1554,X,
stim/posf.jpg,stim/negf.jpg,stim/2.jpg,stim/6.jpg,stim/latef.jpg,CD,2,4,,,,,0,56,56,33,,,,,,4,1,0.533205703695,,,,,,PLC_L_D1S2,P5,60.0255339423,01,C,2015_Jan_14_1554,X,
stim/posf.jpg,stim/negf.jpg,stim/3.jpg,stim/5.jpg,stim/latef.jpg,AB,2,4,,,,,0,57,57,10,,,,,,2,0,0.749738566858,,,,,,PLC_L_D1S2,P5,60.0255339423,01,C,2015_Jan_14_1554,X,
stim/posf.jpg,stim/negf.jpg,stim/1.jpg,stim/4.jpg,stim/latef.jpg,EF,2,4,,,,,0,58,58,57,,,,,,4,1,0.483173031883,,,,,,PLC_L_D1S2,P5,60.0255339423,01,C,2015_Jan_14_1554,X,
stim/posf.jpg,stim/negf.jpg,stim/5.jpg,stim/3.jpg,stim/latef.jpg,AB,1,2,,,,,0,59,59,7,,,,,,2,1,0.399804143562,,,,,,PLC_L_D1S2,P5,60.0255339423,01,C,2015_Jan_14_1554,X,
