fb_corr,fb_incorr,symbol2,symbol1,fb_late,pair,position,correct,block_01.thisRepN,block_01.thisTrialN,block_01.thisN,block_01.thisIndex,block_02.thisRepN,block_02.thisTrialN,block_02.thisN,block_02.thisIndex,mouse.x,mouse.y,mouse.leftButton,mouse.midButton,mouse.rightButton,buttonBox_2.keys,buttonBox_2.corr,buttonBox_2.rt,mouse_2.x,mouse_2.y,mouse_2.leftButton,mouse_2.midButton,mouse_2.rightButton,expName,Participant,frameRate,SessionNumber,Version,date,Group,
,,,,,,,,,,,,,,,,0.9984375,1.0,1,0,0,,,,,,,,,PLC_L_D1S2,P6,60.0178962093,01,A,2015_Jan_07_1527,X,
stim/posf.jpg,stim/negf.jpg,stim/1.jpg,stim/5.jpg,stim/latef.jpg,EF,2,4,0,0,0,57,,,,,,,,,,2,0,1.31635670409,,,,,,PLC_L_D1S2,P6,60.0178962093,01,A,2015_Jan_07_1527,X,
stim/posf.jpg,stim/negf.jpg,stim/5.jpg,stim/1.jpg,stim/latef.jpg,EF,1,2,0,1,1,43,,,,,,,,,,2,1,1.49946988669,,,,,,PLC_L_D1S2,P6,60.0178962093,01,A,2015_Jan_07_1527,X,
stim/posf.jpg,stim/negf.jpg,stim/3.jpg,stim/4.jpg,stim/latef.jpg,AB,2,4,0,2,2,12,,,,,,,,,,2,0,1.33285892888,,,,,,PLC_L_D1S2,P6,60.0178962093,01,A,2015_Jan_07_1527,X,
stim/posf.jpg,stim/negf.jpg,stim/5.jpg,stim/1.jpg,stim/latef.jpg,EF,1,2,0,3,3,45,,,,,,,,,,2,1,1.59946205818,,,,,,PLC_L_D1S2,P6,60.0178962093,01,A,2015_Jan_07_1527,X,
stim/posf.jpg,stim/negf.jpg,stim/5.jpg,stim/1.jpg,stim/latef.jpg,EF,1,2,0,4,4,46,,,,,,,,,,2,1,1.31623940572,,,,,,PLC_L_D1S2,P6,60.0178962093,01,A,2015_Jan_07_1527,X,
stim/posf.jpg,stim/negf.jpg,stim/3.jpg,stim/4.jpg,stim/latef.jpg,AB,2,4,0,5,5,17,,,,,,,,,,4,1,1.29958626777,,,,,,PLC_L_D1S2,P6,60.0178962093,01,A,2015_Jan_07_1527,X,
stim/posf.jpg,stim/negf.jpg,stim/4.jpg,stim/3.jpg,stim/latef.jpg,AB,1,2,0,6,6,5,,,,,,,,,,2,1,0.982986840701,,,,,,PLC_L_D1S2,P6,60.0178962093,01,A,2015_Jan_07_1527,X,
stim/negf.jpg,stim/posf.jpg,stim/5.jpg,stim/1.jpg,stim/latef.jpg,EF,1,2,0,7,7,48,,,,,,,,,,2,1,1.49951174803,,,,,,PLC_L_D1S2,P6,60.0178962093,01,A,2015_Jan_07_1527,X,
stim/posf.jpg,stim/negf.jpg,stim/2.jpg,stim/6.jpg,stim/latef.jpg,CD,2,4,0,8,8,33,,,,,,,,,,2,0,1.09963505838,,,,,,PLC_L_D1S2,P6,60.0178962093,01,A,2015_Jan_07_1527,X,
stim/posf.jpg,stim/negf.jpg,stim/6.jpg,stim/2.jpg,stim/latef.jpg,CD,1,2,0,9,9,20,,,,,,,,,,2,1,0.716427774227,,,,,,PLC_L_D1S2,P6,60.0178962093,01,A,2015_Jan_07_1527,X,
stim/posf.jpg,stim/negf.jpg,stim/3.jpg,stim/4.jpg,stim/latef.jpg,AB,2,4,0,10,10,10,,,,,,,,,,4,1,1.63281071571,,,,,,PLC_L_D1S2,P6,60.0178962093,01,A,2015_Jan_07_1527,X,
stim/posf.jpg,stim/negf.jpg,stim/2.jpg,stim/6.jpg,stim/latef.jpg,CD,2,4,0,11,11,36,,,,,,,,,,4,1,1.6161358065,,,,,,PLC_L_D1S2,P6,60.0178962093,01,A,2015_Jan_07_1527,X,
stim/negf.jpg,stim/posf.jpg,stim/2.jpg,stim/6.jpg,stim/latef.jpg,CD,2,4,0,12,12,38,,,,,,,,,,4,1,0.833051152998,,,,,,PLC_L_D1S2,P6,60.0178962093,01,A,2015_Jan_07_1527,X,
stim/posf.jpg,stim/negf.jpg,stim/1.jpg,stim/5.jpg,stim/latef.jpg,EF,2,4,0,13,13,53,,,,,,,,,,4,1,1.03303499372,,,,,,PLC_L_D1S2,P6,60.0178962093,01,A,2015_Jan_07_1527,X,
stim/posf.jpg,stim/negf.jpg,stim/6.jpg,stim/2.jpg,stim/latef.jpg,CD,1,2,0,14,14,27,,,,,,,,,,2,1,1.24957484229,,,,,,PLC_L_D1S2,P6,60.0178962093,01,A,2015_Jan_07_1527,X,
stim/posf.jpg,stim/negf.jpg,stim/1.jpg,stim/5.jpg,stim/latef.jpg,EF,2,4,0,15,15,54,,,,,,,,,,4,1,1.18295582439,,,,,,PLC_L_D1S2,P6,60.0178962093,01,A,2015_Jan_07_1527,X,
stim/posf.jpg,stim/negf.jpg,stim/1.jpg,stim/5.jpg,stim/latef.jpg,EF,2,4,0,16,16,51,,,,,,,,,,4,1,0.816392992534,,,,,,PLC_L_D1S2,P6,60.0178962093,01,A,2015_Jan_07_1527,X,
stim/posf.jpg,stim/negf.jpg,stim/3.jpg,stim/4.jpg,stim/latef.jpg,AB,2,4,0,17,17,11,,,,,,,,,,4,1,1.09957015361,,,,,,PLC_L_D1S2,P6,60.0178962093,01,A,2015_Jan_07_1527,X,
stim/negf.jpg,stim/posf.jpg,stim/2.jpg,stim/6.jpg,stim/latef.jpg,CD,2,4,0,18,18,39,,,,,,,,,,4,1,1.33282621634,,,,,,PLC_L_D1S2,P6,60.0178962093,01,A,2015_Jan_07_1527,X,
stim/posf.jpg,stim/negf.jpg,stim/5.jpg,stim/1.jpg,stim/latef.jpg,EF,1,2,0,19,19,47,,,,,,,,,,2,1,1.08297904828,,,,,,PLC_L_D1S2,P6,60.0178962093,01,A,2015_Jan_07_1527,X,
stim/posf.jpg,stim/negf.jpg,stim/6.jpg,stim/2.jpg,stim/latef.jpg,CD,1,2,0,20,20,25,,,,,,,,,,2,1,1.3328993376,,,,,,PLC_L_D1S2,P6,60.0178962093,01,A,2015_Jan_07_1527,X,
stim/posf.jpg,stim/negf.jpg,stim/6.jpg,stim/2.jpg,stim/latef.jpg,CD,1,2,0,21,21,23,,,,,,,,,,2,1,0.633061679236,,,,,,PLC_L_D1S2,P6,60.0178962093,01,A,2015_Jan_07_1527,X,
stim/posf.jpg,stim/negf.jpg,stim/1.jpg,stim/5.jpg,stim/latef.jpg,EF,2,4,0,22,22,55,,,,,,,,,,4,1,0.983073676138,,,,,,PLC_L_D1S2,P6,60.0178962093,01,A,2015_Jan_07_1527,X,
stim/posf.jpg,stim/negf.jpg,stim/4.jpg,stim/3.jpg,stim/latef.jpg,AB,1,2,0,23,23,2,,,,,,,,,,2,1,0.816402225547,,,,,,PLC_L_D1S2,P6,60.0178962093,01,A,2015_Jan_07_1527,X,
stim/posf.jpg,stim/negf.jpg,stim/6.jpg,stim/2.jpg,stim/latef.jpg,CD,1,2,0,24,24,26,,,,,,,,,,2,1,1.36620928264,,,,,,PLC_L_D1S2,P6,60.0178962093,01,A,2015_Jan_07_1527,X,
stim/posf.jpg,stim/negf.jpg,stim/1.jpg,stim/5.jpg,stim/latef.jpg,EF,2,4,0,25,25,52,,,,,,,,,,4,1,1.6494195773,,,,,,PLC_L_D1S2,P6,60.0178962093,01,A,2015_Jan_07_1527,X,
stim/posf.jpg,stim/negf.jpg,stim/6.jpg,stim/2.jpg,stim/latef.jpg,CD,1,2,0,26,26,24,,,,,,,,,,2,1,1.23291515402,,,,,,PLC_L_D1S2,P6,60.0178962093,01,A,2015_Jan_07_1527,X,
stim/negf.jpg,stim/posf.jpg,stim/5.jpg,stim/1.jpg,stim/latef.jpg,EF,1,2,0,27,27,49,,,,,,,,,,None,0,,,,,,,PLC_L_D1S2,P6,60.0178962093,01,A,2015_Jan_07_1527,X,
stim/posf.jpg,stim/negf.jpg,stim/4.jpg,stim/3.jpg,stim/latef.jpg,AB,1,2,0,28,28,1,,,,,,,,,,2,1,1.06631474651,,,,,,PLC_L_D1S2,P6,60.0178962093,01,A,2015_Jan_07_1527,X,
stim/posf.jpg,stim/negf.jpg,stim/2.jpg,stim/6.jpg,stim/latef.jpg,CD,2,4,0,29,29,35,,,,,,,,,,4,1,0.899654886805,,,,,,PLC_L_D1S2,P6,60.0178962093,01,A,2015_Jan_07_1527,X,
stim/posf.jpg,stim/negf.jpg,stim/4.jpg,stim/3.jpg,stim/latef.jpg,AB,1,2,0,30,30,6,,,,,,,,,,2,1,0.766412956294,,,,,,PLC_L_D1S2,P6,60.0178962093,01,A,2015_Jan_07_1527,X,
stim/posf.jpg,stim/negf.jpg,stim/2.jpg,stim/6.jpg,stim/latef.jpg,CD,2,4,0,31,31,37,,,,,,,,,,4,1,0.783076870099,,,,,,PLC_L_D1S2,P6,60.0178962093,01,A,2015_Jan_07_1527,X,
stim/negf.jpg,stim/posf.jpg,stim/4.jpg,stim/3.jpg,stim/latef.jpg,AB,1,2,0,32,32,9,,,,,,,,,,2,1,0.89969677822,,,,,,PLC_L_D1S2,P6,60.0178962093,01,A,2015_Jan_07_1527,X,
stim/posf.jpg,stim/negf.jpg,stim/5.jpg,stim/1.jpg,stim/latef.jpg,EF,1,2,0,33,33,42,,,,,,,,,,2,1,1.01633451177,,,,,,PLC_L_D1S2,P6,60.0178962093,01,A,2015_Jan_07_1527,X,
stim/negf.jpg,stim/posf.jpg,stim/1.jpg,stim/5.jpg,stim/latef.jpg,EF,2,4,0,34,34,59,,,,,,,,,,4,1,0.983001709761,,,,,,PLC_L_D1S2,P6,60.0178962093,01,A,2015_Jan_07_1527,X,
stim/posf.jpg,stim/negf.jpg,stim/4.jpg,stim/3.jpg,stim/latef.jpg,AB,1,2,0,35,35,3,,,,,,,,,,2,1,0.783036235818,,,,,,PLC_L_D1S2,P6,60.0178962093,01,A,2015_Jan_07_1527,X,
stim/posf.jpg,stim/negf.jpg,stim/5.jpg,stim/1.jpg,stim/latef.jpg,EF,1,2,0,36,36,41,,,,,,,,,,2,1,1.0496532808,,,,,,PLC_L_D1S2,P6,60.0178962093,01,A,2015_Jan_07_1527,X,
stim/posf.jpg,stim/negf.jpg,stim/2.jpg,stim/6.jpg,stim/latef.jpg,CD,2,4,0,37,37,30,,,,,,,,,,4,1,0.816395654168,,,,,,PLC_L_D1S2,P6,60.0178962093,01,A,2015_Jan_07_1527,X,
stim/posf.jpg,stim/negf.jpg,stim/3.jpg,stim/4.jpg,stim/latef.jpg,AB,2,4,0,38,38,18,,,,,,,,,,4,1,0.749788624145,,,,,,PLC_L_D1S2,P6,60.0178962093,01,A,2015_Jan_07_1527,X,
stim/posf.jpg,stim/negf.jpg,stim/5.jpg,stim/1.jpg,stim/latef.jpg,EF,1,2,0,39,39,40,,,,,,,,,,2,1,0.866372896445,,,,,,PLC_L_D1S2,P6,60.0178962093,01,A,2015_Jan_07_1527,X,
stim/negf.jpg,stim/posf.jpg,stim/6.jpg,stim/2.jpg,stim/latef.jpg,CD,1,2,0,40,40,29,,,,,,,,,,2,1,0.99967116939,,,,,,PLC_L_D1S2,P6,60.0178962093,01,A,2015_Jan_07_1527,X,
stim/posf.jpg,stim/negf.jpg,stim/6.jpg,stim/2.jpg,stim/latef.jpg,CD,1,2,0,41,41,22,,,,,,,,,,2,1,0.633140505711,,,,,,PLC_L_D1S2,P6,60.0178962093,01,A,2015_Jan_07_1527,X,
stim/posf.jpg,stim/negf.jpg,stim/1.jpg,stim/5.jpg,stim/latef.jpg,EF,2,4,0,42,42,56,,,,,,,,,,4,1,0.749754831919,,,,,,PLC_L_D1S2,P6,60.0178962093,01,A,2015_Jan_07_1527,X,
stim/negf.jpg,stim/posf.jpg,stim/3.jpg,stim/4.jpg,stim/latef.jpg,AB,2,4,0,43,43,19,,,,,,,,,,4,1,0.799796344389,,,,,,PLC_L_D1S2,P6,60.0178962093,01,A,2015_Jan_07_1527,X,
stim/posf.jpg,stim/negf.jpg,stim/4.jpg,stim/3.jpg,stim/latef.jpg,AB,1,2,0,44,44,7,,,,,,,,,,2,1,1.09965991233,,,,,,PLC_L_D1S2,P6,60.0178962093,01,A,2015_Jan_07_1527,X,
stim/posf.jpg,stim/negf.jpg,stim/2.jpg,stim/6.jpg,stim/latef.jpg,CD,2,4,0,45,45,32,,,,,,,,,,4,1,0.816390818114,,,,,,PLC_L_D1S2,P6,60.0178962093,01,A,2015_Jan_07_1527,X,
stim/posf.jpg,stim/negf.jpg,stim/4.jpg,stim/3.jpg,stim/latef.jpg,AB,1,2,0,46,46,4,,,,,,,,,,2,1,0.849752119158,,,,,,PLC_L_D1S2,P6,60.0178962093,01,A,2015_Jan_07_1527,X,
stim/posf.jpg,stim/negf.jpg,stim/4.jpg,stim/3.jpg,stim/latef.jpg,AB,1,2,0,47,47,0,,,,,,,,,,2,1,0.583113693881,,,,,,PLC_L_D1S2,P6,60.0178962093,01,A,2015_Jan_07_1527,X,
stim/posf.jpg,stim/negf.jpg,stim/3.jpg,stim/4.jpg,stim/latef.jpg,AB,2,4,0,48,48,16,,,,,,,,,,4,1,0.666458258209,,,,,,PLC_L_D1S2,P6,60.0178962093,01,A,2015_Jan_07_1527,X,
stim/posf.jpg,stim/negf.jpg,stim/1.jpg,stim/5.jpg,stim/latef.jpg,EF,2,4,0,49,49,50,,,,,,,,,,4,1,0.933040443305,,,,,,PLC_L_D1S2,P6,60.0178962093,01,A,2015_Jan_07_1527,X,
stim/posf.jpg,stim/negf.jpg,stim/4.jpg,stim/3.jpg,stim/latef.jpg,AB,1,2,0,50,50,8,,,,,,,,,,2,1,0.733051778559,,,,,,PLC_L_D1S2,P6,60.0178962093,01,A,2015_Jan_07_1527,X,
stim/posf.jpg,stim/negf.jpg,stim/3.jpg,stim/4.jpg,stim/latef.jpg,AB,2,4,0,51,51,13,,,,,,,,,,4,1,0.516483217419,,,,,,PLC_L_D1S2,P6,60.0178962093,01,A,2015_Jan_07_1527,X,
stim/posf.jpg,stim/negf.jpg,stim/3.jpg,stim/4.jpg,stim/latef.jpg,AB,2,4,0,52,52,14,,,,,,,,,,4,1,0.433192622611,,,,,,PLC_L_D1S2,P6,60.0178962093,01,A,2015_Jan_07_1527,X,
stim/posf.jpg,stim/negf.jpg,stim/6.jpg,stim/2.jpg,stim/latef.jpg,CD,1,2,0,53,53,21,,,,,,,,,,2,1,0.733103254863,,,,,,PLC_L_D1S2,P6,60.0178962093,01,A,2015_Jan_07_1527,X,
stim/negf.jpg,stim/posf.jpg,stim/6.jpg,stim/2.jpg,stim/latef.jpg,CD,1,2,0,54,54,28,,,,,,,,,,2,1,0.549813866061,,,,,,PLC_L_D1S2,P6,60.0178962093,01,A,2015_Jan_07_1527,X,
stim/posf.jpg,stim/negf.jpg,stim/5.jpg,stim/1.jpg,stim/latef.jpg,EF,1,2,0,55,55,44,,,,,,,,,,2,1,0.999672119759,,,,,,PLC_L_D1S2,P6,60.0178962093,01,A,2015_Jan_07_1527,X,
stim/posf.jpg,stim/negf.jpg,stim/2.jpg,stim/6.jpg,stim/latef.jpg,CD,2,4,0,56,56,31,,,,,,,,,,4,1,0.983012669078,,,,,,PLC_L_D1S2,P6,60.0178962093,01,A,2015_Jan_07_1527,X,
stim/posf.jpg,stim/negf.jpg,stim/3.jpg,stim/4.jpg,stim/latef.jpg,AB,2,4,0,57,57,15,,,,,,,,,,4,1,0.633124812595,,,,,,PLC_L_D1S2,P6,60.0178962093,01,A,2015_Jan_07_1527,X,
stim/negf.jpg,stim/posf.jpg,stim/1.jpg,stim/5.jpg,stim/latef.jpg,EF,2,4,0,58,58,58,,,,,,,,,,4,1,0.783128472718,,,,,,PLC_L_D1S2,P6,60.0178962093,01,A,2015_Jan_07_1527,X,
stim/posf.jpg,stim/negf.jpg,stim/2.jpg,stim/6.jpg,stim/latef.jpg,CD,2,4,0,59,59,34,,,,,,,,,,4,1,0.699699978196,,,,,,PLC_L_D1S2,P6,60.0178962093,01,A,2015_Jan_07_1527,X,
,,,,,,,,,,,,,,,,,,,,,,,,0.9984375,1.0,1,0,0,PLC_L_D1S2,P6,60.0178962093,01,A,2015_Jan_07_1527,X,
stim/posf.jpg,stim/negf.jpg,stim/6.jpg,stim/2.jpg,stim/latef.jpg,CD,1,2,,,,,0,0,0,23,,,,,,2,1,1.21625413644,,,,,,PLC_L_D1S2,P6,60.0178962093,01,A,2015_Jan_07_1527,X,
stim/posf.jpg,stim/negf.jpg,stim/1.jpg,stim/5.jpg,stim/latef.jpg,EF,2,4,,,,,0,1,1,57,,,,,,4,1,1.01634852069,,,,,,PLC_L_D1S2,P6,60.0178962093,01,A,2015_Jan_07_1527,X,
stim/posf.jpg,stim/negf.jpg,stim/4.jpg,stim/3.jpg,stim/latef.jpg,AB,1,2,,,,,0,2,2,3,,,,,,2,1,0.883034557634,,,,,,PLC_L_D1S2,P6,60.0178962093,01,A,2015_Jan_07_1527,X,
stim/negf.jpg,stim/posf.jpg,stim/5.jpg,stim/1.jpg,stim/latef.jpg,EF,1,2,,,,,0,3,3,49,,,,,,2,1,1.29959739852,,,,,,PLC_L_D1S2,P6,60.0178962093,01,A,2015_Jan_07_1527,X,
stim/negf.jpg,stim/posf.jpg,stim/1.jpg,stim/5.jpg,stim/latef.jpg,EF,2,4,,,,,0,4,4,59,,,,,,4,1,0.816322162991,,,,,,PLC_L_D1S2,P6,60.0178962093,01,A,2015_Jan_07_1527,X,
stim/posf.jpg,stim/negf.jpg,stim/1.jpg,stim/5.jpg,stim/latef.jpg,EF,2,4,,,,,0,5,5,56,,,,,,4,1,0.599801691716,,,,,,PLC_L_D1S2,P6,60.0178962093,01,A,2015_Jan_07_1527,X,
stim/negf.jpg,stim/posf.jpg,stim/5.jpg,stim/1.jpg,stim/latef.jpg,EF,1,2,,,,,0,6,6,48,,,,,,2,1,1.34955705295,,,,,,PLC_L_D1S2,P6,60.0178962093,01,A,2015_Jan_07_1527,X,
stim/posf.jpg,stim/negf.jpg,stim/2.jpg,stim/6.jpg,stim/latef.jpg,CD,2,4,,,,,0,7,7,37,,,,,,4,1,0.916375338531,,,,,,PLC_L_D1S2,P6,60.0178962093,01,A,2015_Jan_07_1527,X,
stim/posf.jpg,stim/negf.jpg,stim/4.jpg,stim/3.jpg,stim/latef.jpg,AB,1,2,,,,,0,8,8,7,,,,,,2,1,0.933007318742,,,,,,PLC_L_D1S2,P6,60.0178962093,01,A,2015_Jan_07_1527,X,
stim/posf.jpg,stim/negf.jpg,stim/3.jpg,stim/4.jpg,stim/latef.jpg,AB,2,4,,,,,0,9,9,16,,,,,,4,1,0.64975385749,,,,,,PLC_L_D1S2,P6,60.0178962093,01,A,2015_Jan_07_1527,X,
stim/posf.jpg,stim/negf.jpg,stim/6.jpg,stim/2.jpg,stim/latef.jpg,CD,1,2,,,,,0,10,10,27,,,,,,2,1,0.933028990759,,,,,,PLC_L_D1S2,P6,60.0178962093,01,A,2015_Jan_07_1527,X,
stim/posf.jpg,stim/negf.jpg,stim/3.jpg,stim/4.jpg,stim/latef.jpg,AB,2,4,,,,,0,11,11,11,,,,,,4,1,0.716465413042,,,,,,PLC_L_D1S2,P6,60.0178962093,01,A,2015_Jan_07_1527,X,
stim/posf.jpg,stim/negf.jpg,stim/6.jpg,stim/2.jpg,stim/latef.jpg,CD,1,2,,,,,0,12,12,24,,,,,,2,1,0.733057796558,,,,,,PLC_L_D1S2,P6,60.0178962093,01,A,2015_Jan_07_1527,X,
stim/posf.jpg,stim/negf.jpg,stim/2.jpg,stim/6.jpg,stim/latef.jpg,CD,2,4,,,,,0,13,13,30,,,,,,4,1,0.516493614334,,,,,,PLC_L_D1S2,P6,60.0178962093,01,A,2015_Jan_07_1527,X,
stim/posf.jpg,stim/negf.jpg,stim/1.jpg,stim/5.jpg,stim/latef.jpg,EF,2,4,,,,,0,14,14,52,,,,,,4,1,0.79974649514,,,,,,PLC_L_D1S2,P6,60.0178962093,01,A,2015_Jan_07_1527,X,
stim/posf.jpg,stim/negf.jpg,stim/2.jpg,stim/6.jpg,stim/latef.jpg,CD,2,4,,,,,0,15,15,32,,,,,,4,1,0.649772455846,,,,,,PLC_L_D1S2,P6,60.0178962093,01,A,2015_Jan_07_1527,X,
stim/posf.jpg,stim/negf.jpg,stim/4.jpg,stim/3.jpg,stim/latef.jpg,AB,1,2,,,,,0,16,16,2,,,,,,2,1,0.833033995233,,,,,,PLC_L_D1S2,P6,60.0178962093,01,A,2015_Jan_07_1527,X,
stim/posf.jpg,stim/negf.jpg,stim/2.jpg,stim/6.jpg,stim/latef.jpg,CD,2,4,,,,,0,17,17,35,,,,,,4,1,0.916305110488,,,,,,PLC_L_D1S2,P6,60.0178962093,01,A,2015_Jan_07_1527,X,
stim/posf.jpg,stim/negf.jpg,stim/3.jpg,stim/4.jpg,stim/latef.jpg,AB,2,4,,,,,0,18,18,13,,,,,,4,1,0.549806702205,,,,,,PLC_L_D1S2,P6,60.0178962093,01,A,2015_Jan_07_1527,X,
stim/posf.jpg,stim/negf.jpg,stim/3.jpg,stim/4.jpg,stim/latef.jpg,AB,2,4,,,,,0,19,19,18,,,,,,4,1,0.566465488229,,,,,,PLC_L_D1S2,P6,60.0178962093,01,A,2015_Jan_07_1527,X,
stim/posf.jpg,stim/negf.jpg,stim/1.jpg,stim/5.jpg,stim/latef.jpg,EF,2,4,,,,,0,20,20,50,,,,,,4,1,0.983022641935,,,,,,PLC_L_D1S2,P6,60.0178962093,01,A,2015_Jan_07_1527,X,
stim/posf.jpg,stim/negf.jpg,stim/5.jpg,stim/1.jpg,stim/latef.jpg,EF,1,2,,,,,0,21,21,45,,,,,,4,0,1.36621253975,,,,,,PLC_L_D1S2,P6,60.0178962093,01,A,2015_Jan_07_1527,X,
stim/posf.jpg,stim/negf.jpg,stim/6.jpg,stim/2.jpg,stim/latef.jpg,CD,1,2,,,,,0,22,22,20,,,,,,2,1,0.949647055286,,,,,,PLC_L_D1S2,P6,60.0178962093,01,A,2015_Jan_07_1527,X,
stim/posf.jpg,stim/negf.jpg,stim/5.jpg,stim/1.jpg,stim/latef.jpg,EF,1,2,,,,,0,23,23,44,,,,,,2,1,1.09961917279,,,,,,PLC_L_D1S2,P6,60.0178962093,01,A,2015_Jan_07_1527,X,
stim/posf.jpg,stim/negf.jpg,stim/5.jpg,stim/1.jpg,stim/latef.jpg,EF,1,2,,,,,0,24,24,40,,,,,,2,1,0.983009297674,,,,,,PLC_L_D1S2,P6,60.0178962093,01,A,2015_Jan_07_1527,X,
stim/posf.jpg,stim/negf.jpg,stim/3.jpg,stim/4.jpg,stim/latef.jpg,AB,2,4,,,,,0,25,25,12,,,,,,4,1,0.899647834227,,,,,,PLC_L_D1S2,P6,60.0178962093,01,A,2015_Jan_07_1527,X,
stim/posf.jpg,stim/negf.jpg,stim/3.jpg,stim/4.jpg,stim/latef.jpg,AB,2,4,,,,,0,26,26,14,,,,,,4,1,0.48322958474,,,,,,PLC_L_D1S2,P6,60.0178962093,01,A,2015_Jan_07_1527,X,
stim/posf.jpg,stim/negf.jpg,stim/2.jpg,stim/6.jpg,stim/latef.jpg,CD,2,4,,,,,0,27,27,36,,,,,,4,1,0.766388276779,,,,,,PLC_L_D1S2,P6,60.0178962093,01,A,2015_Jan_07_1527,X,
stim/posf.jpg,stim/negf.jpg,stim/1.jpg,stim/5.jpg,stim/latef.jpg,EF,2,4,,,,,0,28,28,55,,,,,,4,1,0.79971967128,,,,,,PLC_L_D1S2,P6,60.0178962093,01,A,2015_Jan_07_1527,X,
stim/posf.jpg,stim/negf.jpg,stim/3.jpg,stim/4.jpg,stim/latef.jpg,AB,2,4,,,,,0,29,29,15,,,,,,4,1,0.616470342328,,,,,,PLC_L_D1S2,P6,60.0178962093,01,A,2015_Jan_07_1527,X,
stim/posf.jpg,stim/negf.jpg,stim/1.jpg,stim/5.jpg,stim/latef.jpg,EF,2,4,,,,,0,30,30,51,,,,,,4,1,0.799729406546,,,,,,PLC_L_D1S2,P6,60.0178962093,01,A,2015_Jan_07_1527,X,
stim/posf.jpg,stim/negf.jpg,stim/4.jpg,stim/3.jpg,stim/latef.jpg,AB,1,2,,,,,0,31,31,1,,,,,,2,1,0.799794142901,,,,,,PLC_L_D1S2,P6,60.0178962093,01,A,2015_Jan_07_1527,X,
stim/negf.jpg,stim/posf.jpg,stim/3.jpg,stim/4.jpg,stim/latef.jpg,AB,2,4,,,,,0,32,32,19,,,,,,4,1,0.583129645642,,,,,,PLC_L_D1S2,P6,60.0178962093,01,A,2015_Jan_07_1527,X,
stim/posf.jpg,stim/negf.jpg,stim/4.jpg,stim/3.jpg,stim/latef.jpg,AB,1,2,,,,,0,33,33,5,,,,,,2,1,0.616452104871,,,,,,PLC_L_D1S2,P6,60.0178962093,01,A,2015_Jan_07_1527,X,
stim/posf.jpg,stim/negf.jpg,stim/1.jpg,stim/5.jpg,stim/latef.jpg,EF,2,4,,,,,0,34,34,54,,,,,,4,1,1.01632912234,,,,,,PLC_L_D1S2,P6,60.0178962093,01,A,2015_Jan_07_1527,X,
stim/posf.jpg,stim/negf.jpg,stim/2.jpg,stim/6.jpg,stim/latef.jpg,CD,2,4,,,,,0,35,35,33,,,,,,4,1,0.816398757904,,,,,,PLC_L_D1S2,P6,60.0178962093,01,A,2015_Jan_07_1527,X,
stim/negf.jpg,stim/posf.jpg,stim/6.jpg,stim/2.jpg,stim/latef.jpg,CD,1,2,,,,,0,36,36,29,,,,,,2,1,0.949696540627,,,,,,PLC_L_D1S2,P6,60.0178962093,01,A,2015_Jan_07_1527,X,
stim/posf.jpg,stim/negf.jpg,stim/6.jpg,stim/2.jpg,stim/latef.jpg,CD,1,2,,,,,0,37,37,22,,,,,,2,1,0.483110102932,,,,,,PLC_L_D1S2,P6,60.0178962093,01,A,2015_Jan_07_1527,X,
stim/posf.jpg,stim/negf.jpg,stim/3.jpg,stim/4.jpg,stim/latef.jpg,AB,2,4,,,,,0,38,38,10,,,,,,4,1,0.699766470929,,,,,,PLC_L_D1S2,P6,60.0178962093,01,A,2015_Jan_07_1527,X,
stim/posf.jpg,stim/negf.jpg,stim/6.jpg,stim/2.jpg,stim/latef.jpg,CD,1,2,,,,,0,39,39,25,,,,,,2,1,0.69975904542,,,,,,PLC_L_D1S2,P6,60.0178962093,01,A,2015_Jan_07_1527,X,
stim/negf.jpg,stim/posf.jpg,stim/4.jpg,stim/3.jpg,stim/latef.jpg,AB,1,2,,,,,0,40,40,9,,,,,,2,1,0.51648850159,,,,,,PLC_L_D1S2,P6,60.0178962093,01,A,2015_Jan_07_1527,X,
stim/posf.jpg,stim/negf.jpg,stim/5.jpg,stim/1.jpg,stim/latef.jpg,EF,1,2,,,,,0,41,41,46,,,,,,2,1,1.23294545154,,,,,,PLC_L_D1S2,P6,60.0178962093,01,A,2015_Jan_07_1527,X,
stim/posf.jpg,stim/negf.jpg,stim/3.jpg,stim/4.jpg,stim/latef.jpg,AB,2,4,,,,,0,42,42,17,,,,,,4,1,0.633140677138,,,,,,PLC_L_D1S2,P6,60.0178962093,01,A,2015_Jan_07_1527,X,
stim/negf.jpg,stim/posf.jpg,stim/1.jpg,stim/5.jpg,stim/latef.jpg,EF,2,4,,,,,0,43,43,58,,,,,,4,1,0.899725704317,,,,,,PLC_L_D1S2,P6,60.0178962093,01,A,2015_Jan_07_1527,X,
stim/posf.jpg,stim/negf.jpg,stim/4.jpg,stim/3.jpg,stim/latef.jpg,AB,1,2,,,,,0,44,44,8,,,,,,2,1,0.916359116097,,,,,,PLC_L_D1S2,P6,60.0178962093,01,A,2015_Jan_07_1527,X,
stim/posf.jpg,stim/negf.jpg,stim/2.jpg,stim/6.jpg,stim/latef.jpg,CD,2,4,,,,,0,45,45,34,,,,,,4,1,1.13300806159,,,,,,PLC_L_D1S2,P6,60.0178962093,01,A,2015_Jan_07_1527,X,
stim/posf.jpg,stim/negf.jpg,stim/4.jpg,stim/3.jpg,stim/latef.jpg,AB,1,2,,,,,0,46,46,0,,,,,,2,1,0.716413163811,,,,,,PLC_L_D1S2,P6,60.0178962093,01,A,2015_Jan_07_1527,X,
stim/posf.jpg,stim/negf.jpg,stim/5.jpg,stim/1.jpg,stim/latef.jpg,EF,1,2,,,,,0,47,47,41,,,,,,2,1,0.849734029068,,,,,,PLC_L_D1S2,P6,60.0178962093,01,A,2015_Jan_07_1527,X,
stim/negf.jpg,stim/posf.jpg,stim/2.jpg,stim/6.jpg,stim/latef.jpg,CD,2,4,,,,,0,48,48,39,,,,,,4,1,0.816395191014,,,,,,PLC_L_D1S2,P6,60.0178962093,01,A,2015_Jan_07_1527,X,
stim/posf.jpg,stim/negf.jpg,stim/5.jpg,stim/1.jpg,stim/latef.jpg,EF,1,2,,,,,0,49,49,43,,,,,,2,1,0.916383696363,,,,,,PLC_L_D1S2,P6,60.0178962093,01,A,2015_Jan_07_1527,X,
stim/posf.jpg,stim/negf.jpg,stim/1.jpg,stim/5.jpg,stim/latef.jpg,EF,2,4,,,,,0,50,50,53,,,,,,4,1,0.899733400501,,,,,,PLC_L_D1S2,P6,60.0178962093,01,A,2015_Jan_07_1527,X,
stim/negf.jpg,stim/posf.jpg,stim/2.jpg,stim/6.jpg,stim/latef.jpg,CD,2,4,,,,,0,51,51,38,,,,,,4,1,0.899693707566,,,,,,PLC_L_D1S2,P6,60.0178962093,01,A,2015_Jan_07_1527,X,
stim/negf.jpg,stim/posf.jpg,stim/6.jpg,stim/2.jpg,stim/latef.jpg,CD,1,2,,,,,0,52,52,28,,,,,,2,1,0.749760768716,,,,,,PLC_L_D1S2,P6,60.0178962093,01,A,2015_Jan_07_1527,X,
stim/posf.jpg,stim/negf.jpg,stim/5.jpg,stim/1.jpg,stim/latef.jpg,EF,1,2,,,,,0,53,53,47,,,,,,2,1,1.04965466124,,,,,,PLC_L_D1S2,P6,60.0178962093,01,A,2015_Jan_07_1527,X,
stim/posf.jpg,stim/negf.jpg,stim/2.jpg,stim/6.jpg,stim/latef.jpg,CD,2,4,,,,,0,54,54,31,,,,,,2,0,1.18299063015,,,,,,PLC_L_D1S2,P6,60.0178962093,01,A,2015_Jan_07_1527,X,
stim/posf.jpg,stim/negf.jpg,stim/4.jpg,stim/3.jpg,stim/latef.jpg,AB,1,2,,,,,0,55,55,4,,,,,,2,1,0.849716143487,,,,,,PLC_L_D1S2,P6,60.0178962093,01,A,2015_Jan_07_1527,X,
stim/posf.jpg,stim/negf.jpg,stim/4.jpg,stim/3.jpg,stim/latef.jpg,AB,1,2,,,,,0,56,56,6,,,,,,2,1,0.649780473831,,,,,,PLC_L_D1S2,P6,60.0178962093,01,A,2015_Jan_07_1527,X,
stim/posf.jpg,stim/negf.jpg,stim/5.jpg,stim/1.jpg,stim/latef.jpg,EF,1,2,,,,,0,57,57,42,,,,,,2,1,0.816394935376,,,,,,PLC_L_D1S2,P6,60.0178962093,01,A,2015_Jan_07_1527,X,
stim/posf.jpg,stim/negf.jpg,stim/6.jpg,stim/2.jpg,stim/latef.jpg,CD,1,2,,,,,0,58,58,21,,,,,,4,0,0.799731875701,,,,,,PLC_L_D1S2,P6,60.0178962093,01,A,2015_Jan_07_1527,X,
stim/posf.jpg,stim/negf.jpg,stim/6.jpg,stim/2.jpg,stim/latef.jpg,CD,1,2,,,,,0,59,59,26,,,,,,2,1,0.599788840686,,,,,,PLC_L_D1S2,P6,60.0178962093,01,A,2015_Jan_07_1527,X,
