fb_corr,fb_incorr,symbol2,symbol1,fb_late,pair,position,correct,block_01.thisRepN,block_01.thisTrialN,block_01.thisN,block_01.thisIndex,block_02.thisRepN,block_02.thisTrialN,block_02.thisN,block_02.thisIndex,block_03.thisRepN,block_03.thisTrialN,block_03.thisN,block_03.thisIndex,block_04.thisRepN,block_04.thisTrialN,block_04.thisN,block_04.thisIndex,mouse.x,mouse.y,mouse.leftButton,mouse.midButton,mouse.rightButton,buttonBox_2.keys,buttonBox_2.corr,buttonBox_2.rt,mouse_2.x,mouse_2.y,mouse_2.leftButton,mouse_2.midButton,mouse_2.rightButton,expName,Participant,frameRate,SessionNumber,Version,date,Group,
,,,,,,,,,,,,,,,,,,,,,,,,0.9984375,1.0,1,0,0,,,,,,,,,PLC_L_D1S1,P14,60.0237492793,01,B,2015_Feb_04_1642,Y,
stim/posf.jpg,stim/negf.jpg,stim/5.jpg,stim/3.jpg,stim/latef.jpg,AB,2,4,0,0,0,17,,,,,,,,,,,,,,,,,,2,0,0.916381063371,,,,,,PLC_L_D1S1,P14,60.0237492793,01,B,2015_Feb_04_1642,Y,
stim/negf.jpg,stim/posf.jpg,stim/2.jpg,stim/6.jpg,stim/latef.jpg,CD,1,2,0,1,1,28,,,,,,,,,,,,,,,,,,2,1,1.11634458258,,,,,,PLC_L_D1S1,P14,60.0237492793,01,B,2015_Feb_04_1642,Y,
stim/posf.jpg,stim/negf.jpg,stim/5.jpg,stim/3.jpg,stim/latef.jpg,AB,2,4,0,2,2,14,,,,,,,,,,,,,,,,,,4,1,0.966328722609,,,,,,PLC_L_D1S1,P14,60.0237492793,01,B,2015_Feb_04_1642,Y,
stim/negf.jpg,stim/posf.jpg,stim/6.jpg,stim/2.jpg,stim/latef.jpg,CD,2,4,0,3,3,37,,,,,,,,,,,,,,,,,,2,0,1.14963079965,,,,,,PLC_L_D1S1,P14,60.0237492793,01,B,2015_Feb_04_1642,Y,
stim/negf.jpg,stim/posf.jpg,stim/3.jpg,stim/5.jpg,stim/latef.jpg,AB,1,2,0,4,4,9,,,,,,,,,,,,,,,,,,2,1,1.13301757649,,,,,,PLC_L_D1S1,P14,60.0237492793,01,B,2015_Feb_04_1642,Y,
stim/posf.jpg,stim/negf.jpg,stim/4.jpg,stim/1.jpg,stim/latef.jpg,EF,2,4,0,5,5,52,,,,,,,,,,,,,,,,,,2,0,1.29957903933,,,,,,PLC_L_D1S1,P14,60.0237492793,01,B,2015_Feb_04_1642,Y,
stim/posf.jpg,stim/negf.jpg,stim/2.jpg,stim/6.jpg,stim/latef.jpg,CD,1,2,0,6,6,23,,,,,,,,,,,,,,,,,,4,0,0.982992552716,,,,,,PLC_L_D1S1,P14,60.0237492793,01,B,2015_Feb_04_1642,Y,
stim/posf.jpg,stim/negf.jpg,stim/6.jpg,stim/2.jpg,stim/latef.jpg,CD,2,4,0,7,7,36,,,,,,,,,,,,,,,,,,4,1,1.38287119168,,,,,,PLC_L_D1S1,P14,60.0237492793,01,B,2015_Feb_04_1642,Y,
stim/posf.jpg,stim/negf.jpg,stim/5.jpg,stim/3.jpg,stim/latef.jpg,AB,2,4,0,8,8,10,,,,,,,,,,,,,,,,,,4,1,1.1329558208,,,,,,PLC_L_D1S1,P14,60.0237492793,01,B,2015_Feb_04_1642,Y,
stim/posf.jpg,stim/negf.jpg,stim/1.jpg,stim/4.jpg,stim/latef.jpg,EF,1,2,0,9,9,41,,,,,,,,,,,,,,,,,,2,1,0.916363253045,,,,,,PLC_L_D1S1,P14,60.0237492793,01,B,2015_Feb_04_1642,Y,
stim/posf.jpg,stim/negf.jpg,stim/1.jpg,stim/4.jpg,stim/latef.jpg,EF,1,2,0,10,10,44,,,,,,,,,,,,,,,,,,2,1,1.33288868471,,,,,,PLC_L_D1S1,P14,60.0237492793,01,B,2015_Feb_04_1642,Y,
stim/posf.jpg,stim/negf.jpg,stim/3.jpg,stim/5.jpg,stim/latef.jpg,AB,1,2,0,11,11,4,,,,,,,,,,,,,,,,,,2,1,1.31622251478,,,,,,PLC_L_D1S1,P14,60.0237492793,01,B,2015_Feb_04_1642,Y,
stim/negf.jpg,stim/posf.jpg,stim/1.jpg,stim/4.jpg,stim/latef.jpg,EF,1,2,0,12,12,48,,,,,,,,,,,,,,,,,,2,1,0.86638018669,,,,,,PLC_L_D1S1,P14,60.0237492793,01,B,2015_Feb_04_1642,Y,
stim/posf.jpg,stim/negf.jpg,stim/3.jpg,stim/5.jpg,stim/latef.jpg,AB,1,2,0,13,13,1,,,,,,,,,,,,,,,,,,2,1,1.29956478386,,,,,,PLC_L_D1S1,P14,60.0237492793,01,B,2015_Feb_04_1642,Y,
stim/negf.jpg,stim/posf.jpg,stim/5.jpg,stim/3.jpg,stim/latef.jpg,AB,2,4,0,14,14,19,,,,,,,,,,,,,,,,,,4,1,1.14961104348,,,,,,PLC_L_D1S1,P14,60.0237492793,01,B,2015_Feb_04_1642,Y,
stim/posf.jpg,stim/negf.jpg,stim/5.jpg,stim/3.jpg,stim/latef.jpg,AB,2,4,0,15,15,13,,,,,,,,,,,,,,,,,,4,1,1.04964612279,,,,,,PLC_L_D1S1,P14,60.0237492793,01,B,2015_Feb_04_1642,Y,
stim/negf.jpg,stim/posf.jpg,stim/4.jpg,stim/1.jpg,stim/latef.jpg,EF,2,4,0,16,16,57,,,,,,,,,,,,,,,,,,4,1,1.03298229268,,,,,,PLC_L_D1S1,P14,60.0237492793,01,B,2015_Feb_04_1642,Y,
stim/posf.jpg,stim/negf.jpg,stim/1.jpg,stim/4.jpg,stim/latef.jpg,EF,1,2,0,17,17,42,,,,,,,,,,,,,,,,,,2,1,0.616375520576,,,,,,PLC_L_D1S1,P14,60.0237492793,01,B,2015_Feb_04_1642,Y,
stim/posf.jpg,stim/negf.jpg,stim/4.jpg,stim/1.jpg,stim/latef.jpg,EF,2,4,0,18,18,55,,,,,,,,,,,,,,,,,,4,1,0.98300182479,,,,,,PLC_L_D1S1,P14,60.0237492793,01,B,2015_Feb_04_1642,Y,
stim/negf.jpg,stim/posf.jpg,stim/4.jpg,stim/1.jpg,stim/latef.jpg,EF,2,4,0,19,19,59,,,,,,,,,,,,,,,,,,4,1,0.883047652847,,,,,,PLC_L_D1S1,P14,60.0237492793,01,B,2015_Feb_04_1642,Y,
stim/posf.jpg,stim/negf.jpg,stim/2.jpg,stim/6.jpg,stim/latef.jpg,CD,1,2,0,20,20,20,,,,,,,,,,,,,,,,,,4,0,1.1829534915,,,,,,PLC_L_D1S1,P14,60.0237492793,01,B,2015_Feb_04_1642,Y,
stim/posf.jpg,stim/negf.jpg,stim/6.jpg,stim/2.jpg,stim/latef.jpg,CD,2,4,0,21,21,32,,,,,,,,,,,,,,,,,,4,1,1.16622774931,,,,,,PLC_L_D1S1,P14,60.0237492793,01,B,2015_Feb_04_1642,Y,
stim/negf.jpg,stim/posf.jpg,stim/6.jpg,stim/2.jpg,stim/latef.jpg,CD,2,4,0,22,22,39,,,,,,,,,,,,,,,,,,4,1,0.883029884626,,,,,,PLC_L_D1S1,P14,60.0237492793,01,B,2015_Feb_04_1642,Y,
stim/posf.jpg,stim/negf.jpg,stim/2.jpg,stim/6.jpg,stim/latef.jpg,CD,1,2,0,23,23,24,,,,,,,,,,,,,,,,,,2,1,1.06633801273,,,,,,PLC_L_D1S1,P14,60.0237492793,01,B,2015_Feb_04_1642,Y,
stim/posf.jpg,stim/negf.jpg,stim/3.jpg,stim/5.jpg,stim/latef.jpg,AB,1,2,0,24,24,3,,,,,,,,,,,,,,,,,,2,1,1.01638736405,,,,,,PLC_L_D1S1,P14,60.0237492793,01,B,2015_Feb_04_1642,Y,
stim/negf.jpg,stim/posf.jpg,stim/2.jpg,stim/6.jpg,stim/latef.jpg,CD,1,2,0,25,25,27,,,,,,,,,,,,,,,,,,2,1,1.36619907294,,,,,,PLC_L_D1S1,P14,60.0237492793,01,B,2015_Feb_04_1642,Y,
stim/posf.jpg,stim/negf.jpg,stim/6.jpg,stim/2.jpg,stim/latef.jpg,CD,2,4,0,26,26,30,,,,,,,,,,,,,,,,,,4,1,0.683104067248,,,,,,PLC_L_D1S1,P14,60.0237492793,01,B,2015_Feb_04_1642,Y,
stim/posf.jpg,stim/negf.jpg,stim/4.jpg,stim/1.jpg,stim/latef.jpg,EF,2,4,0,27,27,50,,,,,,,,,,,,,,,,,,4,1,1.01630966267,,,,,,PLC_L_D1S1,P14,60.0237492793,01,B,2015_Feb_04_1642,Y,
stim/posf.jpg,stim/negf.jpg,stim/6.jpg,stim/2.jpg,stim/latef.jpg,CD,2,4,0,28,28,33,,,,,,,,,,,,,,,,,,4,1,1.03294582091,,,,,,PLC_L_D1S1,P14,60.0237492793,01,B,2015_Feb_04_1642,Y,
stim/posf.jpg,stim/negf.jpg,stim/5.jpg,stim/3.jpg,stim/latef.jpg,AB,2,4,0,29,29,12,,,,,,,,,,,,,,,,,,4,1,1.31623907399,,,,,,PLC_L_D1S1,P14,60.0237492793,01,B,2015_Feb_04_1642,Y,
stim/posf.jpg,stim/negf.jpg,stim/2.jpg,stim/6.jpg,stim/latef.jpg,CD,1,2,0,30,30,25,,,,,,,,,,,,,,,,,,2,1,0.949682985531,,,,,,PLC_L_D1S1,P14,60.0237492793,01,B,2015_Feb_04_1642,Y,
stim/negf.jpg,stim/posf.jpg,stim/1.jpg,stim/4.jpg,stim/latef.jpg,EF,1,2,0,31,31,47,,,,,,,,,,,,,,,,,,2,1,0.699752102044,,,,,,PLC_L_D1S1,P14,60.0237492793,01,B,2015_Feb_04_1642,Y,
stim/posf.jpg,stim/negf.jpg,stim/5.jpg,stim/3.jpg,stim/latef.jpg,AB,2,4,0,32,32,16,,,,,,,,,,,,,,,,,,4,1,1.09962809743,,,,,,PLC_L_D1S1,P14,60.0237492793,01,B,2015_Feb_04_1642,Y,
stim/posf.jpg,stim/negf.jpg,stim/5.jpg,stim/3.jpg,stim/latef.jpg,AB,2,4,0,33,33,11,,,,,,,,,,,,,,,,,,4,1,0.849754440362,,,,,,PLC_L_D1S1,P14,60.0237492793,01,B,2015_Feb_04_1642,Y,
stim/negf.jpg,stim/posf.jpg,stim/1.jpg,stim/4.jpg,stim/latef.jpg,EF,1,2,0,34,34,46,,,,,,,,,,,,,,,,,,2,1,0.816405288662,,,,,,PLC_L_D1S1,P14,60.0237492793,01,B,2015_Feb_04_1642,Y,
stim/posf.jpg,stim/negf.jpg,stim/1.jpg,stim/4.jpg,stim/latef.jpg,EF,1,2,0,35,35,43,,,,,,,,,,,,,,,,,,2,1,0.533115217497,,,,,,PLC_L_D1S1,P14,60.0237492793,01,B,2015_Feb_04_1642,Y,
stim/posf.jpg,stim/negf.jpg,stim/4.jpg,stim/1.jpg,stim/latef.jpg,EF,2,4,0,36,36,51,,,,,,,,,,,,,,,,,,4,1,0.933022054638,,,,,,PLC_L_D1S1,P14,60.0237492793,01,B,2015_Feb_04_1642,Y,
stim/posf.jpg,stim/negf.jpg,stim/6.jpg,stim/2.jpg,stim/latef.jpg,CD,2,4,0,37,37,35,,,,,,,,,,,,,,,,,,4,1,0.899736201472,,,,,,PLC_L_D1S1,P14,60.0237492793,01,B,2015_Feb_04_1642,Y,
stim/posf.jpg,stim/negf.jpg,stim/1.jpg,stim/4.jpg,stim/latef.jpg,EF,1,2,0,38,38,45,,,,,,,,,,,,,,,,,,2,1,0.683082067495,,,,,,PLC_L_D1S1,P14,60.0237492793,01,B,2015_Feb_04_1642,Y,
stim/posf.jpg,stim/negf.jpg,stim/6.jpg,stim/2.jpg,stim/latef.jpg,CD,2,4,0,39,39,34,,,,,,,,,,,,,,,,,,4,1,0.866348048707,,,,,,PLC_L_D1S1,P14,60.0237492793,01,B,2015_Feb_04_1642,Y,
stim/posf.jpg,stim/negf.jpg,stim/4.jpg,stim/1.jpg,stim/latef.jpg,EF,2,4,0,40,40,53,,,,,,,,,,,,,,,,,,4,1,0.933016845675,,,,,,PLC_L_D1S1,P14,60.0237492793,01,B,2015_Feb_04_1642,Y,
stim/posf.jpg,stim/negf.jpg,stim/2.jpg,stim/6.jpg,stim/latef.jpg,CD,1,2,0,41,41,22,,,,,,,,,,,,,,,,,,2,1,0.799747386307,,,,,,PLC_L_D1S1,P14,60.0237492793,01,B,2015_Feb_04_1642,Y,
stim/negf.jpg,stim/posf.jpg,stim/1.jpg,stim/4.jpg,stim/latef.jpg,EF,1,2,0,42,42,49,,,,,,,,,,,,,,,,,,2,1,0.749747784799,,,,,,PLC_L_D1S1,P14,60.0237492793,01,B,2015_Feb_04_1642,Y,
stim/posf.jpg,stim/negf.jpg,stim/1.jpg,stim/4.jpg,stim/latef.jpg,EF,1,2,0,43,43,40,,,,,,,,,,,,,,,,,,2,1,0.633185631739,,,,,,PLC_L_D1S1,P14,60.0237492793,01,B,2015_Feb_04_1642,Y,
stim/posf.jpg,stim/negf.jpg,stim/2.jpg,stim/6.jpg,stim/latef.jpg,CD,1,2,0,44,44,21,,,,,,,,,,,,,,,,,,2,1,1.06637016876,,,,,,PLC_L_D1S1,P14,60.0237492793,01,B,2015_Feb_04_1642,Y,
stim/negf.jpg,stim/posf.jpg,stim/4.jpg,stim/1.jpg,stim/latef.jpg,EF,2,4,0,45,45,56,,,,,,,,,,,,,,,,,,4,1,1.19960620895,,,,,,PLC_L_D1S1,P14,60.0237492793,01,B,2015_Feb_04_1642,Y,
stim/posf.jpg,stim/negf.jpg,stim/3.jpg,stim/5.jpg,stim/latef.jpg,AB,1,2,0,46,46,6,,,,,,,,,,,,,,,,,,2,1,1.2662485581,,,,,,PLC_L_D1S1,P14,60.0237492793,01,B,2015_Feb_04_1642,Y,
stim/negf.jpg,stim/posf.jpg,stim/2.jpg,stim/6.jpg,stim/latef.jpg,CD,1,2,0,47,47,29,,,,,,,,,,,,,,,,,,2,1,0.816392440687,,,,,,PLC_L_D1S1,P14,60.0237492793,01,B,2015_Feb_04_1642,Y,
stim/posf.jpg,stim/negf.jpg,stim/3.jpg,stim/5.jpg,stim/latef.jpg,AB,1,2,0,48,48,0,,,,,,,,,,,,,,,,,,2,1,0.98298758435,,,,,,PLC_L_D1S1,P14,60.0237492793,01,B,2015_Feb_04_1642,Y,
stim/posf.jpg,stim/negf.jpg,stim/3.jpg,stim/5.jpg,stim/latef.jpg,AB,1,2,0,49,49,5,,,,,,,,,,,,,,,,,,4,0,0.916352377981,,,,,,PLC_L_D1S1,P14,60.0237492793,01,B,2015_Feb_04_1642,Y,
stim/negf.jpg,stim/posf.jpg,stim/6.jpg,stim/2.jpg,stim/latef.jpg,CD,2,4,0,50,50,38,,,,,,,,,,,,,,,,,,4,1,0.899691994451,,,,,,PLC_L_D1S1,P14,60.0237492793,01,B,2015_Feb_04_1642,Y,
stim/posf.jpg,stim/negf.jpg,stim/4.jpg,stim/1.jpg,stim/latef.jpg,EF,2,4,0,51,51,54,,,,,,,,,,,,,,,,,,4,1,1.06631352278,,,,,,PLC_L_D1S1,P14,60.0237492793,01,B,2015_Feb_04_1642,Y,
stim/posf.jpg,stim/negf.jpg,stim/6.jpg,stim/2.jpg,stim/latef.jpg,CD,2,4,0,52,52,31,,,,,,,,,,,,,,,,,,4,1,0.898645873918,,,,,,PLC_L_D1S1,P14,60.0237492793,01,B,2015_Feb_04_1642,Y,
stim/negf.jpg,stim/posf.jpg,stim/4.jpg,stim/1.jpg,stim/latef.jpg,EF,2,4,0,53,53,58,,,,,,,,,,,,,,,,,,4,1,0.89970271012,,,,,,PLC_L_D1S1,P14,60.0237492793,01,B,2015_Feb_04_1642,Y,
stim/negf.jpg,stim/posf.jpg,stim/3.jpg,stim/5.jpg,stim/latef.jpg,AB,1,2,0,54,54,8,,,,,,,,,,,,,,,,,,2,1,0.849739682635,,,,,,PLC_L_D1S1,P14,60.0237492793,01,B,2015_Feb_04_1642,Y,
stim/posf.jpg,stim/negf.jpg,stim/5.jpg,stim/3.jpg,stim/latef.jpg,AB,2,4,0,55,55,15,,,,,,,,,,,,,,,,,,4,1,0.916369316137,,,,,,PLC_L_D1S1,P14,60.0237492793,01,B,2015_Feb_04_1642,Y,
stim/posf.jpg,stim/negf.jpg,stim/2.jpg,stim/6.jpg,stim/latef.jpg,CD,1,2,0,56,56,26,,,,,,,,,,,,,,,,,,2,1,0.749740527739,,,,,,PLC_L_D1S1,P14,60.0237492793,01,B,2015_Feb_04_1642,Y,
stim/posf.jpg,stim/negf.jpg,stim/3.jpg,stim/5.jpg,stim/latef.jpg,AB,1,2,0,57,57,7,,,,,,,,,,,,,,,,,,2,1,0.799723870783,,,,,,PLC_L_D1S1,P14,60.0237492793,01,B,2015_Feb_04_1642,Y,
stim/posf.jpg,stim/negf.jpg,stim/3.jpg,stim/5.jpg,stim/latef.jpg,AB,1,2,0,58,58,2,,,,,,,,,,,,,,,,,,2,1,0.866389807632,,,,,,PLC_L_D1S1,P14,60.0237492793,01,B,2015_Feb_04_1642,Y,
stim/negf.jpg,stim/posf.jpg,stim/5.jpg,stim/3.jpg,stim/latef.jpg,AB,2,4,0,59,59,18,,,,,,,,,,,,,,,,,,4,1,1.0496254734,,,,,,PLC_L_D1S1,P14,60.0237492793,01,B,2015_Feb_04_1642,Y,
,,,,,,,,,,,,,,,,,,,,,,,,,,,,,,,,0.9984375,1.0,1,0,0,PLC_L_D1S1,P14,60.0237492793,01,B,2015_Feb_04_1642,Y,
stim/posf.jpg,stim/negf.jpg,stim/5.jpg,stim/3.jpg,stim/latef.jpg,AB,2,4,,,,,0,0,0,16,,,,,,,,,,,,,,4,1,1.08296217411,,,,,,PLC_L_D1S1,P14,60.0237492793,01,B,2015_Feb_04_1642,Y,
stim/posf.jpg,stim/negf.jpg,stim/1.jpg,stim/4.jpg,stim/latef.jpg,EF,1,2,,,,,0,1,1,41,,,,,,,,,,,,,,2,1,1.09956883795,,,,,,PLC_L_D1S1,P14,60.0237492793,01,B,2015_Feb_04_1642,Y,
stim/posf.jpg,stim/negf.jpg,stim/5.jpg,stim/3.jpg,stim/latef.jpg,AB,2,4,,,,,0,2,2,12,,,,,,,,,,,,,,4,1,0.966334054878,,,,,,PLC_L_D1S1,P14,60.0237492793,01,B,2015_Feb_04_1642,Y,
stim/negf.jpg,stim/posf.jpg,stim/2.jpg,stim/6.jpg,stim/latef.jpg,CD,1,2,,,,,0,3,3,28,,,,,,,,,,,,,,2,1,1.06633060229,,,,,,PLC_L_D1S1,P14,60.0237492793,01,B,2015_Feb_04_1642,Y,
stim/posf.jpg,stim/negf.jpg,stim/4.jpg,stim/1.jpg,stim/latef.jpg,EF,2,4,,,,,0,4,4,52,,,,,,,,,,,,,,4,1,0.849723667779,,,,,,PLC_L_D1S1,P14,60.0237492793,01,B,2015_Feb_04_1642,Y,
stim/posf.jpg,stim/negf.jpg,stim/6.jpg,stim/2.jpg,stim/latef.jpg,CD,2,4,,,,,0,5,5,36,,,,,,,,,,,,,,4,1,0.916409553274,,,,,,PLC_L_D1S1,P14,60.0237492793,01,B,2015_Feb_04_1642,Y,
stim/posf.jpg,stim/negf.jpg,stim/2.jpg,stim/6.jpg,stim/latef.jpg,CD,1,2,,,,,0,6,6,20,,,,,,,,,,,,,,2,1,0.78306921952,,,,,,PLC_L_D1S1,P14,60.0237492793,01,B,2015_Feb_04_1642,Y,
stim/posf.jpg,stim/negf.jpg,stim/2.jpg,stim/6.jpg,stim/latef.jpg,CD,1,2,,,,,0,7,7,26,,,,,,,,,,,,,,2,1,0.982980158871,,,,,,PLC_L_D1S1,P14,60.0237492793,01,B,2015_Feb_04_1642,Y,
stim/negf.jpg,stim/posf.jpg,stim/5.jpg,stim/3.jpg,stim/latef.jpg,AB,2,4,,,,,0,8,8,19,,,,,,,,,,,,,,4,1,1.14967012853,,,,,,PLC_L_D1S1,P14,60.0237492793,01,B,2015_Feb_04_1642,Y,
stim/posf.jpg,stim/negf.jpg,stim/3.jpg,stim/5.jpg,stim/latef.jpg,AB,1,2,,,,,0,9,9,6,,,,,,,,,,,,,,2,1,1.19957955061,,,,,,PLC_L_D1S1,P14,60.0237492793,01,B,2015_Feb_04_1642,Y,
stim/negf.jpg,stim/posf.jpg,stim/2.jpg,stim/6.jpg,stim/latef.jpg,CD,1,2,,,,,0,10,10,27,,,,,,,,,,,,,,2,1,1.16631953474,,,,,,PLC_L_D1S1,P14,60.0237492793,01,B,2015_Feb_04_1642,Y,
stim/negf.jpg,stim/posf.jpg,stim/2.jpg,stim/6.jpg,stim/latef.jpg,CD,1,2,,,,,0,11,11,29,,,,,,,,,,,,,,2,1,0.699766616166,,,,,,PLC_L_D1S1,P14,60.0237492793,01,B,2015_Feb_04_1642,Y,
stim/posf.jpg,stim/negf.jpg,stim/5.jpg,stim/3.jpg,stim/latef.jpg,AB,2,4,,,,,0,12,12,15,,,,,,,,,,,,,,4,1,0.883134797728,,,,,,PLC_L_D1S1,P14,60.0237492793,01,B,2015_Feb_04_1642,Y,
stim/posf.jpg,stim/negf.jpg,stim/4.jpg,stim/1.jpg,stim/latef.jpg,EF,2,4,,,,,0,13,13,53,,,,,,,,,,,,,,4,1,0.949711120551,,,,,,PLC_L_D1S1,P14,60.0237492793,01,B,2015_Feb_04_1642,Y,
stim/posf.jpg,stim/negf.jpg,stim/1.jpg,stim/4.jpg,stim/latef.jpg,EF,1,2,,,,,0,14,14,45,,,,,,,,,,,,,,2,1,0.783066816539,,,,,,PLC_L_D1S1,P14,60.0237492793,01,B,2015_Feb_04_1642,Y,
stim/posf.jpg,stim/negf.jpg,stim/2.jpg,stim/6.jpg,stim/latef.jpg,CD,1,2,,,,,0,15,15,21,,,,,,,,,,,,,,2,1,0.866384827237,,,,,,PLC_L_D1S1,P14,60.0237492793,01,B,2015_Feb_04_1642,Y,
stim/posf.jpg,stim/negf.jpg,stim/2.jpg,stim/6.jpg,stim/latef.jpg,CD,1,2,,,,,0,16,16,23,,,,,,,,,,,,,,2,1,0.766407452547,,,,,,PLC_L_D1S1,P14,60.0237492793,01,B,2015_Feb_04_1642,Y,
stim/posf.jpg,stim/negf.jpg,stim/2.jpg,stim/6.jpg,stim/latef.jpg,CD,1,2,,,,,0,17,17,24,,,,,,,,,,,,,,2,1,0.716390145977,,,,,,PLC_L_D1S1,P14,60.0237492793,01,B,2015_Feb_04_1642,Y,
stim/negf.jpg,stim/posf.jpg,stim/1.jpg,stim/4.jpg,stim/latef.jpg,EF,1,2,,,,,0,18,18,46,,,,,,,,,,,,,,2,1,0.783007896904,,,,,,PLC_L_D1S1,P14,60.0237492793,01,B,2015_Feb_04_1642,Y,
stim/posf.jpg,stim/negf.jpg,stim/5.jpg,stim/3.jpg,stim/latef.jpg,AB,2,4,,,,,0,19,19,14,,,,,,,,,,,,,,4,1,0.933022556888,,,,,,PLC_L_D1S1,P14,60.0237492793,01,B,2015_Feb_04_1642,Y,
stim/posf.jpg,stim/negf.jpg,stim/1.jpg,stim/4.jpg,stim/latef.jpg,EF,1,2,,,,,0,20,20,40,,,,,,,,,,,,,,2,1,0.766424652353,,,,,,PLC_L_D1S1,P14,60.0237492793,01,B,2015_Feb_04_1642,Y,
stim/posf.jpg,stim/negf.jpg,stim/3.jpg,stim/5.jpg,stim/latef.jpg,AB,1,2,,,,,0,21,21,1,,,,,,,,,,,,,,2,1,0.866373648418,,,,,,PLC_L_D1S1,P14,60.0237492793,01,B,2015_Feb_04_1642,Y,
stim/posf.jpg,stim/negf.jpg,stim/4.jpg,stim/1.jpg,stim/latef.jpg,EF,2,4,,,,,0,22,22,50,,,,,,,,,,,,,,4,1,0.933017889272,,,,,,PLC_L_D1S1,P14,60.0237492793,01,B,2015_Feb_04_1642,Y,
stim/posf.jpg,stim/negf.jpg,stim/3.jpg,stim/5.jpg,stim/latef.jpg,AB,1,2,,,,,0,23,23,3,,,,,,,,,,,,,,2,1,0.733084288524,,,,,,PLC_L_D1S1,P14,60.0237492793,01,B,2015_Feb_04_1642,Y,
stim/posf.jpg,stim/negf.jpg,stim/1.jpg,stim/4.jpg,stim/latef.jpg,EF,1,2,,,,,0,24,24,44,,,,,,,,,,,,,,2,1,0.683087844873,,,,,,PLC_L_D1S1,P14,60.0237492793,01,B,2015_Feb_04_1642,Y,
stim/negf.jpg,stim/posf.jpg,stim/3.jpg,stim/5.jpg,stim/latef.jpg,AB,1,2,,,,,0,25,25,8,,,,,,,,,,,,,,2,1,0.749781561863,,,,,,PLC_L_D1S1,P14,60.0237492793,01,B,2015_Feb_04_1642,Y,
stim/posf.jpg,stim/negf.jpg,stim/6.jpg,stim/2.jpg,stim/latef.jpg,CD,2,4,,,,,0,26,26,33,,,,,,,,,,,,,,4,1,1.26623037485,,,,,,PLC_L_D1S1,P14,60.0237492793,01,B,2015_Feb_04_1642,Y,
stim/posf.jpg,stim/negf.jpg,stim/3.jpg,stim/5.jpg,stim/latef.jpg,AB,1,2,,,,,0,27,27,0,,,,,,,,,,,,,,2,1,0.899707188266,,,,,,PLC_L_D1S1,P14,60.0237492793,01,B,2015_Feb_04_1642,Y,
stim/negf.jpg,stim/posf.jpg,stim/4.jpg,stim/1.jpg,stim/latef.jpg,EF,2,4,,,,,0,28,28,57,,,,,,,,,,,,,,4,1,0.999645504749,,,,,,PLC_L_D1S1,P14,60.0237492793,01,B,2015_Feb_04_1642,Y,
stim/posf.jpg,stim/negf.jpg,stim/4.jpg,stim/1.jpg,stim/latef.jpg,EF,2,4,,,,,0,29,29,54,,,,,,,,,,,,,,4,1,1.23283470337,,,,,,PLC_L_D1S1,P14,60.0237492793,01,B,2015_Feb_04_1642,Y,
stim/posf.jpg,stim/negf.jpg,stim/5.jpg,stim/3.jpg,stim/latef.jpg,AB,2,4,,,,,0,30,30,17,,,,,,,,,,,,,,4,1,1.0495648816,,,,,,PLC_L_D1S1,P14,60.0237492793,01,B,2015_Feb_04_1642,Y,
stim/posf.jpg,stim/negf.jpg,stim/1.jpg,stim/4.jpg,stim/latef.jpg,EF,1,2,,,,,0,31,31,42,,,,,,,,,,,,,,2,1,0.784131276716,,,,,,PLC_L_D1S1,P14,60.0237492793,01,B,2015_Feb_04_1642,Y,
stim/posf.jpg,stim/negf.jpg,stim/3.jpg,stim/5.jpg,stim/latef.jpg,AB,1,2,,,,,0,32,32,4,,,,,,,,,,,,,,2,1,0.799712923539,,,,,,PLC_L_D1S1,P14,60.0237492793,01,B,2015_Feb_04_1642,Y,
stim/posf.jpg,stim/negf.jpg,stim/3.jpg,stim/5.jpg,stim/latef.jpg,AB,1,2,,,,,0,33,33,2,,,,,,,,,,,,,,2,1,0.866388183591,,,,,,PLC_L_D1S1,P14,60.0237492793,01,B,2015_Feb_04_1642,Y,
stim/posf.jpg,stim/negf.jpg,stim/6.jpg,stim/2.jpg,stim/latef.jpg,CD,2,4,,,,,0,34,34,34,,,,,,,,,,,,,,4,1,0.833057753483,,,,,,PLC_L_D1S1,P14,60.0237492793,01,B,2015_Feb_04_1642,Y,
stim/posf.jpg,stim/negf.jpg,stim/6.jpg,stim/2.jpg,stim/latef.jpg,CD,2,4,,,,,0,35,35,32,,,,,,,,,,,,,,4,1,0.816401147356,,,,,,PLC_L_D1S1,P14,60.0237492793,01,B,2015_Feb_04_1642,Y,
stim/negf.jpg,stim/posf.jpg,stim/5.jpg,stim/3.jpg,stim/latef.jpg,AB,2,4,,,,,0,36,36,18,,,,,,,,,,,,,,4,1,0.966271848061,,,,,,PLC_L_D1S1,P14,60.0237492793,01,B,2015_Feb_04_1642,Y,
stim/negf.jpg,stim/posf.jpg,stim/6.jpg,stim/2.jpg,stim/latef.jpg,CD,2,4,,,,,0,37,37,37,,,,,,,,,,,,,,4,1,0.783047186686,,,,,,PLC_L_D1S1,P14,60.0237492793,01,B,2015_Feb_04_1642,Y,
stim/posf.jpg,stim/negf.jpg,stim/2.jpg,stim/6.jpg,stim/latef.jpg,CD,1,2,,,,,0,38,38,22,,,,,,,,,,,,,,2,1,0.64978439792,,,,,,PLC_L_D1S1,P14,60.0237492793,01,B,2015_Feb_04_1642,Y,
stim/posf.jpg,stim/negf.jpg,stim/3.jpg,stim/5.jpg,stim/latef.jpg,AB,1,2,,,,,0,39,39,7,,,,,,,,,,,,,,2,1,0.866355185468,,,,,,PLC_L_D1S1,P14,60.0237492793,01,B,2015_Feb_04_1642,Y,
stim/posf.jpg,stim/negf.jpg,stim/5.jpg,stim/3.jpg,stim/latef.jpg,AB,2,4,,,,,0,40,40,13,,,,,,,,,,,,,,4,1,0.816380500974,,,,,,PLC_L_D1S1,P14,60.0237492793,01,B,2015_Feb_04_1642,Y,
stim/posf.jpg,stim/negf.jpg,stim/2.jpg,stim/6.jpg,stim/latef.jpg,CD,1,2,,,,,0,41,41,25,,,,,,,,,,,,,,2,1,0.634173795033,,,,,,PLC_L_D1S1,P14,60.0237492793,01,B,2015_Feb_04_1642,Y,
stim/posf.jpg,stim/negf.jpg,stim/6.jpg,stim/2.jpg,stim/latef.jpg,CD,2,4,,,,,0,42,42,31,,,,,,,,,,,,,,4,1,0.683117667095,,,,,,PLC_L_D1S1,P14,60.0237492793,01,B,2015_Feb_04_1642,Y,
stim/negf.jpg,stim/posf.jpg,stim/1.jpg,stim/4.jpg,stim/latef.jpg,EF,1,2,,,,,0,43,43,49,,,,,,,,,,,,,,2,1,0.799717843784,,,,,,PLC_L_D1S1,P14,60.0237492793,01,B,2015_Feb_04_1642,Y,
stim/posf.jpg,stim/negf.jpg,stim/6.jpg,stim/2.jpg,stim/latef.jpg,CD,2,4,,,,,0,44,44,35,,,,,,,,,,,,,,4,1,0.866435232685,,,,,,PLC_L_D1S1,P14,60.0237492793,01,B,2015_Feb_04_1642,Y,
stim/posf.jpg,stim/negf.jpg,stim/4.jpg,stim/1.jpg,stim/latef.jpg,EF,2,4,,,,,0,45,45,55,,,,,,,,,,,,,,4,1,0.583168009383,,,,,,PLC_L_D1S1,P14,60.0237492793,01,B,2015_Feb_04_1642,Y,
stim/posf.jpg,stim/negf.jpg,stim/3.jpg,stim/5.jpg,stim/latef.jpg,AB,1,2,,,,,0,46,46,5,,,,,,,,,,,,,,2,1,0.883149654703,,,,,,PLC_L_D1S1,P14,60.0237492793,01,B,2015_Feb_04_1642,Y,
stim/negf.jpg,stim/posf.jpg,stim/1.jpg,stim/4.jpg,stim/latef.jpg,EF,1,2,,,,,0,47,47,47,,,,,,,,,,,,,,2,1,0.883041394269,,,,,,PLC_L_D1S1,P14,60.0237492793,01,B,2015_Feb_04_1642,Y,
stim/posf.jpg,stim/negf.jpg,stim/5.jpg,stim/3.jpg,stim/latef.jpg,AB,2,4,,,,,0,48,48,11,,,,,,,,,,,,,,4,1,1.04963426728,,,,,,PLC_L_D1S1,P14,60.0237492793,01,B,2015_Feb_04_1642,Y,
stim/posf.jpg,stim/negf.jpg,stim/1.jpg,stim/4.jpg,stim/latef.jpg,EF,1,2,,,,,0,49,49,43,,,,,,,,,,,,,,2,1,0.733083362218,,,,,,PLC_L_D1S1,P14,60.0237492793,01,B,2015_Feb_04_1642,Y,
stim/negf.jpg,stim/posf.jpg,stim/1.jpg,stim/4.jpg,stim/latef.jpg,EF,1,2,,,,,0,50,50,48,,,,,,,,,,,,,,2,1,0.599761747048,,,,,,PLC_L_D1S1,P14,60.0237492793,01,B,2015_Feb_04_1642,Y,
stim/negf.jpg,stim/posf.jpg,stim/4.jpg,stim/1.jpg,stim/latef.jpg,EF,2,4,,,,,0,51,51,56,,,,,,,,,,,,,,4,1,0.716414825398,,,,,,PLC_L_D1S1,P14,60.0237492793,01,B,2015_Feb_04_1642,Y,
stim/posf.jpg,stim/negf.jpg,stim/6.jpg,stim/2.jpg,stim/latef.jpg,CD,2,4,,,,,0,52,52,30,,,,,,,,,,,,,,4,1,0.999649137791,,,,,,PLC_L_D1S1,P14,60.0237492793,01,B,2015_Feb_04_1642,Y,
stim/negf.jpg,stim/posf.jpg,stim/6.jpg,stim/2.jpg,stim/latef.jpg,CD,2,4,,,,,0,53,53,39,,,,,,,,,,,,,,4,1,1.06633421728,,,,,,PLC_L_D1S1,P14,60.0237492793,01,B,2015_Feb_04_1642,Y,
stim/negf.jpg,stim/posf.jpg,stim/6.jpg,stim/2.jpg,stim/latef.jpg,CD,2,4,,,,,0,54,54,38,,,,,,,,,,,,,,4,1,0.683101901859,,,,,,PLC_L_D1S1,P14,60.0237492793,01,B,2015_Feb_04_1642,Y,
stim/posf.jpg,stim/negf.jpg,stim/5.jpg,stim/3.jpg,stim/latef.jpg,AB,2,4,,,,,0,55,55,10,,,,,,,,,,,,,,4,1,1.14960666459,,,,,,PLC_L_D1S1,P14,60.0237492793,01,B,2015_Feb_04_1642,Y,
stim/negf.jpg,stim/posf.jpg,stim/4.jpg,stim/1.jpg,stim/latef.jpg,EF,2,4,,,,,0,56,56,58,,,,,,,,,,,,,,4,1,0.916366468047,,,,,,PLC_L_D1S1,P14,60.0237492793,01,B,2015_Feb_04_1642,Y,
stim/negf.jpg,stim/posf.jpg,stim/3.jpg,stim/5.jpg,stim/latef.jpg,AB,1,2,,,,,0,57,57,9,,,,,,,,,,,,,,2,1,1.48279078958,,,,,,PLC_L_D1S1,P14,60.0237492793,01,B,2015_Feb_04_1642,Y,
stim/posf.jpg,stim/negf.jpg,stim/4.jpg,stim/1.jpg,stim/latef.jpg,EF,2,4,,,,,0,58,58,51,,,,,,,,,,,,,,2,0,1.49950675143,,,,,,PLC_L_D1S1,P14,60.0237492793,01,B,2015_Feb_04_1642,Y,
stim/negf.jpg,stim/posf.jpg,stim/4.jpg,stim/1.jpg,stim/latef.jpg,EF,2,4,,,,,0,59,59,59,,,,,,,,,,,,,,4,1,1.21626032188,,,,,,PLC_L_D1S1,P14,60.0237492793,01,B,2015_Feb_04_1642,Y,
,,,,,,,,,,,,,,,,,,,,,,,,,,,,,,,,0.9984375,1.0,1,0,0,PLC_L_D1S1,P14,60.0237492793,01,B,2015_Feb_04_1642,Y,
stim/negf.jpg,stim/posf.jpg,stim/4.jpg,stim/1.jpg,stim/latef.jpg,EF,2,4,,,,,,,,,0,0,0,59,,,,,,,,,,2,0,1.53281166002,,,,,,PLC_L_D1S1,P14,60.0237492793,01,B,2015_Feb_04_1642,Y,
stim/posf.jpg,stim/negf.jpg,stim/1.jpg,stim/4.jpg,stim/latef.jpg,EF,1,2,,,,,,,,,0,1,1,41,,,,,,,,,,4,0,1.04959563313,,,,,,PLC_L_D1S1,P14,60.0237492793,01,B,2015_Feb_04_1642,Y,
stim/negf.jpg,stim/posf.jpg,stim/6.jpg,stim/2.jpg,stim/latef.jpg,CD,2,4,,,,,,,,,0,2,2,39,,,,,,,,,,4,1,0.999679931429,,,,,,PLC_L_D1S1,P14,60.0237492793,01,B,2015_Feb_04_1642,Y,
stim/posf.jpg,stim/negf.jpg,stim/5.jpg,stim/3.jpg,stim/latef.jpg,AB,2,4,,,,,,,,,0,3,3,13,,,,,,,,,,4,1,1.04968220358,,,,,,PLC_L_D1S1,P14,60.0237492793,01,B,2015_Feb_04_1642,Y,
stim/posf.jpg,stim/negf.jpg,stim/5.jpg,stim/3.jpg,stim/latef.jpg,AB,2,4,,,,,,,,,0,4,4,17,,,,,,,,,,4,1,1.08294765999,,,,,,PLC_L_D1S1,P14,60.0237492793,01,B,2015_Feb_04_1642,Y,
stim/posf.jpg,stim/negf.jpg,stim/2.jpg,stim/6.jpg,stim/latef.jpg,CD,1,2,,,,,,,,,0,5,5,21,,,,,,,,,,2,1,1.08293039703,,,,,,PLC_L_D1S1,P14,60.0237492793,01,B,2015_Feb_04_1642,Y,
stim/posf.jpg,stim/negf.jpg,stim/6.jpg,stim/2.jpg,stim/latef.jpg,CD,2,4,,,,,,,,,0,6,6,36,,,,,,,,,,4,1,0.749748473514,,,,,,PLC_L_D1S1,P14,60.0237492793,01,B,2015_Feb_04_1642,Y,
stim/posf.jpg,stim/negf.jpg,stim/3.jpg,stim/5.jpg,stim/latef.jpg,AB,1,2,,,,,,,,,0,7,7,4,,,,,,,,,,2,1,0.866365865046,,,,,,PLC_L_D1S1,P14,60.0237492793,01,B,2015_Feb_04_1642,Y,
stim/posf.jpg,stim/negf.jpg,stim/6.jpg,stim/2.jpg,stim/latef.jpg,CD,2,4,,,,,,,,,0,8,8,33,,,,,,,,,,4,1,0.666433903378,,,,,,PLC_L_D1S1,P14,60.0237492793,01,B,2015_Feb_04_1642,Y,
stim/posf.jpg,stim/negf.jpg,stim/6.jpg,stim/2.jpg,stim/latef.jpg,CD,2,4,,,,,,,,,0,9,9,34,,,,,,,,,,4,1,0.735016035158,,,,,,PLC_L_D1S1,P14,60.0237492793,01,B,2015_Feb_04_1642,Y,
stim/posf.jpg,stim/negf.jpg,stim/2.jpg,stim/6.jpg,stim/latef.jpg,CD,1,2,,,,,,,,,0,10,10,23,,,,,,,,,,2,1,0.633117021989,,,,,,PLC_L_D1S1,P14,60.0237492793,01,B,2015_Feb_04_1642,Y,
stim/negf.jpg,stim/posf.jpg,stim/3.jpg,stim/5.jpg,stim/latef.jpg,AB,1,2,,,,,,,,,0,11,11,8,,,,,,,,,,2,1,1.06627462096,,,,,,PLC_L_D1S1,P14,60.0237492793,01,B,2015_Feb_04_1642,Y,
stim/posf.jpg,stim/negf.jpg,stim/5.jpg,stim/3.jpg,stim/latef.jpg,AB,2,4,,,,,,,,,0,12,12,11,,,,,,,,,,4,1,1.09961003147,,,,,,PLC_L_D1S1,P14,60.0237492793,01,B,2015_Feb_04_1642,Y,
stim/negf.jpg,stim/posf.jpg,stim/5.jpg,stim/3.jpg,stim/latef.jpg,AB,2,4,,,,,,,,,0,13,13,19,,,,,,,,,,4,1,1.04965457081,,,,,,PLC_L_D1S1,P14,60.0237492793,01,B,2015_Feb_04_1642,Y,
stim/negf.jpg,stim/posf.jpg,stim/2.jpg,stim/6.jpg,stim/latef.jpg,CD,1,2,,,,,,,,,0,14,14,27,,,,,,,,,,2,1,1.36622899742,,,,,,PLC_L_D1S1,P14,60.0237492793,01,B,2015_Feb_04_1642,Y,
stim/posf.jpg,stim/negf.jpg,stim/4.jpg,stim/1.jpg,stim/latef.jpg,EF,2,4,,,,,,,,,0,15,15,51,,,,,,,,,,2,0,1.46619630606,,,,,,PLC_L_D1S1,P14,60.0237492793,01,B,2015_Feb_04_1642,Y,
stim/posf.jpg,stim/negf.jpg,stim/6.jpg,stim/2.jpg,stim/latef.jpg,CD,2,4,,,,,,,,,0,16,16,32,,,,,,,,,,4,1,0.849724708369,,,,,,PLC_L_D1S1,P14,60.0237492793,01,B,2015_Feb_04_1642,Y,
stim/posf.jpg,stim/negf.jpg,stim/2.jpg,stim/6.jpg,stim/latef.jpg,CD,1,2,,,,,,,,,0,17,17,24,,,,,,,,,,2,1,0.899698710165,,,,,,PLC_L_D1S1,P14,60.0237492793,01,B,2015_Feb_04_1642,Y,
stim/negf.jpg,stim/posf.jpg,stim/3.jpg,stim/5.jpg,stim/latef.jpg,AB,1,2,,,,,,,,,0,18,18,9,,,,,,,,,,2,1,1.04965729559,,,,,,PLC_L_D1S1,P14,60.0237492793,01,B,2015_Feb_04_1642,Y,
stim/negf.jpg,stim/posf.jpg,stim/1.jpg,stim/4.jpg,stim/latef.jpg,EF,1,2,,,,,,,,,0,19,19,49,,,,,,,,,,4,0,1.08297475743,,,,,,PLC_L_D1S1,P14,60.0237492793,01,B,2015_Feb_04_1642,Y,
stim/negf.jpg,stim/posf.jpg,stim/2.jpg,stim/6.jpg,stim/latef.jpg,CD,1,2,,,,,,,,,0,20,20,28,,,,,,,,,,2,1,0.983022041106,,,,,,PLC_L_D1S1,P14,60.0237492793,01,B,2015_Feb_04_1642,Y,
stim/posf.jpg,stim/negf.jpg,stim/5.jpg,stim/3.jpg,stim/latef.jpg,AB,2,4,,,,,,,,,0,21,21,10,,,,,,,,,,4,1,0.999661784266,,,,,,PLC_L_D1S1,P14,60.0237492793,01,B,2015_Feb_04_1642,Y,
stim/negf.jpg,stim/posf.jpg,stim/1.jpg,stim/4.jpg,stim/latef.jpg,EF,1,2,,,,,,,,,0,22,22,46,,,,,,,,,,4,0,1.44953618719,,,,,,PLC_L_D1S1,P14,60.0237492793,01,B,2015_Feb_04_1642,Y,
stim/posf.jpg,stim/negf.jpg,stim/3.jpg,stim/5.jpg,stim/latef.jpg,AB,1,2,,,,,,,,,0,23,23,3,,,,,,,,,,2,1,0.766405915723,,,,,,PLC_L_D1S1,P14,60.0237492793,01,B,2015_Feb_04_1642,Y,
stim/posf.jpg,stim/negf.jpg,stim/3.jpg,stim/5.jpg,stim/latef.jpg,AB,1,2,,,,,,,,,0,24,24,6,,,,,,,,,,2,1,0.916366182337,,,,,,PLC_L_D1S1,P14,60.0237492793,01,B,2015_Feb_04_1642,Y,
stim/posf.jpg,stim/negf.jpg,stim/2.jpg,stim/6.jpg,stim/latef.jpg,CD,1,2,,,,,,,,,0,25,25,26,,,,,,,,,,2,1,1.08294953365,,,,,,PLC_L_D1S1,P14,60.0237492793,01,B,2015_Feb_04_1642,Y,
stim/posf.jpg,stim/negf.jpg,stim/3.jpg,stim/5.jpg,stim/latef.jpg,AB,1,2,,,,,,,,,0,26,26,0,,,,,,,,,,2,1,0.866429124482,,,,,,PLC_L_D1S1,P14,60.0237492793,01,B,2015_Feb_04_1642,Y,
stim/posf.jpg,stim/negf.jpg,stim/1.jpg,stim/4.jpg,stim/latef.jpg,EF,1,2,,,,,,,,,0,27,27,45,,,,,,,,,,4,0,1.26625070243,,,,,,PLC_L_D1S1,P14,60.0237492793,01,B,2015_Feb_04_1642,Y,
stim/posf.jpg,stim/negf.jpg,stim/2.jpg,stim/6.jpg,stim/latef.jpg,CD,1,2,,,,,,,,,0,28,28,22,,,,,,,,,,2,1,1.01633191505,,,,,,PLC_L_D1S1,P14,60.0237492793,01,B,2015_Feb_04_1642,Y,
stim/negf.jpg,stim/posf.jpg,stim/1.jpg,stim/4.jpg,stim/latef.jpg,EF,1,2,,,,,,,,,0,29,29,48,,,,,,,,,,4,0,1.13295745386,,,,,,PLC_L_D1S1,P14,60.0237492793,01,B,2015_Feb_04_1642,Y,
stim/posf.jpg,stim/negf.jpg,stim/2.jpg,stim/6.jpg,stim/latef.jpg,CD,1,2,,,,,,,,,0,30,30,25,,,,,,,,,,2,1,0.799726499325,,,,,,PLC_L_D1S1,P14,60.0237492793,01,B,2015_Feb_04_1642,Y,
stim/posf.jpg,stim/negf.jpg,stim/2.jpg,stim/6.jpg,stim/latef.jpg,CD,1,2,,,,,,,,,0,31,31,20,,,,,,,,,,2,1,0.982993337668,,,,,,PLC_L_D1S1,P14,60.0237492793,01,B,2015_Feb_04_1642,Y,
stim/posf.jpg,stim/negf.jpg,stim/3.jpg,stim/5.jpg,stim/latef.jpg,AB,1,2,,,,,,,,,0,32,32,1,,,,,,,,,,2,1,0.949635984556,,,,,,PLC_L_D1S1,P14,60.0237492793,01,B,2015_Feb_04_1642,Y,
stim/posf.jpg,stim/negf.jpg,stim/1.jpg,stim/4.jpg,stim/latef.jpg,EF,1,2,,,,,,,,,0,33,33,43,,,,,,,,,,4,0,0.949728527874,,,,,,PLC_L_D1S1,P14,60.0237492793,01,B,2015_Feb_04_1642,Y,
stim/posf.jpg,stim/negf.jpg,stim/4.jpg,stim/1.jpg,stim/latef.jpg,EF,2,4,,,,,,,,,0,34,34,54,,,,,,,,,,2,0,1.04965811964,,,,,,PLC_L_D1S1,P14,60.0237492793,01,B,2015_Feb_04_1642,Y,
stim/posf.jpg,stim/negf.jpg,stim/1.jpg,stim/4.jpg,stim/latef.jpg,EF,1,2,,,,,,,,,0,35,35,42,,,,,,,,,,2,1,0.89971193107,,,,,,PLC_L_D1S1,P14,60.0237492793,01,B,2015_Feb_04_1642,Y,
stim/negf.jpg,stim/posf.jpg,stim/4.jpg,stim/1.jpg,stim/latef.jpg,EF,2,4,,,,,,,,,0,36,36,56,,,,,,,,,,4,1,0.916358534303,,,,,,PLC_L_D1S1,P14,60.0237492793,01,B,2015_Feb_04_1642,Y,
stim/posf.jpg,stim/negf.jpg,stim/3.jpg,stim/5.jpg,stim/latef.jpg,AB,1,2,,,,,,,,,0,37,37,7,,,,,,,,,,2,1,1.06637636418,,,,,,PLC_L_D1S1,P14,60.0237492793,01,B,2015_Feb_04_1642,Y,
stim/posf.jpg,stim/negf.jpg,stim/6.jpg,stim/2.jpg,stim/latef.jpg,CD,2,4,,,,,,,,,0,38,38,35,,,,,,,,,,4,1,0.833047194204,,,,,,PLC_L_D1S1,P14,60.0237492793,01,B,2015_Feb_04_1642,Y,
stim/posf.jpg,stim/negf.jpg,stim/4.jpg,stim/1.jpg,stim/latef.jpg,EF,2,4,,,,,,,,,0,39,39,52,,,,,,,,,,2,0,1.41618634677,,,,,,PLC_L_D1S1,P14,60.0237492793,01,B,2015_Feb_04_1642,Y,
stim/posf.jpg,stim/negf.jpg,stim/6.jpg,stim/2.jpg,stim/latef.jpg,CD,2,4,,,,,,,,,0,40,40,30,,,,,,,,,,4,1,1.14961411413,,,,,,PLC_L_D1S1,P14,60.0237492793,01,B,2015_Feb_04_1642,Y,
stim/posf.jpg,stim/negf.jpg,stim/5.jpg,stim/3.jpg,stim/latef.jpg,AB,2,4,,,,,,,,,0,41,41,12,,,,,,,,,,4,1,1.01630723864,,,,,,PLC_L_D1S1,P14,60.0237492793,01,B,2015_Feb_04_1642,Y,
stim/negf.jpg,stim/posf.jpg,stim/4.jpg,stim/1.jpg,stim/latef.jpg,EF,2,4,,,,,,,,,0,42,42,57,,,,,,,,,,4,1,1.63278879712,,,,,,PLC_L_D1S1,P14,60.0237492793,01,B,2015_Feb_04_1642,Y,
stim/posf.jpg,stim/negf.jpg,stim/5.jpg,stim/3.jpg,stim/latef.jpg,AB,2,4,,,,,,,,,0,43,43,14,,,,,,,,,,4,1,1.01632357831,,,,,,PLC_L_D1S1,P14,60.0237492793,01,B,2015_Feb_04_1642,Y,
stim/posf.jpg,stim/negf.jpg,stim/1.jpg,stim/4.jpg,stim/latef.jpg,EF,1,2,,,,,,,,,0,44,44,40,,,,,,,,,,2,1,1.01638315057,,,,,,PLC_L_D1S1,P14,60.0237492793,01,B,2015_Feb_04_1642,Y,
stim/posf.jpg,stim/negf.jpg,stim/3.jpg,stim/5.jpg,stim/latef.jpg,AB,1,2,,,,,,,,,0,45,45,5,,,,,,,,,,2,1,0.816375264942,,,,,,PLC_L_D1S1,P14,60.0237492793,01,B,2015_Feb_04_1642,Y,
stim/negf.jpg,stim/posf.jpg,stim/6.jpg,stim/2.jpg,stim/latef.jpg,CD,2,4,,,,,,,,,0,46,46,37,,,,,,,,,,4,1,0.766404920245,,,,,,PLC_L_D1S1,P14,60.0237492793,01,B,2015_Feb_04_1642,Y,
stim/posf.jpg,stim/negf.jpg,stim/3.jpg,stim/5.jpg,stim/latef.jpg,AB,1,2,,,,,,,,,0,47,47,2,,,,,,,,,,2,1,0.733070114247,,,,,,PLC_L_D1S1,P14,60.0237492793,01,B,2015_Feb_04_1642,Y,
stim/posf.jpg,stim/negf.jpg,stim/4.jpg,stim/1.jpg,stim/latef.jpg,EF,2,4,,,,,,,,,0,48,48,55,,,,,,,,,,4,1,0.949684059202,,,,,,PLC_L_D1S1,P14,60.0237492793,01,B,2015_Feb_04_1642,Y,
stim/negf.jpg,stim/posf.jpg,stim/6.jpg,stim/2.jpg,stim/latef.jpg,CD,2,4,,,,,,,,,0,49,49,38,,,,,,,,,,4,1,0.849623789205,,,,,,PLC_L_D1S1,P14,60.0237492793,01,B,2015_Feb_04_1642,Y,
stim/negf.jpg,stim/posf.jpg,stim/1.jpg,stim/4.jpg,stim/latef.jpg,EF,1,2,,,,,,,,,0,50,50,47,,,,,,,,,,2,1,0.716426208726,,,,,,PLC_L_D1S1,P14,60.0237492793,01,B,2015_Feb_04_1642,Y,
stim/negf.jpg,stim/posf.jpg,stim/4.jpg,stim/1.jpg,stim/latef.jpg,EF,2,4,,,,,,,,,0,51,51,58,,,,,,,,,,4,1,1.18293518494,,,,,,PLC_L_D1S1,P14,60.0237492793,01,B,2015_Feb_04_1642,Y,
stim/negf.jpg,stim/posf.jpg,stim/2.jpg,stim/6.jpg,stim/latef.jpg,CD,1,2,,,,,,,,,0,52,52,29,,,,,,,,,,2,1,0.799712938575,,,,,,PLC_L_D1S1,P14,60.0237492793,01,B,2015_Feb_04_1642,Y,
stim/posf.jpg,stim/negf.jpg,stim/4.jpg,stim/1.jpg,stim/latef.jpg,EF,2,4,,,,,,,,,0,53,53,53,,,,,,,,,,2,0,0.916311788966,,,,,,PLC_L_D1S1,P14,60.0237492793,01,B,2015_Feb_04_1642,Y,
stim/posf.jpg,stim/negf.jpg,stim/1.jpg,stim/4.jpg,stim/latef.jpg,EF,1,2,,,,,,,,,0,54,54,44,,,,,,,,,,2,1,1.299626317,,,,,,PLC_L_D1S1,P14,60.0237492793,01,B,2015_Feb_04_1642,Y,
stim/negf.jpg,stim/posf.jpg,stim/5.jpg,stim/3.jpg,stim/latef.jpg,AB,2,4,,,,,,,,,0,55,55,18,,,,,,,,,,4,1,1.06631655733,,,,,,PLC_L_D1S1,P14,60.0237492793,01,B,2015_Feb_04_1642,Y,
stim/posf.jpg,stim/negf.jpg,stim/6.jpg,stim/2.jpg,stim/latef.jpg,CD,2,4,,,,,,,,,0,56,56,31,,,,,,,,,,4,1,0.616479257753,,,,,,PLC_L_D1S1,P14,60.0237492793,01,B,2015_Feb_04_1642,Y,
stim/posf.jpg,stim/negf.jpg,stim/4.jpg,stim/1.jpg,stim/latef.jpg,EF,2,4,,,,,,,,,0,57,57,50,,,,,,,,,,4,1,1.38287475555,,,,,,PLC_L_D1S1,P14,60.0237492793,01,B,2015_Feb_04_1642,Y,
stim/posf.jpg,stim/negf.jpg,stim/5.jpg,stim/3.jpg,stim/latef.jpg,AB,2,4,,,,,,,,,0,58,58,15,,,,,,,,,,4,1,0.849716777631,,,,,,PLC_L_D1S1,P14,60.0237492793,01,B,2015_Feb_04_1642,Y,
stim/posf.jpg,stim/negf.jpg,stim/5.jpg,stim/3.jpg,stim/latef.jpg,AB,2,4,,,,,,,,,0,59,59,16,,,,,,,,,,4,1,1.0996186449,,,,,,PLC_L_D1S1,P14,60.0237492793,01,B,2015_Feb_04_1642,Y,
,,,,,,,,,,,,,,,,,,,,,,,,,,,,,,,,0.9984375,1.0,1,0,0,PLC_L_D1S1,P14,60.0237492793,01,B,2015_Feb_04_1642,Y,
stim/negf.jpg,stim/posf.jpg,stim/1.jpg,stim/4.jpg,stim/latef.jpg,EF,1,2,,,,,,,,,,,,,0,0,0,48,,,,,,2,1,1.04966158427,,,,,,PLC_L_D1S1,P14,60.0237492793,01,B,2015_Feb_04_1642,Y,
stim/negf.jpg,stim/posf.jpg,stim/1.jpg,stim/4.jpg,stim/latef.jpg,EF,1,2,,,,,,,,,,,,,0,1,1,49,,,,,,2,1,0.59981971331,,,,,,PLC_L_D1S1,P14,60.0237492793,01,B,2015_Feb_04_1642,Y,
stim/posf.jpg,stim/negf.jpg,stim/6.jpg,stim/2.jpg,stim/latef.jpg,CD,2,4,,,,,,,,,,,,,0,2,2,33,,,,,,4,1,0.866399867669,,,,,,PLC_L_D1S1,P14,60.0237492793,01,B,2015_Feb_04_1642,Y,
stim/posf.jpg,stim/negf.jpg,stim/1.jpg,stim/4.jpg,stim/latef.jpg,EF,1,2,,,,,,,,,,,,,0,3,3,42,,,,,,4,0,0.916384311457,,,,,,PLC_L_D1S1,P14,60.0237492793,01,B,2015_Feb_04_1642,Y,
stim/posf.jpg,stim/negf.jpg,stim/5.jpg,stim/3.jpg,stim/latef.jpg,AB,2,4,,,,,,,,,,,,,0,4,4,15,,,,,,4,1,0.916319385871,,,,,,PLC_L_D1S1,P14,60.0237492793,01,B,2015_Feb_04_1642,Y,
stim/posf.jpg,stim/negf.jpg,stim/6.jpg,stim/2.jpg,stim/latef.jpg,CD,2,4,,,,,,,,,,,,,0,5,5,31,,,,,,4,1,0.633163662063,,,,,,PLC_L_D1S1,P14,60.0237492793,01,B,2015_Feb_04_1642,Y,
stim/posf.jpg,stim/negf.jpg,stim/6.jpg,stim/2.jpg,stim/latef.jpg,CD,2,4,,,,,,,,,,,,,0,6,6,34,,,,,,4,1,0.633105641666,,,,,,PLC_L_D1S1,P14,60.0237492793,01,B,2015_Feb_04_1642,Y,
stim/posf.jpg,stim/negf.jpg,stim/2.jpg,stim/6.jpg,stim/latef.jpg,CD,1,2,,,,,,,,,,,,,0,7,7,26,,,,,,2,1,1.03294504799,,,,,,PLC_L_D1S1,P14,60.0237492793,01,B,2015_Feb_04_1642,Y,
stim/negf.jpg,stim/posf.jpg,stim/4.jpg,stim/1.jpg,stim/latef.jpg,EF,2,4,,,,,,,,,,,,,0,8,8,59,,,,,,4,1,0.899686114819,,,,,,PLC_L_D1S1,P14,60.0237492793,01,B,2015_Feb_04_1642,Y,
stim/posf.jpg,stim/negf.jpg,stim/5.jpg,stim/3.jpg,stim/latef.jpg,AB,2,4,,,,,,,,,,,,,0,9,9,14,,,,,,4,1,0.949709376209,,,,,,PLC_L_D1S1,P14,60.0237492793,01,B,2015_Feb_04_1642,Y,
stim/posf.jpg,stim/negf.jpg,stim/5.jpg,stim/3.jpg,stim/latef.jpg,AB,2,4,,,,,,,,,,,,,0,10,10,16,,,,,,4,1,1.01633062183,,,,,,PLC_L_D1S1,P14,60.0237492793,01,B,2015_Feb_04_1642,Y,
stim/posf.jpg,stim/negf.jpg,stim/1.jpg,stim/4.jpg,stim/latef.jpg,EF,1,2,,,,,,,,,,,,,0,11,11,40,,,,,,2,1,0.649777958895,,,,,,PLC_L_D1S1,P14,60.0237492793,01,B,2015_Feb_04_1642,Y,
stim/posf.jpg,stim/negf.jpg,stim/2.jpg,stim/6.jpg,stim/latef.jpg,CD,1,2,,,,,,,,,,,,,0,12,12,23,,,,,,2,1,1.11626128427,,,,,,PLC_L_D1S1,P14,60.0237492793,01,B,2015_Feb_04_1642,Y,
stim/posf.jpg,stim/negf.jpg,stim/3.jpg,stim/5.jpg,stim/latef.jpg,AB,1,2,,,,,,,,,,,,,0,13,13,5,,,,,,2,1,0.783107140896,,,,,,PLC_L_D1S1,P14,60.0237492793,01,B,2015_Feb_04_1642,Y,
stim/negf.jpg,stim/posf.jpg,stim/4.jpg,stim/1.jpg,stim/latef.jpg,EF,2,4,,,,,,,,,,,,,0,14,14,56,,,,,,4,1,1.09962509896,,,,,,PLC_L_D1S1,P14,60.0237492793,01,B,2015_Feb_04_1642,Y,
stim/posf.jpg,stim/negf.jpg,stim/6.jpg,stim/2.jpg,stim/latef.jpg,CD,2,4,,,,,,,,,,,,,0,15,15,30,,,,,,4,1,0.616461393292,,,,,,PLC_L_D1S1,P14,60.0237492793,01,B,2015_Feb_04_1642,Y,
stim/negf.jpg,stim/posf.jpg,stim/5.jpg,stim/3.jpg,stim/latef.jpg,AB,2,4,,,,,,,,,,,,,0,16,16,19,,,,,,4,1,1.03299434367,,,,,,PLC_L_D1S1,P14,60.0237492793,01,B,2015_Feb_04_1642,Y,
stim/posf.jpg,stim/negf.jpg,stim/6.jpg,stim/2.jpg,stim/latef.jpg,CD,2,4,,,,,,,,,,,,,0,17,17,35,,,,,,4,1,1.04966005346,,,,,,PLC_L_D1S1,P14,60.0237492793,01,B,2015_Feb_04_1642,Y,
stim/negf.jpg,stim/posf.jpg,stim/6.jpg,stim/2.jpg,stim/latef.jpg,CD,2,4,,,,,,,,,,,,,0,18,18,39,,,,,,4,1,0.866334803743,,,,,,PLC_L_D1S1,P14,60.0237492793,01,B,2015_Feb_04_1642,Y,
stim/posf.jpg,stim/negf.jpg,stim/5.jpg,stim/3.jpg,stim/latef.jpg,AB,2,4,,,,,,,,,,,,,0,19,19,13,,,,,,4,1,0.866429822221,,,,,,PLC_L_D1S1,P14,60.0237492793,01,B,2015_Feb_04_1642,Y,
stim/posf.jpg,stim/negf.jpg,stim/4.jpg,stim/1.jpg,stim/latef.jpg,EF,2,4,,,,,,,,,,,,,0,20,20,50,,,,,,2,0,1.08298159945,,,,,,PLC_L_D1S1,P14,60.0237492793,01,B,2015_Feb_04_1642,Y,
stim/negf.jpg,stim/posf.jpg,stim/2.jpg,stim/6.jpg,stim/latef.jpg,CD,1,2,,,,,,,,,,,,,0,21,21,29,,,,,,2,1,0.699715419751,,,,,,PLC_L_D1S1,P14,60.0237492793,01,B,2015_Feb_04_1642,Y,
stim/negf.jpg,stim/posf.jpg,stim/2.jpg,stim/6.jpg,stim/latef.jpg,CD,1,2,,,,,,,,,,,,,0,22,22,27,,,,,,2,1,0.933025865123,,,,,,PLC_L_D1S1,P14,60.0237492793,01,B,2015_Feb_04_1642,Y,
stim/posf.jpg,stim/negf.jpg,stim/4.jpg,stim/1.jpg,stim/latef.jpg,EF,2,4,,,,,,,,,,,,,0,23,23,52,,,,,,4,1,1.51615945384,,,,,,PLC_L_D1S1,P14,60.0237492793,01,B,2015_Feb_04_1642,Y,
stim/posf.jpg,stim/negf.jpg,stim/4.jpg,stim/1.jpg,stim/latef.jpg,EF,2,4,,,,,,,,,,,,,0,24,24,54,,,,,,4,1,0.583120449017,,,,,,PLC_L_D1S1,P14,60.0237492793,01,B,2015_Feb_04_1642,Y,
stim/negf.jpg,stim/posf.jpg,stim/6.jpg,stim/2.jpg,stim/latef.jpg,CD,2,4,,,,,,,,,,,,,0,25,25,38,,,,,,4,1,1.13293242858,,,,,,PLC_L_D1S1,P14,60.0237492793,01,B,2015_Feb_04_1642,Y,
stim/posf.jpg,stim/negf.jpg,stim/5.jpg,stim/3.jpg,stim/latef.jpg,AB,2,4,,,,,,,,,,,,,0,26,26,12,,,,,,4,1,1.06630829878,,,,,,PLC_L_D1S1,P14,60.0237492793,01,B,2015_Feb_04_1642,Y,
stim/negf.jpg,stim/posf.jpg,stim/2.jpg,stim/6.jpg,stim/latef.jpg,CD,1,2,,,,,,,,,,,,,0,27,27,28,,,,,,2,1,1.0163157829,,,,,,PLC_L_D1S1,P14,60.0237492793,01,B,2015_Feb_04_1642,Y,
stim/negf.jpg,stim/posf.jpg,stim/1.jpg,stim/4.jpg,stim/latef.jpg,EF,1,2,,,,,,,,,,,,,0,28,28,46,,,,,,2,1,1.39953444134,,,,,,PLC_L_D1S1,P14,60.0237492793,01,B,2015_Feb_04_1642,Y,
stim/negf.jpg,stim/posf.jpg,stim/4.jpg,stim/1.jpg,stim/latef.jpg,EF,2,4,,,,,,,,,,,,,0,29,29,57,,,,,,4,1,1.1662856434,,,,,,PLC_L_D1S1,P14,60.0237492793,01,B,2015_Feb_04_1642,Y,
stim/posf.jpg,stim/negf.jpg,stim/1.jpg,stim/4.jpg,stim/latef.jpg,EF,1,2,,,,,,,,,,,,,0,30,30,45,,,,,,4,0,1.26625356857,,,,,,PLC_L_D1S1,P14,60.0237492793,01,B,2015_Feb_04_1642,Y,
stim/posf.jpg,stim/negf.jpg,stim/4.jpg,stim/1.jpg,stim/latef.jpg,EF,2,4,,,,,,,,,,,,,0,31,31,55,,,,,,4,1,0.916352504295,,,,,,PLC_L_D1S1,P14,60.0237492793,01,B,2015_Feb_04_1642,Y,
stim/negf.jpg,stim/posf.jpg,stim/1.jpg,stim/4.jpg,stim/latef.jpg,EF,1,2,,,,,,,,,,,,,0,32,32,47,,,,,,2,1,1.09967105935,,,,,,PLC_L_D1S1,P14,60.0237492793,01,B,2015_Feb_04_1642,Y,
stim/posf.jpg,stim/negf.jpg,stim/3.jpg,stim/5.jpg,stim/latef.jpg,AB,1,2,,,,,,,,,,,,,0,33,33,4,,,,,,2,1,1.11630921155,,,,,,PLC_L_D1S1,P14,60.0237492793,01,B,2015_Feb_04_1642,Y,
stim/posf.jpg,stim/negf.jpg,stim/3.jpg,stim/5.jpg,stim/latef.jpg,AB,1,2,,,,,,,,,,,,,0,34,34,7,,,,,,2,1,1.08297048981,,,,,,PLC_L_D1S1,P14,60.0237492793,01,B,2015_Feb_04_1642,Y,
stim/posf.jpg,stim/negf.jpg,stim/6.jpg,stim/2.jpg,stim/latef.jpg,CD,2,4,,,,,,,,,,,,,0,35,35,36,,,,,,4,1,1.49947842092,,,,,,PLC_L_D1S1,P14,60.0237492793,01,B,2015_Feb_04_1642,Y,
stim/negf.jpg,stim/posf.jpg,stim/4.jpg,stim/1.jpg,stim/latef.jpg,EF,2,4,,,,,,,,,,,,,0,36,36,58,,,,,,4,1,1.16627007064,,,,,,PLC_L_D1S1,P14,60.0237492793,01,B,2015_Feb_04_1642,Y,
stim/posf.jpg,stim/negf.jpg,stim/2.jpg,stim/6.jpg,stim/latef.jpg,CD,1,2,,,,,,,,,,,,,0,37,37,25,,,,,,2,1,0.949693289174,,,,,,PLC_L_D1S1,P14,60.0237492793,01,B,2015_Feb_04_1642,Y,
stim/posf.jpg,stim/negf.jpg,stim/5.jpg,stim/3.jpg,stim/latef.jpg,AB,2,4,,,,,,,,,,,,,0,38,38,17,,,,,,4,1,1.23293586914,,,,,,PLC_L_D1S1,P14,60.0237492793,01,B,2015_Feb_04_1642,Y,
stim/posf.jpg,stim/negf.jpg,stim/6.jpg,stim/2.jpg,stim/latef.jpg,CD,2,4,,,,,,,,,,,,,0,39,39,32,,,,,,4,1,0.983058849712,,,,,,PLC_L_D1S1,P14,60.0237492793,01,B,2015_Feb_04_1642,Y,
stim/negf.jpg,stim/posf.jpg,stim/6.jpg,stim/2.jpg,stim/latef.jpg,CD,2,4,,,,,,,,,,,,,0,40,40,37,,,,,,4,1,0.766399879702,,,,,,PLC_L_D1S1,P14,60.0237492793,01,B,2015_Feb_04_1642,Y,
stim/posf.jpg,stim/negf.jpg,stim/2.jpg,stim/6.jpg,stim/latef.jpg,CD,1,2,,,,,,,,,,,,,0,41,41,22,,,,,,2,1,0.81638532197,,,,,,PLC_L_D1S1,P14,60.0237492793,01,B,2015_Feb_04_1642,Y,
stim/negf.jpg,stim/posf.jpg,stim/5.jpg,stim/3.jpg,stim/latef.jpg,AB,2,4,,,,,,,,,,,,,0,42,42,18,,,,,,4,1,1.06625492194,,,,,,PLC_L_D1S1,P14,60.0237492793,01,B,2015_Feb_04_1642,Y,
stim/posf.jpg,stim/negf.jpg,stim/4.jpg,stim/1.jpg,stim/latef.jpg,EF,2,4,,,,,,,,,,,,,0,43,43,51,,,,,,4,1,1.08298120547,,,,,,PLC_L_D1S1,P14,60.0237492793,01,B,2015_Feb_04_1642,Y,
stim/posf.jpg,stim/negf.jpg,stim/5.jpg,stim/3.jpg,stim/latef.jpg,AB,2,4,,,,,,,,,,,,,0,44,44,11,,,,,,4,1,0.866368737195,,,,,,PLC_L_D1S1,P14,60.0237492793,01,B,2015_Feb_04_1642,Y,
stim/posf.jpg,stim/negf.jpg,stim/3.jpg,stim/5.jpg,stim/latef.jpg,AB,1,2,,,,,,,,,,,,,0,45,45,1,,,,,,2,1,1.34948889148,,,,,,PLC_L_D1S1,P14,60.0237492793,01,B,2015_Feb_04_1642,Y,
stim/posf.jpg,stim/negf.jpg,stim/3.jpg,stim/5.jpg,stim/latef.jpg,AB,1,2,,,,,,,,,,,,,0,46,46,2,,,,,,2,1,1.23292430536,,,,,,PLC_L_D1S1,P14,60.0237492793,01,B,2015_Feb_04_1642,Y,
stim/posf.jpg,stim/negf.jpg,stim/3.jpg,stim/5.jpg,stim/latef.jpg,AB,1,2,,,,,,,,,,,,,0,47,47,0,,,,,,2,1,0.883033902624,,,,,,PLC_L_D1S1,P14,60.0237492793,01,B,2015_Feb_04_1642,Y,
stim/posf.jpg,stim/negf.jpg,stim/5.jpg,stim/3.jpg,stim/latef.jpg,AB,2,4,,,,,,,,,,,,,0,48,48,10,,,,,,4,1,0.849755477946,,,,,,PLC_L_D1S1,P14,60.0237492793,01,B,2015_Feb_04_1642,Y,
stim/negf.jpg,stim/posf.jpg,stim/3.jpg,stim/5.jpg,stim/latef.jpg,AB,1,2,,,,,,,,,,,,,0,49,49,8,,,,,,2,1,0.649846725037,,,,,,PLC_L_D1S1,P14,60.0237492793,01,B,2015_Feb_04_1642,Y,
stim/posf.jpg,stim/negf.jpg,stim/1.jpg,stim/4.jpg,stim/latef.jpg,EF,1,2,,,,,,,,,,,,,0,50,50,44,,,,,,2,1,0.982934787953,,,,,,PLC_L_D1S1,P14,60.0237492793,01,B,2015_Feb_04_1642,Y,
stim/posf.jpg,stim/negf.jpg,stim/3.jpg,stim/5.jpg,stim/latef.jpg,AB,1,2,,,,,,,,,,,,,0,51,51,3,,,,,,2,1,0.616464836863,,,,,,PLC_L_D1S1,P14,60.0237492793,01,B,2015_Feb_04_1642,Y,
stim/posf.jpg,stim/negf.jpg,stim/1.jpg,stim/4.jpg,stim/latef.jpg,EF,1,2,,,,,,,,,,,,,0,52,52,43,,,,,,2,1,0.599808525469,,,,,,PLC_L_D1S1,P14,60.0237492793,01,B,2015_Feb_04_1642,Y,
stim/posf.jpg,stim/negf.jpg,stim/3.jpg,stim/5.jpg,stim/latef.jpg,AB,1,2,,,,,,,,,,,,,0,53,53,6,,,,,,2,1,0.649800112029,,,,,,PLC_L_D1S1,P14,60.0237492793,01,B,2015_Feb_04_1642,Y,
stim/posf.jpg,stim/negf.jpg,stim/1.jpg,stim/4.jpg,stim/latef.jpg,EF,1,2,,,,,,,,,,,,,0,54,54,41,,,,,,2,1,0.816393646688,,,,,,PLC_L_D1S1,P14,60.0237492793,01,B,2015_Feb_04_1642,Y,
stim/posf.jpg,stim/negf.jpg,stim/2.jpg,stim/6.jpg,stim/latef.jpg,CD,1,2,,,,,,,,,,,,,0,55,55,24,,,,,,2,1,1.06630349282,,,,,,PLC_L_D1S1,P14,60.0237492793,01,B,2015_Feb_04_1642,Y,
stim/posf.jpg,stim/negf.jpg,stim/2.jpg,stim/6.jpg,stim/latef.jpg,CD,1,2,,,,,,,,,,,,,0,56,56,20,,,,,,2,1,0.849739189407,,,,,,PLC_L_D1S1,P14,60.0237492793,01,B,2015_Feb_04_1642,Y,
stim/posf.jpg,stim/negf.jpg,stim/2.jpg,stim/6.jpg,stim/latef.jpg,CD,1,2,,,,,,,,,,,,,0,57,57,21,,,,,,2,1,0.799734108261,,,,,,PLC_L_D1S1,P14,60.0237492793,01,B,2015_Feb_04_1642,Y,
stim/posf.jpg,stim/negf.jpg,stim/4.jpg,stim/1.jpg,stim/latef.jpg,EF,2,4,,,,,,,,,,,,,0,58,58,53,,,,,,2,0,0.883038422875,,,,,,PLC_L_D1S1,P14,60.0237492793,01,B,2015_Feb_04_1642,Y,
stim/negf.jpg,stim/posf.jpg,stim/3.jpg,stim/5.jpg,stim/latef.jpg,AB,1,2,,,,,,,,,,,,,0,59,59,9,,,,,,2,1,1.46619777371,,,,,,PLC_L_D1S1,P14,60.0237492793,01,B,2015_Feb_04_1642,Y,
