fb_corr,fb_incorr,symbol2,symbol1,fb_late,pair,position,correct,block_01.thisRepN,block_01.thisTrialN,block_01.thisN,block_01.thisIndex,block_02.thisRepN,block_02.thisTrialN,block_02.thisN,block_02.thisIndex,block_03.thisRepN,block_03.thisTrialN,block_03.thisN,block_03.thisIndex,block_04.thisRepN,block_04.thisTrialN,block_04.thisN,block_04.thisIndex,mouse.x,mouse.y,mouse.leftButton,mouse.midButton,mouse.rightButton,buttonBox_2.keys,buttonBox_2.corr,buttonBox_2.rt,mouse_2.x,mouse_2.y,mouse_2.leftButton,mouse_2.midButton,mouse_2.rightButton,expName,Participant,frameRate,SessionNumber,Version,date,Group,
,,,,,,,,,,,,,,,,,,,,,,,,0.9984375,1.0,1,0,0,,,,,,,,,PLC_L_D1S1,P1,60.0161177108,01,B,2014_Nov_28_1503,Y,
stim/negf.jpg,stim/posf.jpg,stim/5.jpg,stim/4.jpg,stim/latef.jpg,AB,1,2,0,0,0,9,,,,,,,,,,,,,,,,,,4,0,1.38289648463,,,,,,PLC_L_D1S1,P1,60.0161177108,01,B,2014_Nov_28_1503,Y,
stim/posf.jpg,stim/negf.jpg,stim/3.jpg,stim/6.jpg,stim/latef.jpg,EF,1,2,0,1,1,44,,,,,,,,,,,,,,,,,,2,1,0.982967635704,,,,,,PLC_L_D1S1,P1,60.0161177108,01,B,2014_Nov_28_1503,Y,
stim/negf.jpg,stim/posf.jpg,stim/3.jpg,stim/6.jpg,stim/latef.jpg,EF,1,2,0,2,2,47,,,,,,,,,,,,,,,,,,2,1,1.33289859137,,,,,,PLC_L_D1S1,P1,60.0161177108,01,B,2014_Nov_28_1503,Y,
stim/posf.jpg,stim/negf.jpg,stim/4.jpg,stim/5.jpg,stim/latef.jpg,AB,2,4,0,3,3,17,,,,,,,,,,,,,,,,,,4,1,1.13296449439,,,,,,PLC_L_D1S1,P1,60.0161177108,01,B,2014_Nov_28_1503,Y,
stim/posf.jpg,stim/negf.jpg,stim/2.jpg,stim/1.jpg,stim/latef.jpg,CD,2,4,0,4,4,35,,,,,,,,,,,,,,,,,,4,1,1.58287708936,,,,,,PLC_L_D1S1,P1,60.0161177108,01,B,2014_Nov_28_1503,Y,
stim/posf.jpg,stim/negf.jpg,stim/6.jpg,stim/3.jpg,stim/latef.jpg,EF,2,4,0,5,5,55,,,,,,,,,,,,,,,,,,2,0,1.4161070815,,,,,,PLC_L_D1S1,P1,60.0161177108,01,B,2014_Nov_28_1503,Y,
stim/negf.jpg,stim/posf.jpg,stim/1.jpg,stim/2.jpg,stim/latef.jpg,CD,1,2,0,6,6,28,,,,,,,,,,,,,,,,,,2,1,1.3828422717,,,,,,PLC_L_D1S1,P1,60.0161177108,01,B,2014_Nov_28_1503,Y,
stim/posf.jpg,stim/negf.jpg,stim/2.jpg,stim/1.jpg,stim/latef.jpg,CD,2,4,0,7,7,32,,,,,,,,,,,,,,,,,,4,1,1.36619864889,,,,,,PLC_L_D1S1,P1,60.0161177108,01,B,2014_Nov_28_1503,Y,
stim/negf.jpg,stim/posf.jpg,stim/1.jpg,stim/2.jpg,stim/latef.jpg,CD,1,2,0,8,8,27,,,,,,,,,,,,,,,,,,2,1,1.43284623707,,,,,,PLC_L_D1S1,P1,60.0161177108,01,B,2014_Nov_28_1503,Y,
stim/posf.jpg,stim/negf.jpg,stim/5.jpg,stim/4.jpg,stim/latef.jpg,AB,1,2,0,9,9,5,,,,,,,,,,,,,,,,,,4,0,1.21624836111,,,,,,PLC_L_D1S1,P1,60.0161177108,01,B,2014_Nov_28_1503,Y,
stim/posf.jpg,stim/negf.jpg,stim/2.jpg,stim/1.jpg,stim/latef.jpg,CD,2,4,0,10,10,30,,,,,,,,,,,,,,,,,,2,0,1.33285611967,,,,,,PLC_L_D1S1,P1,60.0161177108,01,B,2014_Nov_28_1503,Y,
stim/posf.jpg,stim/negf.jpg,stim/5.jpg,stim/4.jpg,stim/latef.jpg,AB,1,2,0,11,11,6,,,,,,,,,,,,,,,,,,4,0,1.58284680699,,,,,,PLC_L_D1S1,P1,60.0161177108,01,B,2014_Nov_28_1503,Y,
stim/posf.jpg,stim/negf.jpg,stim/1.jpg,stim/2.jpg,stim/latef.jpg,CD,1,2,0,12,12,23,,,,,,,,,,,,,,,,,,4,0,1.59947228264,,,,,,PLC_L_D1S1,P1,60.0161177108,01,B,2014_Nov_28_1503,Y,
stim/negf.jpg,stim/posf.jpg,stim/4.jpg,stim/5.jpg,stim/latef.jpg,AB,2,4,0,13,13,18,,,,,,,,,,,,,,,,,,2,0,1.51607223678,,,,,,PLC_L_D1S1,P1,60.0161177108,01,B,2014_Nov_28_1503,Y,
stim/posf.jpg,stim/negf.jpg,stim/2.jpg,stim/1.jpg,stim/latef.jpg,CD,2,4,0,14,14,33,,,,,,,,,,,,,,,,,,4,1,1.53282653203,,,,,,PLC_L_D1S1,P1,60.0161177108,01,B,2014_Nov_28_1503,Y,
stim/posf.jpg,stim/negf.jpg,stim/3.jpg,stim/6.jpg,stim/latef.jpg,EF,1,2,0,15,15,43,,,,,,,,,,,,,,,,,,None,0,,,,,,,PLC_L_D1S1,P1,60.0161177108,01,B,2014_Nov_28_1503,Y,
stim/posf.jpg,stim/negf.jpg,stim/4.jpg,stim/5.jpg,stim/latef.jpg,AB,2,4,0,16,16,11,,,,,,,,,,,,,,,,,,4,1,0.583133465411,,,,,,PLC_L_D1S1,P1,60.0161177108,01,B,2014_Nov_28_1503,Y,
stim/posf.jpg,stim/negf.jpg,stim/3.jpg,stim/6.jpg,stim/latef.jpg,EF,1,2,0,17,17,40,,,,,,,,,,,,,,,,,,4,0,0.69980599918,,,,,,PLC_L_D1S1,P1,60.0161177108,01,B,2014_Nov_28_1503,Y,
stim/posf.jpg,stim/negf.jpg,stim/5.jpg,stim/4.jpg,stim/latef.jpg,AB,1,2,0,18,18,7,,,,,,,,,,,,,,,,,,2,1,0.549798484979,,,,,,PLC_L_D1S1,P1,60.0161177108,01,B,2014_Nov_28_1503,Y,
stim/negf.jpg,stim/posf.jpg,stim/2.jpg,stim/1.jpg,stim/latef.jpg,CD,2,4,0,19,19,39,,,,,,,,,,,,,,,,,,4,1,1.06631784454,,,,,,PLC_L_D1S1,P1,60.0161177108,01,B,2014_Nov_28_1503,Y,
stim/posf.jpg,stim/negf.jpg,stim/6.jpg,stim/3.jpg,stim/latef.jpg,EF,2,4,0,20,20,50,,,,,,,,,,,,,,,,,,2,0,0.899747199844,,,,,,PLC_L_D1S1,P1,60.0161177108,01,B,2014_Nov_28_1503,Y,
stim/posf.jpg,stim/negf.jpg,stim/6.jpg,stim/3.jpg,stim/latef.jpg,EF,2,4,0,21,21,51,,,,,,,,,,,,,,,,,,2,0,1.06629282828,,,,,,PLC_L_D1S1,P1,60.0161177108,01,B,2014_Nov_28_1503,Y,
stim/posf.jpg,stim/negf.jpg,stim/5.jpg,stim/4.jpg,stim/latef.jpg,AB,1,2,0,22,22,4,,,,,,,,,,,,,,,,,,4,0,1.29952787901,,,,,,PLC_L_D1S1,P1,60.0161177108,01,B,2014_Nov_28_1503,Y,
stim/posf.jpg,stim/negf.jpg,stim/3.jpg,stim/6.jpg,stim/latef.jpg,EF,1,2,0,23,23,41,,,,,,,,,,,,,,,,,,4,0,1.38288475544,,,,,,PLC_L_D1S1,P1,60.0161177108,01,B,2014_Nov_28_1503,Y,
stim/negf.jpg,stim/posf.jpg,stim/6.jpg,stim/3.jpg,stim/latef.jpg,EF,2,4,0,24,24,57,,,,,,,,,,,,,,,,,,4,1,1.31623437931,,,,,,PLC_L_D1S1,P1,60.0161177108,01,B,2014_Nov_28_1503,Y,
stim/posf.jpg,stim/negf.jpg,stim/1.jpg,stim/2.jpg,stim/latef.jpg,CD,1,2,0,25,25,21,,,,,,,,,,,,,,,,,,2,1,1.46614810209,,,,,,PLC_L_D1S1,P1,60.0161177108,01,B,2014_Nov_28_1503,Y,
stim/negf.jpg,stim/posf.jpg,stim/6.jpg,stim/3.jpg,stim/latef.jpg,EF,2,4,0,26,26,58,,,,,,,,,,,,,,,,,,4,1,1.4161910204,,,,,,PLC_L_D1S1,P1,60.0161177108,01,B,2014_Nov_28_1503,Y,
stim/posf.jpg,stim/negf.jpg,stim/4.jpg,stim/5.jpg,stim/latef.jpg,AB,2,4,0,27,27,10,,,,,,,,,,,,,,,,,,2,0,1.39953854957,,,,,,PLC_L_D1S1,P1,60.0161177108,01,B,2014_Nov_28_1503,Y,
stim/negf.jpg,stim/posf.jpg,stim/5.jpg,stim/4.jpg,stim/latef.jpg,AB,1,2,0,28,28,8,,,,,,,,,,,,,,,,,,2,1,1.64949748386,,,,,,PLC_L_D1S1,P1,60.0161177108,01,B,2014_Nov_28_1503,Y,
stim/negf.jpg,stim/posf.jpg,stim/2.jpg,stim/1.jpg,stim/latef.jpg,CD,2,4,0,29,29,38,,,,,,,,,,,,,,,,,,4,1,1.11629524178,,,,,,PLC_L_D1S1,P1,60.0161177108,01,B,2014_Nov_28_1503,Y,
stim/posf.jpg,stim/negf.jpg,stim/2.jpg,stim/1.jpg,stim/latef.jpg,CD,2,4,0,30,30,31,,,,,,,,,,,,,,,,,,2,0,1.06630124923,,,,,,PLC_L_D1S1,P1,60.0161177108,01,B,2014_Nov_28_1503,Y,
stim/posf.jpg,stim/negf.jpg,stim/4.jpg,stim/5.jpg,stim/latef.jpg,AB,2,4,0,31,31,13,,,,,,,,,,,,,,,,,,4,1,1.5661336421,,,,,,PLC_L_D1S1,P1,60.0161177108,01,B,2014_Nov_28_1503,Y,
stim/negf.jpg,stim/posf.jpg,stim/6.jpg,stim/3.jpg,stim/latef.jpg,EF,2,4,0,32,32,59,,,,,,,,,,,,,,,,,,4,1,1.18293425563,,,,,,PLC_L_D1S1,P1,60.0161177108,01,B,2014_Nov_28_1503,Y,
stim/posf.jpg,stim/negf.jpg,stim/1.jpg,stim/2.jpg,stim/latef.jpg,CD,1,2,0,33,33,26,,,,,,,,,,,,,,,,,,2,1,1.18294735323,,,,,,PLC_L_D1S1,P1,60.0161177108,01,B,2014_Nov_28_1503,Y,
stim/posf.jpg,stim/negf.jpg,stim/4.jpg,stim/5.jpg,stim/latef.jpg,AB,2,4,0,34,34,12,,,,,,,,,,,,,,,,,,4,1,1.1329902144,,,,,,PLC_L_D1S1,P1,60.0161177108,01,B,2014_Nov_28_1503,Y,
stim/negf.jpg,stim/posf.jpg,stim/3.jpg,stim/6.jpg,stim/latef.jpg,EF,1,2,0,35,35,46,,,,,,,,,,,,,,,,,,4,0,1.24957047251,,,,,,PLC_L_D1S1,P1,60.0161177108,01,B,2014_Nov_28_1503,Y,
stim/negf.jpg,stim/posf.jpg,stim/2.jpg,stim/1.jpg,stim/latef.jpg,CD,2,4,0,36,36,37,,,,,,,,,,,,,,,,,,None,0,,,,,,,PLC_L_D1S1,P1,60.0161177108,01,B,2014_Nov_28_1503,Y,
stim/negf.jpg,stim/posf.jpg,stim/3.jpg,stim/6.jpg,stim/latef.jpg,EF,1,2,0,37,37,48,,,,,,,,,,,,,,,,,,4,0,0.949718338515,,,,,,PLC_L_D1S1,P1,60.0161177108,01,B,2014_Nov_28_1503,Y,
stim/negf.jpg,stim/posf.jpg,stim/4.jpg,stim/5.jpg,stim/latef.jpg,AB,2,4,0,38,38,19,,,,,,,,,,,,,,,,,,2,0,1.03296253651,,,,,,PLC_L_D1S1,P1,60.0161177108,01,B,2014_Nov_28_1503,Y,
stim/negf.jpg,stim/posf.jpg,stim/3.jpg,stim/6.jpg,stim/latef.jpg,EF,1,2,0,39,39,49,,,,,,,,,,,,,,,,,,4,0,1.31621020816,,,,,,PLC_L_D1S1,P1,60.0161177108,01,B,2014_Nov_28_1503,Y,
stim/posf.jpg,stim/negf.jpg,stim/6.jpg,stim/3.jpg,stim/latef.jpg,EF,2,4,0,40,40,52,,,,,,,,,,,,,,,,,,4,1,1.38289224106,,,,,,PLC_L_D1S1,P1,60.0161177108,01,B,2014_Nov_28_1503,Y,
stim/posf.jpg,stim/negf.jpg,stim/2.jpg,stim/1.jpg,stim/latef.jpg,CD,2,4,0,41,41,34,,,,,,,,,,,,,,,,,,4,1,1.34961437879,,,,,,PLC_L_D1S1,P1,60.0161177108,01,B,2014_Nov_28_1503,Y,
stim/posf.jpg,stim/negf.jpg,stim/3.jpg,stim/6.jpg,stim/latef.jpg,EF,1,2,0,42,42,42,,,,,,,,,,,,,,,,,,2,1,1.06630469882,,,,,,PLC_L_D1S1,P1,60.0161177108,01,B,2014_Nov_28_1503,Y,
stim/posf.jpg,stim/negf.jpg,stim/1.jpg,stim/2.jpg,stim/latef.jpg,CD,1,2,0,43,43,22,,,,,,,,,,,,,,,,,,4,0,1.11623475525,,,,,,PLC_L_D1S1,P1,60.0161177108,01,B,2014_Nov_28_1503,Y,
stim/posf.jpg,stim/negf.jpg,stim/1.jpg,stim/2.jpg,stim/latef.jpg,CD,1,2,0,44,44,20,,,,,,,,,,,,,,,,,,2,1,1.14960941643,,,,,,PLC_L_D1S1,P1,60.0161177108,01,B,2014_Nov_28_1503,Y,
stim/posf.jpg,stim/negf.jpg,stim/4.jpg,stim/5.jpg,stim/latef.jpg,AB,2,4,0,45,45,16,,,,,,,,,,,,,,,,,,4,1,1.26626191434,,,,,,PLC_L_D1S1,P1,60.0161177108,01,B,2014_Nov_28_1503,Y,
stim/posf.jpg,stim/negf.jpg,stim/6.jpg,stim/3.jpg,stim/latef.jpg,EF,2,4,0,46,46,54,,,,,,,,,,,,,,,,,,2,0,0.716449243054,,,,,,PLC_L_D1S1,P1,60.0161177108,01,B,2014_Nov_28_1503,Y,
stim/posf.jpg,stim/negf.jpg,stim/5.jpg,stim/4.jpg,stim/latef.jpg,AB,1,2,0,47,47,1,,,,,,,,,,,,,,,,,,4,0,0.983013400601,,,,,,PLC_L_D1S1,P1,60.0161177108,01,B,2014_Nov_28_1503,Y,
stim/posf.jpg,stim/negf.jpg,stim/1.jpg,stim/2.jpg,stim/latef.jpg,CD,1,2,0,48,48,24,,,,,,,,,,,,,,,,,,2,1,1.23291665432,,,,,,PLC_L_D1S1,P1,60.0161177108,01,B,2014_Nov_28_1503,Y,
stim/posf.jpg,stim/negf.jpg,stim/5.jpg,stim/4.jpg,stim/latef.jpg,AB,1,2,0,49,49,2,,,,,,,,,,,,,,,,,,2,1,1.0996545272,,,,,,PLC_L_D1S1,P1,60.0161177108,01,B,2014_Nov_28_1503,Y,
stim/posf.jpg,stim/negf.jpg,stim/5.jpg,stim/4.jpg,stim/latef.jpg,AB,1,2,0,50,50,3,,,,,,,,,,,,,,,,,,4,0,0.999628774111,,,,,,PLC_L_D1S1,P1,60.0161177108,01,B,2014_Nov_28_1503,Y,
stim/posf.jpg,stim/negf.jpg,stim/6.jpg,stim/3.jpg,stim/latef.jpg,EF,2,4,0,51,51,53,,,,,,,,,,,,,,,,,,4,1,0.916328543663,,,,,,PLC_L_D1S1,P1,60.0161177108,01,B,2014_Nov_28_1503,Y,
stim/negf.jpg,stim/posf.jpg,stim/1.jpg,stim/2.jpg,stim/latef.jpg,CD,1,2,0,52,52,29,,,,,,,,,,,,,,,,,,2,1,1.01632197532,,,,,,PLC_L_D1S1,P1,60.0161177108,01,B,2014_Nov_28_1503,Y,
stim/posf.jpg,stim/negf.jpg,stim/3.jpg,stim/6.jpg,stim/latef.jpg,EF,1,2,0,53,53,45,,,,,,,,,,,,,,,,,,4,0,1.03300093307,,,,,,PLC_L_D1S1,P1,60.0161177108,01,B,2014_Nov_28_1503,Y,
stim/posf.jpg,stim/negf.jpg,stim/4.jpg,stim/5.jpg,stim/latef.jpg,AB,2,4,0,54,54,14,,,,,,,,,,,,,,,,,,4,1,0.716421718552,,,,,,PLC_L_D1S1,P1,60.0161177108,01,B,2014_Nov_28_1503,Y,
stim/posf.jpg,stim/negf.jpg,stim/4.jpg,stim/5.jpg,stim/latef.jpg,AB,2,4,0,55,55,15,,,,,,,,,,,,,,,,,,2,0,0.766402285688,,,,,,PLC_L_D1S1,P1,60.0161177108,01,B,2014_Nov_28_1503,Y,
stim/posf.jpg,stim/negf.jpg,stim/2.jpg,stim/1.jpg,stim/latef.jpg,CD,2,4,0,56,56,36,,,,,,,,,,,,,,,,,,4,1,0.683060566987,,,,,,PLC_L_D1S1,P1,60.0161177108,01,B,2014_Nov_28_1503,Y,
stim/posf.jpg,stim/negf.jpg,stim/5.jpg,stim/4.jpg,stim/latef.jpg,AB,1,2,0,57,57,0,,,,,,,,,,,,,,,,,,2,1,0.716390900855,,,,,,PLC_L_D1S1,P1,60.0161177108,01,B,2014_Nov_28_1503,Y,
stim/posf.jpg,stim/negf.jpg,stim/1.jpg,stim/2.jpg,stim/latef.jpg,CD,1,2,0,58,58,25,,,,,,,,,,,,,,,,,,4,0,0.649849506961,,,,,,PLC_L_D1S1,P1,60.0161177108,01,B,2014_Nov_28_1503,Y,
stim/negf.jpg,stim/posf.jpg,stim/6.jpg,stim/3.jpg,stim/latef.jpg,EF,2,4,0,59,59,56,,,,,,,,,,,,,,,,,,2,0,0.949701243971,,,,,,PLC_L_D1S1,P1,60.0161177108,01,B,2014_Nov_28_1503,Y,
,,,,,,,,,,,,,,,,,,,,,,,,,,,,,,,,0.9984375,1.0,0,0,1,PLC_L_D1S1,P1,60.0161177108,01,B,2014_Nov_28_1503,Y,
stim/posf.jpg,stim/negf.jpg,stim/5.jpg,stim/4.jpg,stim/latef.jpg,AB,1,2,,,,,0,0,0,2,,,,,,,,,,,,,,4,0,0.783085664448,,,,,,PLC_L_D1S1,P1,60.0161177108,01,B,2014_Nov_28_1503,Y,
stim/posf.jpg,stim/negf.jpg,stim/2.jpg,stim/1.jpg,stim/latef.jpg,CD,2,4,,,,,0,1,1,33,,,,,,,,,,,,,,4,1,0.916312161893,,,,,,PLC_L_D1S1,P1,60.0161177108,01,B,2014_Nov_28_1503,Y,
stim/posf.jpg,stim/negf.jpg,stim/4.jpg,stim/5.jpg,stim/latef.jpg,AB,2,4,,,,,0,2,2,16,,,,,,,,,,,,,,4,1,0.866408884111,,,,,,PLC_L_D1S1,P1,60.0161177108,01,B,2014_Nov_28_1503,Y,
stim/posf.jpg,stim/negf.jpg,stim/3.jpg,stim/6.jpg,stim/latef.jpg,EF,1,2,,,,,0,3,3,41,,,,,,,,,,,,,,4,0,0.883033051507,,,,,,PLC_L_D1S1,P1,60.0161177108,01,B,2014_Nov_28_1503,Y,
stim/posf.jpg,stim/negf.jpg,stim/5.jpg,stim/4.jpg,stim/latef.jpg,AB,1,2,,,,,0,4,4,1,,,,,,,,,,,,,,2,1,0.73307349466,,,,,,PLC_L_D1S1,P1,60.0161177108,01,B,2014_Nov_28_1503,Y,
stim/negf.jpg,stim/posf.jpg,stim/3.jpg,stim/6.jpg,stim/latef.jpg,EF,1,2,,,,,0,5,5,48,,,,,,,,,,,,,,2,1,0.766370295071,,,,,,PLC_L_D1S1,P1,60.0161177108,01,B,2014_Nov_28_1503,Y,
stim/posf.jpg,stim/negf.jpg,stim/1.jpg,stim/2.jpg,stim/latef.jpg,CD,1,2,,,,,0,6,6,26,,,,,,,,,,,,,,4,0,0.68310954087,,,,,,PLC_L_D1S1,P1,60.0161177108,01,B,2014_Nov_28_1503,Y,
stim/negf.jpg,stim/posf.jpg,stim/3.jpg,stim/6.jpg,stim/latef.jpg,EF,1,2,,,,,0,7,7,49,,,,,,,,,,,,,,2,1,0.933081798325,,,,,,PLC_L_D1S1,P1,60.0161177108,01,B,2014_Nov_28_1503,Y,
stim/posf.jpg,stim/negf.jpg,stim/3.jpg,stim/6.jpg,stim/latef.jpg,EF,1,2,,,,,0,8,8,40,,,,,,,,,,,,,,4,0,0.7163978301,,,,,,PLC_L_D1S1,P1,60.0161177108,01,B,2014_Nov_28_1503,Y,
stim/negf.jpg,stim/posf.jpg,stim/1.jpg,stim/2.jpg,stim/latef.jpg,CD,1,2,,,,,0,9,9,28,,,,,,,,,,,,,,2,1,0.76641647801,,,,,,PLC_L_D1S1,P1,60.0161177108,01,B,2014_Nov_28_1503,Y,
stim/posf.jpg,stim/negf.jpg,stim/6.jpg,stim/3.jpg,stim/latef.jpg,EF,2,4,,,,,0,10,10,52,,,,,,,,,,,,,,4,1,0.766420868938,,,,,,PLC_L_D1S1,P1,60.0161177108,01,B,2014_Nov_28_1503,Y,
stim/posf.jpg,stim/negf.jpg,stim/2.jpg,stim/1.jpg,stim/latef.jpg,CD,2,4,,,,,0,11,11,32,,,,,,,,,,,,,,4,1,0.966317973857,,,,,,PLC_L_D1S1,P1,60.0161177108,01,B,2014_Nov_28_1503,Y,
stim/negf.jpg,stim/posf.jpg,stim/5.jpg,stim/4.jpg,stim/latef.jpg,AB,1,2,,,,,0,12,12,8,,,,,,,,,,,,,,2,1,0.616554622316,,,,,,PLC_L_D1S1,P1,60.0161177108,01,B,2014_Nov_28_1503,Y,
stim/posf.jpg,stim/negf.jpg,stim/1.jpg,stim/2.jpg,stim/latef.jpg,CD,1,2,,,,,0,13,13,20,,,,,,,,,,,,,,2,1,0.733123665523,,,,,,PLC_L_D1S1,P1,60.0161177108,01,B,2014_Nov_28_1503,Y,
stim/posf.jpg,stim/negf.jpg,stim/4.jpg,stim/5.jpg,stim/latef.jpg,AB,2,4,,,,,0,14,14,11,,,,,,,,,,,,,,4,1,0.64979889099,,,,,,PLC_L_D1S1,P1,60.0161177108,01,B,2014_Nov_28_1503,Y,
stim/posf.jpg,stim/negf.jpg,stim/5.jpg,stim/4.jpg,stim/latef.jpg,AB,1,2,,,,,0,15,15,6,,,,,,,,,,,,,,4,0,0.949645382947,,,,,,PLC_L_D1S1,P1,60.0161177108,01,B,2014_Nov_28_1503,Y,
stim/posf.jpg,stim/negf.jpg,stim/3.jpg,stim/6.jpg,stim/latef.jpg,EF,1,2,,,,,0,16,16,44,,,,,,,,,,,,,,4,0,0.883042079977,,,,,,PLC_L_D1S1,P1,60.0161177108,01,B,2014_Nov_28_1503,Y,
stim/posf.jpg,stim/negf.jpg,stim/5.jpg,stim/4.jpg,stim/latef.jpg,AB,1,2,,,,,0,17,17,3,,,,,,,,,,,,,,2,1,0.832987694124,,,,,,PLC_L_D1S1,P1,60.0161177108,01,B,2014_Nov_28_1503,Y,
stim/posf.jpg,stim/negf.jpg,stim/1.jpg,stim/2.jpg,stim/latef.jpg,CD,1,2,,,,,0,18,18,22,,,,,,,,,,,,,,2,1,0.766403596952,,,,,,PLC_L_D1S1,P1,60.0161177108,01,B,2014_Nov_28_1503,Y,
stim/negf.jpg,stim/posf.jpg,stim/3.jpg,stim/6.jpg,stim/latef.jpg,EF,1,2,,,,,0,19,19,46,,,,,,,,,,,,,,4,0,0.733044776187,,,,,,PLC_L_D1S1,P1,60.0161177108,01,B,2014_Nov_28_1503,Y,
stim/posf.jpg,stim/negf.jpg,stim/1.jpg,stim/2.jpg,stim/latef.jpg,CD,1,2,,,,,0,20,20,23,,,,,,,,,,,,,,2,1,0.883027072627,,,,,,PLC_L_D1S1,P1,60.0161177108,01,B,2014_Nov_28_1503,Y,
stim/posf.jpg,stim/negf.jpg,stim/4.jpg,stim/5.jpg,stim/latef.jpg,AB,2,4,,,,,0,21,21,15,,,,,,,,,,,,,,4,1,0.733081199836,,,,,,PLC_L_D1S1,P1,60.0161177108,01,B,2014_Nov_28_1503,Y,
stim/negf.jpg,stim/posf.jpg,stim/4.jpg,stim/5.jpg,stim/latef.jpg,AB,2,4,,,,,0,22,22,19,,,,,,,,,,,,,,2,0,0.966295249302,,,,,,PLC_L_D1S1,P1,60.0161177108,01,B,2014_Nov_28_1503,Y,
stim/posf.jpg,stim/negf.jpg,stim/2.jpg,stim/1.jpg,stim/latef.jpg,CD,2,4,,,,,0,23,23,31,,,,,,,,,,,,,,4,1,0.816387069319,,,,,,PLC_L_D1S1,P1,60.0161177108,01,B,2014_Nov_28_1503,Y,
stim/posf.jpg,stim/negf.jpg,stim/3.jpg,stim/6.jpg,stim/latef.jpg,EF,1,2,,,,,0,24,24,45,,,,,,,,,,,,,,4,0,1.16626287673,,,,,,PLC_L_D1S1,P1,60.0161177108,01,B,2014_Nov_28_1503,Y,
stim/posf.jpg,stim/negf.jpg,stim/5.jpg,stim/4.jpg,stim/latef.jpg,AB,1,2,,,,,0,25,25,4,,,,,,,,,,,,,,2,1,0.816446097225,,,,,,PLC_L_D1S1,P1,60.0161177108,01,B,2014_Nov_28_1503,Y,
stim/negf.jpg,stim/posf.jpg,stim/1.jpg,stim/2.jpg,stim/latef.jpg,CD,1,2,,,,,0,26,26,29,,,,,,,,,,,,,,2,1,0.799753714055,,,,,,PLC_L_D1S1,P1,60.0161177108,01,B,2014_Nov_28_1503,Y,
stim/posf.jpg,stim/negf.jpg,stim/6.jpg,stim/3.jpg,stim/latef.jpg,EF,2,4,,,,,0,27,27,53,,,,,,,,,,,,,,4,1,0.816394798555,,,,,,PLC_L_D1S1,P1,60.0161177108,01,B,2014_Nov_28_1503,Y,
stim/posf.jpg,stim/negf.jpg,stim/2.jpg,stim/1.jpg,stim/latef.jpg,CD,2,4,,,,,0,28,28,35,,,,,,,,,,,,,,2,0,0.783094025255,,,,,,PLC_L_D1S1,P1,60.0161177108,01,B,2014_Nov_28_1503,Y,
stim/posf.jpg,stim/negf.jpg,stim/6.jpg,stim/3.jpg,stim/latef.jpg,EF,2,4,,,,,0,29,29,54,,,,,,,,,,,,,,4,1,0.599756333575,,,,,,PLC_L_D1S1,P1,60.0161177108,01,B,2014_Nov_28_1503,Y,
stim/posf.jpg,stim/negf.jpg,stim/4.jpg,stim/5.jpg,stim/latef.jpg,AB,2,4,,,,,0,30,30,10,,,,,,,,,,,,,,4,1,0.916369364255,,,,,,PLC_L_D1S1,P1,60.0161177108,01,B,2014_Nov_28_1503,Y,
stim/posf.jpg,stim/negf.jpg,stim/6.jpg,stim/3.jpg,stim/latef.jpg,EF,2,4,,,,,0,31,31,51,,,,,,,,,,,,,,2,0,0.849717655816,,,,,,PLC_L_D1S1,P1,60.0161177108,01,B,2014_Nov_28_1503,Y,
stim/negf.jpg,stim/posf.jpg,stim/2.jpg,stim/1.jpg,stim/latef.jpg,CD,2,4,,,,,0,32,32,38,,,,,,,,,,,,,,4,1,0.849739556321,,,,,,PLC_L_D1S1,P1,60.0161177108,01,B,2014_Nov_28_1503,Y,
stim/posf.jpg,stim/negf.jpg,stim/2.jpg,stim/1.jpg,stim/latef.jpg,CD,2,4,,,,,0,33,33,36,,,,,,,,,,,,,,2,0,0.716447128792,,,,,,PLC_L_D1S1,P1,60.0161177108,01,B,2014_Nov_28_1503,Y,
stim/posf.jpg,stim/negf.jpg,stim/4.jpg,stim/5.jpg,stim/latef.jpg,AB,2,4,,,,,0,34,34,13,,,,,,,,,,,,,,4,1,0.949665794747,,,,,,PLC_L_D1S1,P1,60.0161177108,01,B,2014_Nov_28_1503,Y,
stim/posf.jpg,stim/negf.jpg,stim/4.jpg,stim/5.jpg,stim/latef.jpg,AB,2,4,,,,,0,35,35,17,,,,,,,,,,,,,,4,1,1.04961913061,,,,,,PLC_L_D1S1,P1,60.0161177108,01,B,2014_Nov_28_1503,Y,
stim/negf.jpg,stim/posf.jpg,stim/6.jpg,stim/3.jpg,stim/latef.jpg,EF,2,4,,,,,0,36,36,59,,,,,,,,,,,,,,4,1,1.1162907877,,,,,,PLC_L_D1S1,P1,60.0161177108,01,B,2014_Nov_28_1503,Y,
stim/posf.jpg,stim/negf.jpg,stim/2.jpg,stim/1.jpg,stim/latef.jpg,CD,2,4,,,,,0,37,37,30,,,,,,,,,,,,,,4,1,1.09957919873,,,,,,PLC_L_D1S1,P1,60.0161177108,01,B,2014_Nov_28_1503,Y,
stim/negf.jpg,stim/posf.jpg,stim/6.jpg,stim/3.jpg,stim/latef.jpg,EF,2,4,,,,,0,38,38,57,,,,,,,,,,,,,,2,0,1.48288228027,,,,,,PLC_L_D1S1,P1,60.0161177108,01,B,2014_Nov_28_1503,Y,
stim/posf.jpg,stim/negf.jpg,stim/3.jpg,stim/6.jpg,stim/latef.jpg,EF,1,2,,,,,0,39,39,43,,,,,,,,,,,,,,2,1,1.18295753958,,,,,,PLC_L_D1S1,P1,60.0161177108,01,B,2014_Nov_28_1503,Y,
stim/posf.jpg,stim/negf.jpg,stim/4.jpg,stim/5.jpg,stim/latef.jpg,AB,2,4,,,,,0,40,40,12,,,,,,,,,,,,,,4,1,0.849736482672,,,,,,PLC_L_D1S1,P1,60.0161177108,01,B,2014_Nov_28_1503,Y,
stim/posf.jpg,stim/negf.jpg,stim/6.jpg,stim/3.jpg,stim/latef.jpg,EF,2,4,,,,,0,41,41,55,,,,,,,,,,,,,,2,0,0.966355389976,,,,,,PLC_L_D1S1,P1,60.0161177108,01,B,2014_Nov_28_1503,Y,
stim/posf.jpg,stim/negf.jpg,stim/6.jpg,stim/3.jpg,stim/latef.jpg,EF,2,4,,,,,0,42,42,50,,,,,,,,,,,,,,4,1,0.883025126785,,,,,,PLC_L_D1S1,P1,60.0161177108,01,B,2014_Nov_28_1503,Y,
stim/posf.jpg,stim/negf.jpg,stim/1.jpg,stim/2.jpg,stim/latef.jpg,CD,1,2,,,,,0,43,43,25,,,,,,,,,,,,,,2,1,1.13296203727,,,,,,PLC_L_D1S1,P1,60.0161177108,01,B,2014_Nov_28_1503,Y,
stim/negf.jpg,stim/posf.jpg,stim/1.jpg,stim/2.jpg,stim/latef.jpg,CD,1,2,,,,,0,44,44,27,,,,,,,,,,,,,,2,1,0.966369465006,,,,,,PLC_L_D1S1,P1,60.0161177108,01,B,2014_Nov_28_1503,Y,
stim/posf.jpg,stim/negf.jpg,stim/5.jpg,stim/4.jpg,stim/latef.jpg,AB,1,2,,,,,0,45,45,0,,,,,,,,,,,,,,2,1,0.883105029643,,,,,,PLC_L_D1S1,P1,60.0161177108,01,B,2014_Nov_28_1503,Y,
stim/posf.jpg,stim/negf.jpg,stim/4.jpg,stim/5.jpg,stim/latef.jpg,AB,2,4,,,,,0,46,46,14,,,,,,,,,,,,,,4,1,0.999660993298,,,,,,PLC_L_D1S1,P1,60.0161177108,01,B,2014_Nov_28_1503,Y,
stim/negf.jpg,stim/posf.jpg,stim/5.jpg,stim/4.jpg,stim/latef.jpg,AB,1,2,,,,,0,47,47,9,,,,,,,,,,,,,,2,1,1.03299810002,,,,,,PLC_L_D1S1,P1,60.0161177108,01,B,2014_Nov_28_1503,Y,
stim/posf.jpg,stim/negf.jpg,stim/1.jpg,stim/2.jpg,stim/latef.jpg,CD,1,2,,,,,0,48,48,21,,,,,,,,,,,,,,2,1,0.749736067638,,,,,,PLC_L_D1S1,P1,60.0161177108,01,B,2014_Nov_28_1503,Y,
stim/negf.jpg,stim/posf.jpg,stim/6.jpg,stim/3.jpg,stim/latef.jpg,EF,2,4,,,,,0,49,49,58,,,,,,,,,,,,,,4,1,1.08288831028,,,,,,PLC_L_D1S1,P1,60.0161177108,01,B,2014_Nov_28_1503,Y,
stim/negf.jpg,stim/posf.jpg,stim/6.jpg,stim/3.jpg,stim/latef.jpg,EF,2,4,,,,,0,50,50,56,,,,,,,,,,,,,,4,1,1.03296352297,,,,,,PLC_L_D1S1,P1,60.0161177108,01,B,2014_Nov_28_1503,Y,
stim/posf.jpg,stim/negf.jpg,stim/2.jpg,stim/1.jpg,stim/latef.jpg,CD,2,4,,,,,0,51,51,34,,,,,,,,,,,,,,4,1,0.899678812645,,,,,,PLC_L_D1S1,P1,60.0161177108,01,B,2014_Nov_28_1503,Y,
stim/posf.jpg,stim/negf.jpg,stim/5.jpg,stim/4.jpg,stim/latef.jpg,AB,1,2,,,,,0,52,52,7,,,,,,,,,,,,,,2,1,0.949683851686,,,,,,PLC_L_D1S1,P1,60.0161177108,01,B,2014_Nov_28_1503,Y,
stim/negf.jpg,stim/posf.jpg,stim/3.jpg,stim/6.jpg,stim/latef.jpg,EF,1,2,,,,,0,53,53,47,,,,,,,,,,,,,,2,1,1.01630990026,,,,,,PLC_L_D1S1,P1,60.0161177108,01,B,2014_Nov_28_1503,Y,
stim/posf.jpg,stim/negf.jpg,stim/5.jpg,stim/4.jpg,stim/latef.jpg,AB,1,2,,,,,0,54,54,5,,,,,,,,,,,,,,2,1,0.982978934824,,,,,,PLC_L_D1S1,P1,60.0161177108,01,B,2014_Nov_28_1503,Y,
stim/negf.jpg,stim/posf.jpg,stim/4.jpg,stim/5.jpg,stim/latef.jpg,AB,2,4,,,,,0,55,55,18,,,,,,,,,,,,,,4,1,0.983008429228,,,,,,PLC_L_D1S1,P1,60.0161177108,01,B,2014_Nov_28_1503,Y,
stim/posf.jpg,stim/negf.jpg,stim/3.jpg,stim/6.jpg,stim/latef.jpg,EF,1,2,,,,,0,56,56,42,,,,,,,,,,,,,,4,0,0.816387469314,,,,,,PLC_L_D1S1,P1,60.0161177108,01,B,2014_Nov_28_1503,Y,
stim/negf.jpg,stim/posf.jpg,stim/2.jpg,stim/1.jpg,stim/latef.jpg,CD,2,4,,,,,0,57,57,37,,,,,,,,,,,,,,4,1,0.816308414566,,,,,,PLC_L_D1S1,P1,60.0161177108,01,B,2014_Nov_28_1503,Y,
stim/negf.jpg,stim/posf.jpg,stim/2.jpg,stim/1.jpg,stim/latef.jpg,CD,2,4,,,,,0,58,58,39,,,,,,,,,,,,,,4,1,0.766410315673,,,,,,PLC_L_D1S1,P1,60.0161177108,01,B,2014_Nov_28_1503,Y,
stim/posf.jpg,stim/negf.jpg,stim/1.jpg,stim/2.jpg,stim/latef.jpg,CD,1,2,,,,,0,59,59,24,,,,,,,,,,,,,,4,0,1.19957586644,,,,,,PLC_L_D1S1,P1,60.0161177108,01,B,2014_Nov_28_1503,Y,
,,,,,,,,,,,,,,,,,,,,,,,,,,,,,,,,0.9984375,1.0,1,0,0,PLC_L_D1S1,P1,60.0161177108,01,B,2014_Nov_28_1503,Y,
stim/negf.jpg,stim/posf.jpg,stim/2.jpg,stim/1.jpg,stim/latef.jpg,CD,2,4,,,,,,,,,0,0,0,39,,,,,,,,,,4,1,0.783034582317,,,,,,PLC_L_D1S1,P1,60.0161177108,01,B,2014_Nov_28_1503,Y,
stim/posf.jpg,stim/negf.jpg,stim/4.jpg,stim/5.jpg,stim/latef.jpg,AB,2,4,,,,,,,,,0,1,1,16,,,,,,,,,,4,1,0.766404261606,,,,,,PLC_L_D1S1,P1,60.0161177108,01,B,2014_Nov_28_1503,Y,
stim/posf.jpg,stim/negf.jpg,stim/2.jpg,stim/1.jpg,stim/latef.jpg,CD,2,4,,,,,,,,,0,2,2,30,,,,,,,,,,4,1,0.716508851404,,,,,,PLC_L_D1S1,P1,60.0161177108,01,B,2014_Nov_28_1503,Y,
stim/posf.jpg,stim/negf.jpg,stim/3.jpg,stim/6.jpg,stim/latef.jpg,EF,1,2,,,,,,,,,0,3,3,42,,,,,,,,,,4,0,0.96634966974,,,,,,PLC_L_D1S1,P1,60.0161177108,01,B,2014_Nov_28_1503,Y,
stim/posf.jpg,stim/negf.jpg,stim/2.jpg,stim/1.jpg,stim/latef.jpg,CD,2,4,,,,,,,,,0,4,4,34,,,,,,,,,,4,1,0.816429156062,,,,,,PLC_L_D1S1,P1,60.0161177108,01,B,2014_Nov_28_1503,Y,
stim/posf.jpg,stim/negf.jpg,stim/2.jpg,stim/1.jpg,stim/latef.jpg,CD,2,4,,,,,,,,,0,5,5,36,,,,,,,,,,4,1,0.849720275335,,,,,,PLC_L_D1S1,P1,60.0161177108,01,B,2014_Nov_28_1503,Y,
stim/negf.jpg,stim/posf.jpg,stim/5.jpg,stim/4.jpg,stim/latef.jpg,AB,1,2,,,,,,,,,0,6,6,8,,,,,,,,,,2,1,0.949687349391,,,,,,PLC_L_D1S1,P1,60.0161177108,01,B,2014_Nov_28_1503,Y,
stim/posf.jpg,stim/negf.jpg,stim/2.jpg,stim/1.jpg,stim/latef.jpg,CD,2,4,,,,,,,,,0,7,7,31,,,,,,,,,,4,1,0.766426577144,,,,,,PLC_L_D1S1,P1,60.0161177108,01,B,2014_Nov_28_1503,Y,
stim/posf.jpg,stim/negf.jpg,stim/6.jpg,stim/3.jpg,stim/latef.jpg,EF,2,4,,,,,,,,,0,8,8,51,,,,,,,,,,2,0,1.14961846896,,,,,,PLC_L_D1S1,P1,60.0161177108,01,B,2014_Nov_28_1503,Y,
stim/posf.jpg,stim/negf.jpg,stim/1.jpg,stim/2.jpg,stim/latef.jpg,CD,1,2,,,,,,,,,0,9,9,25,,,,,,,,,,2,1,0.783042395763,,,,,,PLC_L_D1S1,P1,60.0161177108,01,B,2014_Nov_28_1503,Y,
stim/posf.jpg,stim/negf.jpg,stim/1.jpg,stim/2.jpg,stim/latef.jpg,CD,1,2,,,,,,,,,0,10,10,26,,,,,,,,,,2,1,0.883034783818,,,,,,PLC_L_D1S1,P1,60.0161177108,01,B,2014_Nov_28_1503,Y,
stim/posf.jpg,stim/negf.jpg,stim/5.jpg,stim/4.jpg,stim/latef.jpg,AB,1,2,,,,,,,,,0,11,11,3,,,,,,,,,,4,0,1.16629635305,,,,,,PLC_L_D1S1,P1,60.0161177108,01,B,2014_Nov_28_1503,Y,
stim/negf.jpg,stim/posf.jpg,stim/6.jpg,stim/3.jpg,stim/latef.jpg,EF,2,4,,,,,,,,,0,12,12,56,,,,,,,,,,4,1,1.06623503945,,,,,,PLC_L_D1S1,P1,60.0161177108,01,B,2014_Nov_28_1503,Y,
stim/posf.jpg,stim/negf.jpg,stim/4.jpg,stim/5.jpg,stim/latef.jpg,AB,2,4,,,,,,,,,0,13,13,10,,,,,,,,,,4,1,0.932949011853,,,,,,PLC_L_D1S1,P1,60.0161177108,01,B,2014_Nov_28_1503,Y,
stim/negf.jpg,stim/posf.jpg,stim/3.jpg,stim/6.jpg,stim/latef.jpg,EF,1,2,,,,,,,,,0,14,14,49,,,,,,,,,,2,1,1.04963658004,,,,,,PLC_L_D1S1,P1,60.0161177108,01,B,2014_Nov_28_1503,Y,
stim/posf.jpg,stim/negf.jpg,stim/4.jpg,stim/5.jpg,stim/latef.jpg,AB,2,4,,,,,,,,,0,15,15,12,,,,,,,,,,4,1,0.816369983797,,,,,,PLC_L_D1S1,P1,60.0161177108,01,B,2014_Nov_28_1503,Y,
stim/posf.jpg,stim/negf.jpg,stim/4.jpg,stim/5.jpg,stim/latef.jpg,AB,2,4,,,,,,,,,0,16,16,14,,,,,,,,,,4,1,0.866377025823,,,,,,PLC_L_D1S1,P1,60.0161177108,01,B,2014_Nov_28_1503,Y,
stim/posf.jpg,stim/negf.jpg,stim/2.jpg,stim/1.jpg,stim/latef.jpg,CD,2,4,,,,,,,,,0,17,17,32,,,,,,,,,,4,1,0.683097712432,,,,,,PLC_L_D1S1,P1,60.0161177108,01,B,2014_Nov_28_1503,Y,
stim/posf.jpg,stim/negf.jpg,stim/5.jpg,stim/4.jpg,stim/latef.jpg,AB,1,2,,,,,,,,,0,18,18,0,,,,,,,,,,2,1,0.899722652752,,,,,,PLC_L_D1S1,P1,60.0161177108,01,B,2014_Nov_28_1503,Y,
stim/posf.jpg,stim/negf.jpg,stim/1.jpg,stim/2.jpg,stim/latef.jpg,CD,1,2,,,,,,,,,0,19,19,23,,,,,,,,,,2,1,0.849707304053,,,,,,PLC_L_D1S1,P1,60.0161177108,01,B,2014_Nov_28_1503,Y,
stim/posf.jpg,stim/negf.jpg,stim/4.jpg,stim/5.jpg,stim/latef.jpg,AB,2,4,,,,,,,,,0,20,20,15,,,,,,,,,,4,1,0.832985697154,,,,,,PLC_L_D1S1,P1,60.0161177108,01,B,2014_Nov_28_1503,Y,
stim/negf.jpg,stim/posf.jpg,stim/3.jpg,stim/6.jpg,stim/latef.jpg,EF,1,2,,,,,,,,,0,21,21,47,,,,,,,,,,4,0,1.14955272234,,,,,,PLC_L_D1S1,P1,60.0161177108,01,B,2014_Nov_28_1503,Y,
stim/posf.jpg,stim/negf.jpg,stim/5.jpg,stim/4.jpg,stim/latef.jpg,AB,1,2,,,,,,,,,0,22,22,1,,,,,,,,,,2,1,1.1995761311,,,,,,PLC_L_D1S1,P1,60.0161177108,01,B,2014_Nov_28_1503,Y,
stim/posf.jpg,stim/negf.jpg,stim/1.jpg,stim/2.jpg,stim/latef.jpg,CD,1,2,,,,,,,,,0,23,23,20,,,,,,,,,,2,1,0.883022245614,,,,,,PLC_L_D1S1,P1,60.0161177108,01,B,2014_Nov_28_1503,Y,
stim/posf.jpg,stim/negf.jpg,stim/5.jpg,stim/4.jpg,stim/latef.jpg,AB,1,2,,,,,,,,,0,24,24,2,,,,,,,,,,2,1,1.01632954816,,,,,,PLC_L_D1S1,P1,60.0161177108,01,B,2014_Nov_28_1503,Y,
stim/negf.jpg,stim/posf.jpg,stim/4.jpg,stim/5.jpg,stim/latef.jpg,AB,2,4,,,,,,,,,0,25,25,19,,,,,,,,,,4,1,0.849709601771,,,,,,PLC_L_D1S1,P1,60.0161177108,01,B,2014_Nov_28_1503,Y,
stim/posf.jpg,stim/negf.jpg,stim/3.jpg,stim/6.jpg,stim/latef.jpg,EF,1,2,,,,,,,,,0,26,26,43,,,,,,,,,,4,0,1.14960839088,,,,,,PLC_L_D1S1,P1,60.0161177108,01,B,2014_Nov_28_1503,Y,
stim/posf.jpg,stim/negf.jpg,stim/5.jpg,stim/4.jpg,stim/latef.jpg,AB,1,2,,,,,,,,,0,27,27,5,,,,,,,,,,2,1,0.833048613737,,,,,,PLC_L_D1S1,P1,60.0161177108,01,B,2014_Nov_28_1503,Y,
stim/posf.jpg,stim/negf.jpg,stim/3.jpg,stim/6.jpg,stim/latef.jpg,EF,1,2,,,,,,,,,0,28,28,41,,,,,,,,,,2,1,0.633124582806,,,,,,PLC_L_D1S1,P1,60.0161177108,01,B,2014_Nov_28_1503,Y,
stim/posf.jpg,stim/negf.jpg,stim/5.jpg,stim/4.jpg,stim/latef.jpg,AB,1,2,,,,,,,,,0,29,29,6,,,,,,,,,,2,1,1.09962423281,,,,,,PLC_L_D1S1,P1,60.0161177108,01,B,2014_Nov_28_1503,Y,
stim/negf.jpg,stim/posf.jpg,stim/4.jpg,stim/5.jpg,stim/latef.jpg,AB,2,4,,,,,,,,,0,30,30,18,,,,,,,,,,4,1,0.883042013812,,,,,,PLC_L_D1S1,P1,60.0161177108,01,B,2014_Nov_28_1503,Y,
stim/posf.jpg,stim/negf.jpg,stim/6.jpg,stim/3.jpg,stim/latef.jpg,EF,2,4,,,,,,,,,0,31,31,50,,,,,,,,,,4,1,1.16627311421,,,,,,PLC_L_D1S1,P1,60.0161177108,01,B,2014_Nov_28_1503,Y,
stim/posf.jpg,stim/negf.jpg,stim/3.jpg,stim/6.jpg,stim/latef.jpg,EF,1,2,,,,,,,,,0,32,32,40,,,,,,,,,,2,1,0.966346421656,,,,,,PLC_L_D1S1,P1,60.0161177108,01,B,2014_Nov_28_1503,Y,
stim/posf.jpg,stim/negf.jpg,stim/6.jpg,stim/3.jpg,stim/latef.jpg,EF,2,4,,,,,,,,,0,33,33,53,,,,,,,,,,4,1,0.882986543761,,,,,,PLC_L_D1S1,P1,60.0161177108,01,B,2014_Nov_28_1503,Y,
stim/negf.jpg,stim/posf.jpg,stim/1.jpg,stim/2.jpg,stim/latef.jpg,CD,1,2,,,,,,,,,0,34,34,28,,,,,,,,,,2,1,1.19960367364,,,,,,PLC_L_D1S1,P1,60.0161177108,01,B,2014_Nov_28_1503,Y,
stim/posf.jpg,stim/negf.jpg,stim/1.jpg,stim/2.jpg,stim/latef.jpg,CD,1,2,,,,,,,,,0,35,35,22,,,,,,,,,,4,0,1.18291206039,,,,,,PLC_L_D1S1,P1,60.0161177108,01,B,2014_Nov_28_1503,Y,
stim/negf.jpg,stim/posf.jpg,stim/2.jpg,stim/1.jpg,stim/latef.jpg,CD,2,4,,,,,,,,,0,36,36,37,,,,,,,,,,4,1,1.04968310583,,,,,,PLC_L_D1S1,P1,60.0161177108,01,B,2014_Nov_28_1503,Y,
stim/posf.jpg,stim/negf.jpg,stim/3.jpg,stim/6.jpg,stim/latef.jpg,EF,1,2,,,,,,,,,0,37,37,45,,,,,,,,,,2,1,0.849721496374,,,,,,PLC_L_D1S1,P1,60.0161177108,01,B,2014_Nov_28_1503,Y,
stim/negf.jpg,stim/posf.jpg,stim/6.jpg,stim/3.jpg,stim/latef.jpg,EF,2,4,,,,,,,,,0,38,38,58,,,,,,,,,,4,1,1.04964773179,,,,,,PLC_L_D1S1,P1,60.0161177108,01,B,2014_Nov_28_1503,Y,
stim/negf.jpg,stim/posf.jpg,stim/3.jpg,stim/6.jpg,stim/latef.jpg,EF,1,2,,,,,,,,,0,39,39,48,,,,,,,,,,2,1,1.01632725646,,,,,,PLC_L_D1S1,P1,60.0161177108,01,B,2014_Nov_28_1503,Y,
stim/posf.jpg,stim/negf.jpg,stim/2.jpg,stim/1.jpg,stim/latef.jpg,CD,2,4,,,,,,,,,0,40,40,35,,,,,,,,,,4,1,0.833058806104,,,,,,PLC_L_D1S1,P1,60.0161177108,01,B,2014_Nov_28_1503,Y,
stim/posf.jpg,stim/negf.jpg,stim/3.jpg,stim/6.jpg,stim/latef.jpg,EF,1,2,,,,,,,,,0,41,41,44,,,,,,,,,,2,1,1.29955425164,,,,,,PLC_L_D1S1,P1,60.0161177108,01,B,2014_Nov_28_1503,Y,
stim/posf.jpg,stim/negf.jpg,stim/4.jpg,stim/5.jpg,stim/latef.jpg,AB,2,4,,,,,,,,,0,42,42,17,,,,,,,,,,4,1,0.766393627139,,,,,,PLC_L_D1S1,P1,60.0161177108,01,B,2014_Nov_28_1503,Y,
stim/negf.jpg,stim/posf.jpg,stim/2.jpg,stim/1.jpg,stim/latef.jpg,CD,2,4,,,,,,,,,0,43,43,38,,,,,,,,,,4,1,0.866369116138,,,,,,PLC_L_D1S1,P1,60.0161177108,01,B,2014_Nov_28_1503,Y,
stim/negf.jpg,stim/posf.jpg,stim/5.jpg,stim/4.jpg,stim/latef.jpg,AB,1,2,,,,,,,,,0,44,44,9,,,,,,,,,,2,1,0.766417662959,,,,,,PLC_L_D1S1,P1,60.0161177108,01,B,2014_Nov_28_1503,Y,
stim/negf.jpg,stim/posf.jpg,stim/1.jpg,stim/2.jpg,stim/latef.jpg,CD,1,2,,,,,,,,,0,45,45,29,,,,,,,,,,2,1,0.816436855223,,,,,,PLC_L_D1S1,P1,60.0161177108,01,B,2014_Nov_28_1503,Y,
stim/posf.jpg,stim/negf.jpg,stim/1.jpg,stim/2.jpg,stim/latef.jpg,CD,1,2,,,,,,,,,0,46,46,24,,,,,,,,,,2,1,0.766412944215,,,,,,PLC_L_D1S1,P1,60.0161177108,01,B,2014_Nov_28_1503,Y,
stim/negf.jpg,stim/posf.jpg,stim/1.jpg,stim/2.jpg,stim/latef.jpg,CD,1,2,,,,,,,,,0,47,47,27,,,,,,,,,,2,1,0.666517971602,,,,,,PLC_L_D1S1,P1,60.0161177108,01,B,2014_Nov_28_1503,Y,
stim/posf.jpg,stim/negf.jpg,stim/2.jpg,stim/1.jpg,stim/latef.jpg,CD,2,4,,,,,,,,,0,48,48,33,,,,,,,,,,4,1,0.816392530912,,,,,,PLC_L_D1S1,P1,60.0161177108,01,B,2014_Nov_28_1503,Y,
stim/negf.jpg,stim/posf.jpg,stim/3.jpg,stim/6.jpg,stim/latef.jpg,EF,1,2,,,,,,,,,0,49,49,46,,,,,,,,,,4,0,0.816341523968,,,,,,PLC_L_D1S1,P1,60.0161177108,01,B,2014_Nov_28_1503,Y,
stim/posf.jpg,stim/negf.jpg,stim/4.jpg,stim/5.jpg,stim/latef.jpg,AB,2,4,,,,,,,,,0,50,50,11,,,,,,,,,,4,1,0.849783495675,,,,,,PLC_L_D1S1,P1,60.0161177108,01,B,2014_Nov_28_1503,Y,
stim/posf.jpg,stim/negf.jpg,stim/5.jpg,stim/4.jpg,stim/latef.jpg,AB,1,2,,,,,,,,,0,51,51,7,,,,,,,,,,2,1,0.899700325184,,,,,,PLC_L_D1S1,P1,60.0161177108,01,B,2014_Nov_28_1503,Y,
stim/negf.jpg,stim/posf.jpg,stim/6.jpg,stim/3.jpg,stim/latef.jpg,EF,2,4,,,,,,,,,0,52,52,59,,,,,,,,,,4,1,1.16627059093,,,,,,PLC_L_D1S1,P1,60.0161177108,01,B,2014_Nov_28_1503,Y,
stim/posf.jpg,stim/negf.jpg,stim/6.jpg,stim/3.jpg,stim/latef.jpg,EF,2,4,,,,,,,,,0,53,53,54,,,,,,,,,,2,0,0.733062057195,,,,,,PLC_L_D1S1,P1,60.0161177108,01,B,2014_Nov_28_1503,Y,
stim/posf.jpg,stim/negf.jpg,stim/6.jpg,stim/3.jpg,stim/latef.jpg,EF,2,4,,,,,,,,,0,54,54,52,,,,,,,,,,2,0,0.733088342612,,,,,,PLC_L_D1S1,P1,60.0161177108,01,B,2014_Nov_28_1503,Y,
stim/posf.jpg,stim/negf.jpg,stim/5.jpg,stim/4.jpg,stim/latef.jpg,AB,1,2,,,,,,,,,0,55,55,4,,,,,,,,,,2,1,0.866370698075,,,,,,PLC_L_D1S1,P1,60.0161177108,01,B,2014_Nov_28_1503,Y,
stim/posf.jpg,stim/negf.jpg,stim/1.jpg,stim/2.jpg,stim/latef.jpg,CD,1,2,,,,,,,,,0,56,56,21,,,,,,,,,,2,1,0.999588091864,,,,,,PLC_L_D1S1,P1,60.0161177108,01,B,2014_Nov_28_1503,Y,
stim/posf.jpg,stim/negf.jpg,stim/4.jpg,stim/5.jpg,stim/latef.jpg,AB,2,4,,,,,,,,,0,57,57,13,,,,,,,,,,4,1,0.73305507983,,,,,,PLC_L_D1S1,P1,60.0161177108,01,B,2014_Nov_28_1503,Y,
stim/posf.jpg,stim/negf.jpg,stim/6.jpg,stim/3.jpg,stim/latef.jpg,EF,2,4,,,,,,,,,0,58,58,55,,,,,,,,,,4,1,0.865368342463,,,,,,PLC_L_D1S1,P1,60.0161177108,01,B,2014_Nov_28_1503,Y,
stim/negf.jpg,stim/posf.jpg,stim/6.jpg,stim/3.jpg,stim/latef.jpg,EF,2,4,,,,,,,,,0,59,59,57,,,,,,,,,,4,1,0.766414261493,,,,,,PLC_L_D1S1,P1,60.0161177108,01,B,2014_Nov_28_1503,Y,
,,,,,,,,,,,,,,,,,,,,,,,,,,,,,,,,0.9984375,0.8984375,1,0,0,PLC_L_D1S1,P1,60.0161177108,01,B,2014_Nov_28_1503,Y,
stim/posf.jpg,stim/negf.jpg,stim/2.jpg,stim/1.jpg,stim/latef.jpg,CD,2,4,,,,,,,,,,,,,0,0,0,35,,,,,,4,1,0.799733951873,,,,,,PLC_L_D1S1,P1,60.0161177108,01,B,2014_Nov_28_1503,Y,
stim/posf.jpg,stim/negf.jpg,stim/1.jpg,stim/2.jpg,stim/latef.jpg,CD,1,2,,,,,,,,,,,,,0,1,1,20,,,,,,2,1,0.783099766544,,,,,,PLC_L_D1S1,P1,60.0161177108,01,B,2014_Nov_28_1503,Y,
stim/negf.jpg,stim/posf.jpg,stim/1.jpg,stim/2.jpg,stim/latef.jpg,CD,1,2,,,,,,,,,,,,,0,2,2,27,,,,,,2,1,0.766418315583,,,,,,PLC_L_D1S1,P1,60.0161177108,01,B,2014_Nov_28_1503,Y,
stim/posf.jpg,stim/negf.jpg,stim/1.jpg,stim/2.jpg,stim/latef.jpg,CD,1,2,,,,,,,,,,,,,0,3,3,26,,,,,,2,1,0.833064171456,,,,,,PLC_L_D1S1,P1,60.0161177108,01,B,2014_Nov_28_1503,Y,
stim/negf.jpg,stim/posf.jpg,stim/6.jpg,stim/3.jpg,stim/latef.jpg,EF,2,4,,,,,,,,,,,,,0,4,4,57,,,,,,4,1,1.06631989865,,,,,,PLC_L_D1S1,P1,60.0161177108,01,B,2014_Nov_28_1503,Y,
stim/posf.jpg,stim/negf.jpg,stim/6.jpg,stim/3.jpg,stim/latef.jpg,EF,2,4,,,,,,,,,,,,,0,5,5,50,,,,,,4,1,0.549804644308,,,,,,PLC_L_D1S1,P1,60.0161177108,01,B,2014_Nov_28_1503,Y,
stim/posf.jpg,stim/negf.jpg,stim/3.jpg,stim/6.jpg,stim/latef.jpg,EF,1,2,,,,,,,,,,,,,0,6,6,40,,,,,,2,1,0.816393968489,,,,,,PLC_L_D1S1,P1,60.0161177108,01,B,2014_Nov_28_1503,Y,
stim/posf.jpg,stim/negf.jpg,stim/6.jpg,stim/3.jpg,stim/latef.jpg,EF,2,4,,,,,,,,,,,,,0,7,7,55,,,,,,4,1,1.31623601839,,,,,,PLC_L_D1S1,P1,60.0161177108,01,B,2014_Nov_28_1503,Y,
stim/posf.jpg,stim/negf.jpg,stim/5.jpg,stim/4.jpg,stim/latef.jpg,AB,1,2,,,,,,,,,,,,,0,8,8,4,,,,,,2,1,0.899745978804,,,,,,PLC_L_D1S1,P1,60.0161177108,01,B,2014_Nov_28_1503,Y,
stim/posf.jpg,stim/negf.jpg,stim/2.jpg,stim/1.jpg,stim/latef.jpg,CD,2,4,,,,,,,,,,,,,0,9,9,31,,,,,,4,1,1.11630041466,,,,,,PLC_L_D1S1,P1,60.0161177108,01,B,2014_Nov_28_1503,Y,
stim/posf.jpg,stim/negf.jpg,stim/3.jpg,stim/6.jpg,stim/latef.jpg,EF,1,2,,,,,,,,,,,,,0,10,10,45,,,,,,2,1,1.14960116991,,,,,,PLC_L_D1S1,P1,60.0161177108,01,B,2014_Nov_28_1503,Y,
stim/posf.jpg,stim/negf.jpg,stim/6.jpg,stim/3.jpg,stim/latef.jpg,EF,2,4,,,,,,,,,,,,,0,11,11,51,,,,,,4,1,0.816387619689,,,,,,PLC_L_D1S1,P1,60.0161177108,01,B,2014_Nov_28_1503,Y,
stim/negf.jpg,stim/posf.jpg,stim/2.jpg,stim/1.jpg,stim/latef.jpg,CD,2,4,,,,,,,,,,,,,0,12,12,38,,,,,,4,1,1.23352643692,,,,,,PLC_L_D1S1,P1,60.0161177108,01,B,2014_Nov_28_1503,Y,
stim/posf.jpg,stim/negf.jpg,stim/4.jpg,stim/5.jpg,stim/latef.jpg,AB,2,4,,,,,,,,,,,,,0,13,13,14,,,,,,4,1,0.883029821468,,,,,,PLC_L_D1S1,P1,60.0161177108,01,B,2014_Nov_28_1503,Y,
stim/negf.jpg,stim/posf.jpg,stim/1.jpg,stim/2.jpg,stim/latef.jpg,CD,1,2,,,,,,,,,,,,,0,14,14,28,,,,,,2,1,0.733095533509,,,,,,PLC_L_D1S1,P1,60.0161177108,01,B,2014_Nov_28_1503,Y,
stim/negf.jpg,stim/posf.jpg,stim/4.jpg,stim/5.jpg,stim/latef.jpg,AB,2,4,,,,,,,,,,,,,0,15,15,18,,,,,,4,1,0.699769737936,,,,,,PLC_L_D1S1,P1,60.0161177108,01,B,2014_Nov_28_1503,Y,
stim/negf.jpg,stim/posf.jpg,stim/2.jpg,stim/1.jpg,stim/latef.jpg,CD,2,4,,,,,,,,,,,,,0,16,16,37,,,,,,4,1,0.816394852689,,,,,,PLC_L_D1S1,P1,60.0161177108,01,B,2014_Nov_28_1503,Y,
stim/posf.jpg,stim/negf.jpg,stim/6.jpg,stim/3.jpg,stim/latef.jpg,EF,2,4,,,,,,,,,,,,,0,17,17,53,,,,,,4,1,0.949700407889,,,,,,PLC_L_D1S1,P1,60.0161177108,01,B,2014_Nov_28_1503,Y,
stim/posf.jpg,stim/negf.jpg,stim/2.jpg,stim/1.jpg,stim/latef.jpg,CD,2,4,,,,,,,,,,,,,0,18,18,30,,,,,,4,1,0.816402034563,,,,,,PLC_L_D1S1,P1,60.0161177108,01,B,2014_Nov_28_1503,Y,
stim/negf.jpg,stim/posf.jpg,stim/2.jpg,stim/1.jpg,stim/latef.jpg,CD,2,4,,,,,,,,,,,,,0,19,19,39,,,,,,4,1,0.849729060198,,,,,,PLC_L_D1S1,P1,60.0161177108,01,B,2014_Nov_28_1503,Y,
stim/posf.jpg,stim/negf.jpg,stim/4.jpg,stim/5.jpg,stim/latef.jpg,AB,2,4,,,,,,,,,,,,,0,20,20,16,,,,,,4,1,0.716456623421,,,,,,PLC_L_D1S1,P1,60.0161177108,01,B,2014_Nov_28_1503,Y,
stim/negf.jpg,stim/posf.jpg,stim/3.jpg,stim/6.jpg,stim/latef.jpg,EF,1,2,,,,,,,,,,,,,0,21,21,49,,,,,,2,1,0.999689952369,,,,,,PLC_L_D1S1,P1,60.0161177108,01,B,2014_Nov_28_1503,Y,
stim/posf.jpg,stim/negf.jpg,stim/5.jpg,stim/4.jpg,stim/latef.jpg,AB,1,2,,,,,,,,,,,,,0,22,22,2,,,,,,2,1,1.14955757642,,,,,,PLC_L_D1S1,P1,60.0161177108,01,B,2014_Nov_28_1503,Y,
stim/posf.jpg,stim/negf.jpg,stim/5.jpg,stim/4.jpg,stim/latef.jpg,AB,1,2,,,,,,,,,,,,,0,23,23,6,,,,,,2,1,1.1828932215,,,,,,PLC_L_D1S1,P1,60.0161177108,01,B,2014_Nov_28_1503,Y,
stim/posf.jpg,stim/negf.jpg,stim/4.jpg,stim/5.jpg,stim/latef.jpg,AB,2,4,,,,,,,,,,,,,0,24,24,11,,,,,,4,1,0.716379147603,,,,,,PLC_L_D1S1,P1,60.0161177108,01,B,2014_Nov_28_1503,Y,
stim/posf.jpg,stim/negf.jpg,stim/4.jpg,stim/5.jpg,stim/latef.jpg,AB,2,4,,,,,,,,,,,,,0,25,25,17,,,,,,2,0,0.816370350711,,,,,,PLC_L_D1S1,P1,60.0161177108,01,B,2014_Nov_28_1503,Y,
stim/negf.jpg,stim/posf.jpg,stim/3.jpg,stim/6.jpg,stim/latef.jpg,EF,1,2,,,,,,,,,,,,,0,26,26,47,,,,,,4,0,0.949634787577,,,,,,PLC_L_D1S1,P1,60.0161177108,01,B,2014_Nov_28_1503,Y,
stim/negf.jpg,stim/posf.jpg,stim/6.jpg,stim/3.jpg,stim/latef.jpg,EF,2,4,,,,,,,,,,,,,0,27,27,56,,,,,,2,0,0.982998519566,,,,,,PLC_L_D1S1,P1,60.0161177108,01,B,2014_Nov_28_1503,Y,
stim/posf.jpg,stim/negf.jpg,stim/5.jpg,stim/4.jpg,stim/latef.jpg,AB,1,2,,,,,,,,,,,,,0,28,28,0,,,,,,2,1,0.949691806483,,,,,,PLC_L_D1S1,P1,60.0161177108,01,B,2014_Nov_28_1503,Y,
stim/posf.jpg,stim/negf.jpg,stim/3.jpg,stim/6.jpg,stim/latef.jpg,EF,1,2,,,,,,,,,,,,,0,29,29,43,,,,,,4,0,1.18292288433,,,,,,PLC_L_D1S1,P1,60.0161177108,01,B,2014_Nov_28_1503,Y,
stim/posf.jpg,stim/negf.jpg,stim/1.jpg,stim/2.jpg,stim/latef.jpg,CD,1,2,,,,,,,,,,,,,0,30,30,23,,,,,,2,1,0.916347163002,,,,,,PLC_L_D1S1,P1,60.0161177108,01,B,2014_Nov_28_1503,Y,
stim/posf.jpg,stim/negf.jpg,stim/5.jpg,stim/4.jpg,stim/latef.jpg,AB,1,2,,,,,,,,,,,,,0,31,31,5,,,,,,2,1,0.949660324131,,,,,,PLC_L_D1S1,P1,60.0161177108,01,B,2014_Nov_28_1503,Y,
stim/posf.jpg,stim/negf.jpg,stim/4.jpg,stim/5.jpg,stim/latef.jpg,AB,2,4,,,,,,,,,,,,,0,32,32,10,,,,,,4,1,0.766407506682,,,,,,PLC_L_D1S1,P1,60.0161177108,01,B,2014_Nov_28_1503,Y,
stim/posf.jpg,stim/negf.jpg,stim/3.jpg,stim/6.jpg,stim/latef.jpg,EF,1,2,,,,,,,,,,,,,0,33,33,41,,,,,,2,1,0.883047090447,,,,,,PLC_L_D1S1,P1,60.0161177108,01,B,2014_Nov_28_1503,Y,
stim/posf.jpg,stim/negf.jpg,stim/4.jpg,stim/5.jpg,stim/latef.jpg,AB,2,4,,,,,,,,,,,,,0,34,34,12,,,,,,4,1,0.733049858835,,,,,,PLC_L_D1S1,P1,60.0161177108,01,B,2014_Nov_28_1503,Y,
stim/posf.jpg,stim/negf.jpg,stim/5.jpg,stim/4.jpg,stim/latef.jpg,AB,1,2,,,,,,,,,,,,,0,35,35,7,,,,,,2,1,0.666476904395,,,,,,PLC_L_D1S1,P1,60.0161177108,01,B,2014_Nov_28_1503,Y,
stim/posf.jpg,stim/negf.jpg,stim/1.jpg,stim/2.jpg,stim/latef.jpg,CD,1,2,,,,,,,,,,,,,0,36,36,25,,,,,,2,1,0.849703956722,,,,,,PLC_L_D1S1,P1,60.0161177108,01,B,2014_Nov_28_1503,Y,
stim/posf.jpg,stim/negf.jpg,stim/2.jpg,stim/1.jpg,stim/latef.jpg,CD,2,4,,,,,,,,,,,,,0,37,37,34,,,,,,4,1,0.799715317497,,,,,,PLC_L_D1S1,P1,60.0161177108,01,B,2014_Nov_28_1503,Y,
stim/posf.jpg,stim/negf.jpg,stim/1.jpg,stim/2.jpg,stim/latef.jpg,CD,1,2,,,,,,,,,,,,,0,38,38,24,,,,,,2,1,0.74972016105,,,,,,PLC_L_D1S1,P1,60.0161177108,01,B,2014_Nov_28_1503,Y,
stim/negf.jpg,stim/posf.jpg,stim/6.jpg,stim/3.jpg,stim/latef.jpg,EF,2,4,,,,,,,,,,,,,0,39,39,58,,,,,,4,1,0.983012320913,,,,,,PLC_L_D1S1,P1,60.0161177108,01,B,2014_Nov_28_1503,Y,
stim/posf.jpg,stim/negf.jpg,stim/1.jpg,stim/2.jpg,stim/latef.jpg,CD,1,2,,,,,,,,,,,,,0,40,40,21,,,,,,2,1,0.716459766243,,,,,,PLC_L_D1S1,P1,60.0161177108,01,B,2014_Nov_28_1503,Y,
stim/posf.jpg,stim/negf.jpg,stim/2.jpg,stim/1.jpg,stim/latef.jpg,CD,2,4,,,,,,,,,,,,,0,41,41,33,,,,,,4,1,1.13302284561,,,,,,PLC_L_D1S1,P1,60.0161177108,01,B,2014_Nov_28_1503,Y,
stim/negf.jpg,stim/posf.jpg,stim/6.jpg,stim/3.jpg,stim/latef.jpg,EF,2,4,,,,,,,,,,,,,0,42,42,59,,,,,,2,0,0.816392061743,,,,,,PLC_L_D1S1,P1,60.0161177108,01,B,2014_Nov_28_1503,Y,
stim/posf.jpg,stim/negf.jpg,stim/1.jpg,stim/2.jpg,stim/latef.jpg,CD,1,2,,,,,,,,,,,,,0,43,43,22,,,,,,2,1,0.966316455078,,,,,,PLC_L_D1S1,P1,60.0161177108,01,B,2014_Nov_28_1503,Y,
stim/posf.jpg,stim/negf.jpg,stim/5.jpg,stim/4.jpg,stim/latef.jpg,AB,1,2,,,,,,,,,,,,,0,44,44,3,,,,,,2,1,0.899695065093,,,,,,PLC_L_D1S1,P1,60.0161177108,01,B,2014_Nov_28_1503,Y,
stim/negf.jpg,stim/posf.jpg,stim/5.jpg,stim/4.jpg,stim/latef.jpg,AB,1,2,,,,,,,,,,,,,0,45,45,8,,,,,,2,1,0.93298062052,,,,,,PLC_L_D1S1,P1,60.0161177108,01,B,2014_Nov_28_1503,Y,
stim/posf.jpg,stim/negf.jpg,stim/3.jpg,stim/6.jpg,stim/latef.jpg,EF,1,2,,,,,,,,,,,,,0,46,46,42,,,,,,4,0,0.949734254125,,,,,,PLC_L_D1S1,P1,60.0161177108,01,B,2014_Nov_28_1503,Y,
stim/posf.jpg,stim/negf.jpg,stim/2.jpg,stim/1.jpg,stim/latef.jpg,CD,2,4,,,,,,,,,,,,,0,47,47,36,,,,,,4,1,0.866388069308,,,,,,PLC_L_D1S1,P1,60.0161177108,01,B,2014_Nov_28_1503,Y,
stim/posf.jpg,stim/negf.jpg,stim/4.jpg,stim/5.jpg,stim/latef.jpg,AB,2,4,,,,,,,,,,,,,0,48,48,13,,,,,,4,1,1.0496508686,,,,,,PLC_L_D1S1,P1,60.0161177108,01,B,2014_Nov_28_1503,Y,
stim/negf.jpg,stim/posf.jpg,stim/3.jpg,stim/6.jpg,stim/latef.jpg,EF,1,2,,,,,,,,,,,,,0,49,49,46,,,,,,2,1,0.766397591005,,,,,,PLC_L_D1S1,P1,60.0161177108,01,B,2014_Nov_28_1503,Y,
stim/posf.jpg,stim/negf.jpg,stim/6.jpg,stim/3.jpg,stim/latef.jpg,EF,2,4,,,,,,,,,,,,,0,50,50,54,,,,,,2,0,0.916335912001,,,,,,PLC_L_D1S1,P1,60.0161177108,01,B,2014_Nov_28_1503,Y,
stim/negf.jpg,stim/posf.jpg,stim/3.jpg,stim/6.jpg,stim/latef.jpg,EF,1,2,,,,,,,,,,,,,0,51,51,48,,,,,,4,0,1.48280308418,,,,,,PLC_L_D1S1,P1,60.0161177108,01,B,2014_Nov_28_1503,Y,
stim/negf.jpg,stim/posf.jpg,stim/5.jpg,stim/4.jpg,stim/latef.jpg,AB,1,2,,,,,,,,,,,,,0,52,52,9,,,,,,2,1,0.9830201103,,,,,,PLC_L_D1S1,P1,60.0161177108,01,B,2014_Nov_28_1503,Y,
stim/posf.jpg,stim/negf.jpg,stim/5.jpg,stim/4.jpg,stim/latef.jpg,AB,1,2,,,,,,,,,,,,,0,53,53,1,,,,,,2,1,1.10061192393,,,,,,PLC_L_D1S1,P1,60.0161177108,01,B,2014_Nov_28_1503,Y,
stim/negf.jpg,stim/posf.jpg,stim/4.jpg,stim/5.jpg,stim/latef.jpg,AB,2,4,,,,,,,,,,,,,0,54,54,19,,,,,,4,1,0.76634248486,,,,,,PLC_L_D1S1,P1,60.0161177108,01,B,2014_Nov_28_1503,Y,
stim/negf.jpg,stim/posf.jpg,stim/1.jpg,stim/2.jpg,stim/latef.jpg,CD,1,2,,,,,,,,,,,,,0,55,55,29,,,,,,2,1,0.766399335346,,,,,,PLC_L_D1S1,P1,60.0161177108,01,B,2014_Nov_28_1503,Y,
stim/posf.jpg,stim/negf.jpg,stim/3.jpg,stim/6.jpg,stim/latef.jpg,EF,1,2,,,,,,,,,,,,,0,56,56,44,,,,,,4,0,1.54947852468,,,,,,PLC_L_D1S1,P1,60.0161177108,01,B,2014_Nov_28_1503,Y,
stim/posf.jpg,stim/negf.jpg,stim/6.jpg,stim/3.jpg,stim/latef.jpg,EF,2,4,,,,,,,,,,,,,0,57,57,52,,,,,,2,0,0.999696331244,,,,,,PLC_L_D1S1,P1,60.0161177108,01,B,2014_Nov_28_1503,Y,
stim/posf.jpg,stim/negf.jpg,stim/4.jpg,stim/5.jpg,stim/latef.jpg,AB,2,4,,,,,,,,,,,,,0,58,58,15,,,,,,4,1,1.03293587215,,,,,,PLC_L_D1S1,P1,60.0161177108,01,B,2014_Nov_28_1503,Y,
stim/posf.jpg,stim/negf.jpg,stim/2.jpg,stim/1.jpg,stim/latef.jpg,CD,2,4,,,,,,,,,,,,,0,59,59,32,,,,,,4,1,0.883056341469,,,,,,PLC_L_D1S1,P1,60.0161177108,01,B,2014_Nov_28_1503,Y,
