fb_corr,fb_incorr,symbol2,symbol1,fb_late,pair,position,correct,block_01.thisRepN,block_01.thisTrialN,block_01.thisN,block_01.thisIndex,block_02.thisRepN,block_02.thisTrialN,block_02.thisN,block_02.thisIndex,block_03.thisRepN,block_03.thisTrialN,block_03.thisN,block_03.thisIndex,block_04.thisRepN,block_04.thisTrialN,block_04.thisN,block_04.thisIndex,mouse.x,mouse.y,mouse.leftButton,mouse.midButton,mouse.rightButton,buttonBox_2.keys,buttonBox_2.corr,buttonBox_2.rt,mouse_2.x,mouse_2.y,mouse_2.leftButton,mouse_2.midButton,mouse_2.rightButton,expName,Participant,frameRate,SessionNumber,Version,date,Group,
,,,,,,,,,,,,,,,,,,,,,,,,0.9984375,1.0,1,0,0,,,,,,,,,PLC_L_D1S1,P2,60.0181085455,02,C,2014_Dez_05_1519,Y,
stim/negf.jpg,stim/posf.jpg,stim/2.jpg,stim/1.jpg,stim/latef.jpg,CD,2,4,0,0,0,39,,,,,,,,,,,,,,,,,,None,0,,,,,,,PLC_L_D1S1,P2,60.0181085455,02,C,2014_Dez_05_1519,Y,
stim/negf.jpg,stim/posf.jpg,stim/1.jpg,stim/2.jpg,stim/latef.jpg,CD,1,2,0,1,1,29,,,,,,,,,,,,,,,,,,2,1,0.83305991985,,,,,,PLC_L_D1S1,P2,60.0181085455,02,C,2014_Dez_05_1519,Y,
stim/negf.jpg,stim/posf.jpg,stim/4.jpg,stim/3.jpg,stim/latef.jpg,AB,1,2,0,2,2,9,,,,,,,,,,,,,,,,,,None,0,,,,,,,PLC_L_D1S1,P2,60.0181085455,02,C,2014_Dez_05_1519,Y,
stim/posf.jpg,stim/negf.jpg,stim/5.jpg,stim/6.jpg,stim/latef.jpg,EF,2,4,0,3,3,50,,,,,,,,,,,,,,,,,,4,1,0.533106199202,,,,,,PLC_L_D1S1,P2,60.0181085455,02,C,2014_Dez_05_1519,Y,
stim/posf.jpg,stim/negf.jpg,stim/4.jpg,stim/3.jpg,stim/latef.jpg,AB,1,2,0,4,4,7,,,,,,,,,,,,,,,,,,4,0,0.783056927391,,,,,,PLC_L_D1S1,P2,60.0181085455,02,C,2014_Dez_05_1519,Y,
stim/posf.jpg,stim/negf.jpg,stim/1.jpg,stim/2.jpg,stim/latef.jpg,CD,1,2,0,5,5,24,,,,,,,,,,,,,,,,,,2,1,0.533159440907,,,,,,PLC_L_D1S1,P2,60.0181085455,02,C,2014_Dez_05_1519,Y,
stim/posf.jpg,stim/negf.jpg,stim/5.jpg,stim/6.jpg,stim/latef.jpg,EF,2,4,0,6,6,54,,,,,,,,,,,,,,,,,,2,0,0.616464727333,,,,,,PLC_L_D1S1,P2,60.0181085455,02,C,2014_Dez_05_1519,Y,
stim/posf.jpg,stim/negf.jpg,stim/4.jpg,stim/3.jpg,stim/latef.jpg,AB,1,2,0,7,7,1,,,,,,,,,,,,,,,,,,2,1,0.733039288426,,,,,,PLC_L_D1S1,P2,60.0181085455,02,C,2014_Dez_05_1519,Y,
stim/posf.jpg,stim/negf.jpg,stim/4.jpg,stim/3.jpg,stim/latef.jpg,AB,1,2,0,8,8,3,,,,,,,,,,,,,,,,,,2,1,0.633120060751,,,,,,PLC_L_D1S1,P2,60.0181085455,02,C,2014_Dez_05_1519,Y,
stim/posf.jpg,stim/negf.jpg,stim/3.jpg,stim/4.jpg,stim/latef.jpg,AB,2,4,0,9,9,17,,,,,,,,,,,,,,,,,,4,1,0.499814437485,,,,,,PLC_L_D1S1,P2,60.0181085455,02,C,2014_Dez_05_1519,Y,
stim/negf.jpg,stim/posf.jpg,stim/5.jpg,stim/6.jpg,stim/latef.jpg,EF,2,4,0,10,10,58,,,,,,,,,,,,,,,,,,2,0,0.98296350253,,,,,,PLC_L_D1S1,P2,60.0181085455,02,C,2014_Dez_05_1519,Y,
stim/posf.jpg,stim/negf.jpg,stim/3.jpg,stim/4.jpg,stim/latef.jpg,AB,2,4,0,11,11,12,,,,,,,,,,,,,,,,,,4,1,0.766418159262,,,,,,PLC_L_D1S1,P2,60.0181085455,02,C,2014_Dez_05_1519,Y,
stim/negf.jpg,stim/posf.jpg,stim/1.jpg,stim/2.jpg,stim/latef.jpg,CD,1,2,0,12,12,27,,,,,,,,,,,,,,,,,,2,1,0.883044130495,,,,,,PLC_L_D1S1,P2,60.0181085455,02,C,2014_Dez_05_1519,Y,
stim/posf.jpg,stim/negf.jpg,stim/3.jpg,stim/4.jpg,stim/latef.jpg,AB,2,4,0,13,13,14,,,,,,,,,,,,,,,,,,4,1,0.733091387283,,,,,,PLC_L_D1S1,P2,60.0181085455,02,C,2014_Dez_05_1519,Y,
stim/posf.jpg,stim/negf.jpg,stim/1.jpg,stim/2.jpg,stim/latef.jpg,CD,1,2,0,14,14,25,,,,,,,,,,,,,,,,,,4,0,0.533106653334,,,,,,PLC_L_D1S1,P2,60.0181085455,02,C,2014_Dez_05_1519,Y,
stim/negf.jpg,stim/posf.jpg,stim/4.jpg,stim/3.jpg,stim/latef.jpg,AB,1,2,0,15,15,8,,,,,,,,,,,,,,,,,,2,1,0.549846795137,,,,,,PLC_L_D1S1,P2,60.0181085455,02,C,2014_Dez_05_1519,Y,
stim/posf.jpg,stim/negf.jpg,stim/6.jpg,stim/5.jpg,stim/latef.jpg,EF,1,2,0,16,16,43,,,,,,,,,,,,,,,,,,4,0,0.499852265772,,,,,,PLC_L_D1S1,P2,60.0181085455,02,C,2014_Dez_05_1519,Y,
stim/posf.jpg,stim/negf.jpg,stim/5.jpg,stim/6.jpg,stim/latef.jpg,EF,2,4,0,17,17,51,,,,,,,,,,,,,,,,,,2,0,0.316539183916,,,,,,PLC_L_D1S1,P2,60.0181085455,02,C,2014_Dez_05_1519,Y,
stim/negf.jpg,stim/posf.jpg,stim/6.jpg,stim/5.jpg,stim/latef.jpg,EF,1,2,0,18,18,46,,,,,,,,,,,,,,,,,,4,0,0.333225407328,,,,,,PLC_L_D1S1,P2,60.0181085455,02,C,2014_Dez_05_1519,Y,
stim/posf.jpg,stim/negf.jpg,stim/1.jpg,stim/2.jpg,stim/latef.jpg,CD,1,2,0,19,19,26,,,,,,,,,,,,,,,,,,4,0,0.416521442696,,,,,,PLC_L_D1S1,P2,60.0181085455,02,C,2014_Dez_05_1519,Y,
stim/negf.jpg,stim/posf.jpg,stim/6.jpg,stim/5.jpg,stim/latef.jpg,EF,1,2,0,20,20,49,,,,,,,,,,,,,,,,,,2,1,0.583135248607,,,,,,PLC_L_D1S1,P2,60.0181085455,02,C,2014_Dez_05_1519,Y,
stim/posf.jpg,stim/negf.jpg,stim/4.jpg,stim/3.jpg,stim/latef.jpg,AB,1,2,0,21,21,5,,,,,,,,,,,,,,,,,,2,1,0.399874509214,,,,,,PLC_L_D1S1,P2,60.0181085455,02,C,2014_Dez_05_1519,Y,
stim/posf.jpg,stim/negf.jpg,stim/6.jpg,stim/5.jpg,stim/latef.jpg,EF,1,2,0,22,22,41,,,,,,,,,,,,,,,,,,2,1,0.283269873159,,,,,,PLC_L_D1S1,P2,60.0181085455,02,C,2014_Dez_05_1519,Y,
stim/posf.jpg,stim/negf.jpg,stim/2.jpg,stim/1.jpg,stim/latef.jpg,CD,2,4,0,23,23,31,,,,,,,,,,,,,,,,,,2,0,0.48317405433,,,,,,PLC_L_D1S1,P2,60.0181085455,02,C,2014_Dez_05_1519,Y,
stim/posf.jpg,stim/negf.jpg,stim/5.jpg,stim/6.jpg,stim/latef.jpg,EF,2,4,0,24,24,52,,,,,,,,,,,,,,,,,,4,1,0.283218192344,,,,,,PLC_L_D1S1,P2,60.0181085455,02,C,2014_Dez_05_1519,Y,
stim/posf.jpg,stim/negf.jpg,stim/6.jpg,stim/5.jpg,stim/latef.jpg,EF,1,2,0,25,25,45,,,,,,,,,,,,,,,,,,4,0,0.316527451673,,,,,,PLC_L_D1S1,P2,60.0181085455,02,C,2014_Dez_05_1519,Y,
stim/posf.jpg,stim/negf.jpg,stim/4.jpg,stim/3.jpg,stim/latef.jpg,AB,1,2,0,26,26,6,,,,,,,,,,,,,,,,,,2,1,0.433201109766,,,,,,PLC_L_D1S1,P2,60.0181085455,02,C,2014_Dez_05_1519,Y,
stim/posf.jpg,stim/negf.jpg,stim/2.jpg,stim/1.jpg,stim/latef.jpg,CD,2,4,0,27,27,35,,,,,,,,,,,,,,,,,,2,0,0.666441828257,,,,,,PLC_L_D1S1,P2,60.0181085455,02,C,2014_Dez_05_1519,Y,
stim/negf.jpg,stim/posf.jpg,stim/5.jpg,stim/6.jpg,stim/latef.jpg,EF,2,4,0,28,28,59,,,,,,,,,,,,,,,,,,4,1,0.549758991286,,,,,,PLC_L_D1S1,P2,60.0181085455,02,C,2014_Dez_05_1519,Y,
stim/negf.jpg,stim/posf.jpg,stim/2.jpg,stim/1.jpg,stim/latef.jpg,CD,2,4,0,29,29,37,,,,,,,,,,,,,,,,,,2,0,0.299886298599,,,,,,PLC_L_D1S1,P2,60.0181085455,02,C,2014_Dez_05_1519,Y,
stim/posf.jpg,stim/negf.jpg,stim/3.jpg,stim/4.jpg,stim/latef.jpg,AB,2,4,0,30,30,16,,,,,,,,,,,,,,,,,,2,0,0.233279539251,,,,,,PLC_L_D1S1,P2,60.0181085455,02,C,2014_Dez_05_1519,Y,
stim/posf.jpg,stim/negf.jpg,stim/3.jpg,stim/4.jpg,stim/latef.jpg,AB,2,4,0,31,31,10,,,,,,,,,,,,,,,,,,4,1,0.249878018962,,,,,,PLC_L_D1S1,P2,60.0181085455,02,C,2014_Dez_05_1519,Y,
stim/posf.jpg,stim/negf.jpg,stim/1.jpg,stim/2.jpg,stim/latef.jpg,CD,1,2,0,32,32,21,,,,,,,,,,,,,,,,,,4,0,0.39983276216,,,,,,PLC_L_D1S1,P2,60.0181085455,02,C,2014_Dez_05_1519,Y,
stim/negf.jpg,stim/posf.jpg,stim/3.jpg,stim/4.jpg,stim/latef.jpg,AB,2,4,0,33,33,18,,,,,,,,,,,,,,,,,,4,1,0.483219272036,,,,,,PLC_L_D1S1,P2,60.0181085455,02,C,2014_Dez_05_1519,Y,
stim/posf.jpg,stim/negf.jpg,stim/1.jpg,stim/2.jpg,stim/latef.jpg,CD,1,2,0,34,34,20,,,,,,,,,,,,,,,,,,2,1,0.366533674183,,,,,,PLC_L_D1S1,P2,60.0181085455,02,C,2014_Dez_05_1519,Y,
stim/posf.jpg,stim/negf.jpg,stim/2.jpg,stim/1.jpg,stim/latef.jpg,CD,2,4,0,35,35,33,,,,,,,,,,,,,,,,,,2,0,0.449908653318,,,,,,PLC_L_D1S1,P2,60.0181085455,02,C,2014_Dez_05_1519,Y,
stim/posf.jpg,stim/negf.jpg,stim/2.jpg,stim/1.jpg,stim/latef.jpg,CD,2,4,0,36,36,34,,,,,,,,,,,,,,,,,,4,1,0.483209623988,,,,,,PLC_L_D1S1,P2,60.0181085455,02,C,2014_Dez_05_1519,Y,
stim/posf.jpg,stim/negf.jpg,stim/6.jpg,stim/5.jpg,stim/latef.jpg,EF,1,2,0,37,37,40,,,,,,,,,,,,,,,,,,2,1,0.766411338261,,,,,,PLC_L_D1S1,P2,60.0181085455,02,C,2014_Dez_05_1519,Y,
stim/negf.jpg,stim/posf.jpg,stim/1.jpg,stim/2.jpg,stim/latef.jpg,CD,1,2,0,38,38,28,,,,,,,,,,,,,,,,,,2,1,0.483176815212,,,,,,PLC_L_D1S1,P2,60.0181085455,02,C,2014_Dez_05_1519,Y,
stim/negf.jpg,stim/posf.jpg,stim/6.jpg,stim/5.jpg,stim/latef.jpg,EF,1,2,0,39,39,48,,,,,,,,,,,,,,,,,,4,0,0.283231804272,,,,,,PLC_L_D1S1,P2,60.0181085455,02,C,2014_Dez_05_1519,Y,
stim/posf.jpg,stim/negf.jpg,stim/4.jpg,stim/3.jpg,stim/latef.jpg,AB,1,2,0,40,40,2,,,,,,,,,,,,,,,,,,2,1,0.249904343576,,,,,,PLC_L_D1S1,P2,60.0181085455,02,C,2014_Dez_05_1519,Y,
stim/posf.jpg,stim/negf.jpg,stim/1.jpg,stim/2.jpg,stim/latef.jpg,CD,1,2,0,41,41,23,,,,,,,,,,,,,,,,,,4,0,0.333212402914,,,,,,PLC_L_D1S1,P2,60.0181085455,02,C,2014_Dez_05_1519,Y,
stim/posf.jpg,stim/negf.jpg,stim/3.jpg,stim/4.jpg,stim/latef.jpg,AB,2,4,0,42,42,15,,,,,,,,,,,,,,,,,,2,0,0.283228613319,,,,,,PLC_L_D1S1,P2,60.0181085455,02,C,2014_Dez_05_1519,Y,
stim/posf.jpg,stim/negf.jpg,stim/4.jpg,stim/3.jpg,stim/latef.jpg,AB,1,2,0,43,43,0,,,,,,,,,,,,,,,,,,2,1,0.316629517071,,,,,,PLC_L_D1S1,P2,60.0181085455,02,C,2014_Dez_05_1519,Y,
stim/posf.jpg,stim/negf.jpg,stim/6.jpg,stim/5.jpg,stim/latef.jpg,EF,1,2,0,44,44,44,,,,,,,,,,,,,,,,,,4,0,0.633143684634,,,,,,PLC_L_D1S1,P2,60.0181085455,02,C,2014_Dez_05_1519,Y,
stim/posf.jpg,stim/negf.jpg,stim/3.jpg,stim/4.jpg,stim/latef.jpg,AB,2,4,0,45,45,13,,,,,,,,,,,,,,,,,,2,0,0.36649086849,,,,,,PLC_L_D1S1,P2,60.0181085455,02,C,2014_Dez_05_1519,Y,
stim/posf.jpg,stim/negf.jpg,stim/2.jpg,stim/1.jpg,stim/latef.jpg,CD,2,4,0,46,46,36,,,,,,,,,,,,,,,,,,4,1,0.433183311404,,,,,,PLC_L_D1S1,P2,60.0181085455,02,C,2014_Dez_05_1519,Y,
stim/posf.jpg,stim/negf.jpg,stim/2.jpg,stim/1.jpg,stim/latef.jpg,CD,2,4,0,47,47,32,,,,,,,,,,,,,,,,,,4,1,0.333278270088,,,,,,PLC_L_D1S1,P2,60.0181085455,02,C,2014_Dez_05_1519,Y,
stim/posf.jpg,stim/negf.jpg,stim/5.jpg,stim/6.jpg,stim/latef.jpg,EF,2,4,0,48,48,55,,,,,,,,,,,,,,,,,,4,1,0.333215840482,,,,,,PLC_L_D1S1,P2,60.0181085455,02,C,2014_Dez_05_1519,Y,
stim/posf.jpg,stim/negf.jpg,stim/4.jpg,stim/3.jpg,stim/latef.jpg,AB,1,2,0,49,49,4,,,,,,,,,,,,,,,,,,4,0,0.31662858174,,,,,,PLC_L_D1S1,P2,60.0181085455,02,C,2014_Dez_05_1519,Y,
stim/posf.jpg,stim/negf.jpg,stim/2.jpg,stim/1.jpg,stim/latef.jpg,CD,2,4,0,50,50,30,,,,,,,,,,,,,,,,,,2,0,0.483170231803,,,,,,PLC_L_D1S1,P2,60.0181085455,02,C,2014_Dez_05_1519,Y,
stim/posf.jpg,stim/negf.jpg,stim/1.jpg,stim/2.jpg,stim/latef.jpg,CD,1,2,0,51,51,22,,,,,,,,,,,,,,,,,,4,0,0.333227043406,,,,,,PLC_L_D1S1,P2,60.0181085455,02,C,2014_Dez_05_1519,Y,
stim/posf.jpg,stim/negf.jpg,stim/6.jpg,stim/5.jpg,stim/latef.jpg,EF,1,2,0,52,52,42,,,,,,,,,,,,,,,,,,2,1,0.449789866242,,,,,,PLC_L_D1S1,P2,60.0181085455,02,C,2014_Dez_05_1519,Y,
stim/negf.jpg,stim/posf.jpg,stim/6.jpg,stim/5.jpg,stim/latef.jpg,EF,1,2,0,53,53,47,,,,,,,,,,,,,,,,,,2,1,0.449842771107,,,,,,PLC_L_D1S1,P2,60.0181085455,02,C,2014_Dez_05_1519,Y,
stim/negf.jpg,stim/posf.jpg,stim/3.jpg,stim/4.jpg,stim/latef.jpg,AB,2,4,0,54,54,19,,,,,,,,,,,,,,,,,,2,0,0.349847312426,,,,,,PLC_L_D1S1,P2,60.0181085455,02,C,2014_Dez_05_1519,Y,
stim/negf.jpg,stim/posf.jpg,stim/5.jpg,stim/6.jpg,stim/latef.jpg,EF,2,4,0,55,55,56,,,,,,,,,,,,,,,,,,2,0,0.383229362185,,,,,,PLC_L_D1S1,P2,60.0181085455,02,C,2014_Dez_05_1519,Y,
stim/posf.jpg,stim/negf.jpg,stim/5.jpg,stim/6.jpg,stim/latef.jpg,EF,2,4,0,56,56,53,,,,,,,,,,,,,,,,,,4,1,0.799661506305,,,,,,PLC_L_D1S1,P2,60.0181085455,02,C,2014_Dez_05_1519,Y,
stim/negf.jpg,stim/posf.jpg,stim/5.jpg,stim/6.jpg,stim/latef.jpg,EF,2,4,0,57,57,57,,,,,,,,,,,,,,,,,,2,0,0.716424742671,,,,,,PLC_L_D1S1,P2,60.0181085455,02,C,2014_Dez_05_1519,Y,
stim/negf.jpg,stim/posf.jpg,stim/2.jpg,stim/1.jpg,stim/latef.jpg,CD,2,4,0,58,58,38,,,,,,,,,,,,,,,,,,4,1,0.333219509628,,,,,,PLC_L_D1S1,P2,60.0181085455,02,C,2014_Dez_05_1519,Y,
stim/posf.jpg,stim/negf.jpg,stim/3.jpg,stim/4.jpg,stim/latef.jpg,AB,2,4,0,59,59,11,,,,,,,,,,,,,,,,,,2,0,0.14991532996,,,,,,PLC_L_D1S1,P2,60.0181085455,02,C,2014_Dez_05_1519,Y,
,,,,,,,,,,,,,,,,,,,,,,,,,,,,,,,,0.9984375,1.0,1,0,0,PLC_L_D1S1,P2,60.0181085455,02,C,2014_Dez_05_1519,Y,
stim/posf.jpg,stim/negf.jpg,stim/4.jpg,stim/3.jpg,stim/latef.jpg,AB,1,2,,,,,0,0,0,0,,,,,,,,,,,,,,4,0,0.633133296742,,,,,,PLC_L_D1S1,P2,60.0181085455,02,C,2014_Dez_05_1519,Y,
stim/negf.jpg,stim/posf.jpg,stim/5.jpg,stim/6.jpg,stim/latef.jpg,EF,2,4,,,,,0,1,1,56,,,,,,,,,,,,,,2,0,0.333224114104,,,,,,PLC_L_D1S1,P2,60.0181085455,02,C,2014_Dez_05_1519,Y,
stim/posf.jpg,stim/negf.jpg,stim/5.jpg,stim/6.jpg,stim/latef.jpg,EF,2,4,,,,,0,2,2,52,,,,,,,,,,,,,,2,0,0.316637871896,,,,,,PLC_L_D1S1,P2,60.0181085455,02,C,2014_Dez_05_1519,Y,
stim/posf.jpg,stim/negf.jpg,stim/2.jpg,stim/1.jpg,stim/latef.jpg,CD,2,4,,,,,0,3,3,31,,,,,,,,,,,,,,4,1,0.499812443515,,,,,,PLC_L_D1S1,P2,60.0181085455,02,C,2014_Dez_05_1519,Y,
stim/posf.jpg,stim/negf.jpg,stim/3.jpg,stim/4.jpg,stim/latef.jpg,AB,2,4,,,,,0,4,4,12,,,,,,,,,,,,,,4,1,0.333220192329,,,,,,PLC_L_D1S1,P2,60.0181085455,02,C,2014_Dez_05_1519,Y,
stim/posf.jpg,stim/negf.jpg,stim/5.jpg,stim/6.jpg,stim/latef.jpg,EF,2,4,,,,,0,5,5,55,,,,,,,,,,,,,,4,1,0.399871393448,,,,,,PLC_L_D1S1,P2,60.0181085455,02,C,2014_Dez_05_1519,Y,
stim/posf.jpg,stim/negf.jpg,stim/4.jpg,stim/3.jpg,stim/latef.jpg,AB,1,2,,,,,0,6,6,3,,,,,,,,,,,,,,4,0,0.316607869114,,,,,,PLC_L_D1S1,P2,60.0181085455,02,C,2014_Dez_05_1519,Y,
stim/posf.jpg,stim/negf.jpg,stim/5.jpg,stim/6.jpg,stim/latef.jpg,EF,2,4,,,,,0,7,7,53,,,,,,,,,,,,,,2,0,0.29995440335,,,,,,PLC_L_D1S1,P2,60.0181085455,02,C,2014_Dez_05_1519,Y,
stim/posf.jpg,stim/negf.jpg,stim/6.jpg,stim/5.jpg,stim/latef.jpg,EF,1,2,,,,,0,8,8,40,,,,,,,,,,,,,,4,0,0.299859204066,,,,,,PLC_L_D1S1,P2,60.0181085455,02,C,2014_Dez_05_1519,Y,
stim/negf.jpg,stim/posf.jpg,stim/5.jpg,stim/6.jpg,stim/latef.jpg,EF,2,4,,,,,0,9,9,58,,,,,,,,,,,,,,2,0,0.299889104593,,,,,,PLC_L_D1S1,P2,60.0181085455,02,C,2014_Dez_05_1519,Y,
stim/posf.jpg,stim/negf.jpg,stim/2.jpg,stim/1.jpg,stim/latef.jpg,CD,2,4,,,,,0,10,10,32,,,,,,,,,,,,,,4,1,0.999657770994,,,,,,PLC_L_D1S1,P2,60.0181085455,02,C,2014_Dez_05_1519,Y,
stim/posf.jpg,stim/negf.jpg,stim/5.jpg,stim/6.jpg,stim/latef.jpg,EF,2,4,,,,,0,11,11,50,,,,,,,,,,,,,,2,0,0.649773899444,,,,,,PLC_L_D1S1,P2,60.0181085455,02,C,2014_Dez_05_1519,Y,
stim/posf.jpg,stim/negf.jpg,stim/4.jpg,stim/3.jpg,stim/latef.jpg,AB,1,2,,,,,0,12,12,5,,,,,,,,,,,,,,4,0,0.483168899482,,,,,,PLC_L_D1S1,P2,60.0181085455,02,C,2014_Dez_05_1519,Y,
stim/negf.jpg,stim/posf.jpg,stim/4.jpg,stim/3.jpg,stim/latef.jpg,AB,1,2,,,,,0,13,13,9,,,,,,,,,,,,,,2,1,0.349908090917,,,,,,PLC_L_D1S1,P2,60.0181085455,02,C,2014_Dez_05_1519,Y,
stim/posf.jpg,stim/negf.jpg,stim/4.jpg,stim/3.jpg,stim/latef.jpg,AB,1,2,,,,,0,14,14,7,,,,,,,,,,,,,,4,0,0.316592708326,,,,,,PLC_L_D1S1,P2,60.0181085455,02,C,2014_Dez_05_1519,Y,
stim/negf.jpg,stim/posf.jpg,stim/1.jpg,stim/2.jpg,stim/latef.jpg,CD,1,2,,,,,0,15,15,28,,,,,,,,,,,,,,2,1,0.283164691995,,,,,,PLC_L_D1S1,P2,60.0181085455,02,C,2014_Dez_05_1519,Y,
stim/posf.jpg,stim/negf.jpg,stim/1.jpg,stim/2.jpg,stim/latef.jpg,CD,1,2,,,,,0,16,16,21,,,,,,,,,,,,,,4,0,0.249890722626,,,,,,PLC_L_D1S1,P2,60.0181085455,02,C,2014_Dez_05_1519,Y,
stim/posf.jpg,stim/negf.jpg,stim/6.jpg,stim/5.jpg,stim/latef.jpg,EF,1,2,,,,,0,17,17,41,,,,,,,,,,,,,,4,0,0.316556516116,,,,,,PLC_L_D1S1,P2,60.0181085455,02,C,2014_Dez_05_1519,Y,
stim/negf.jpg,stim/posf.jpg,stim/2.jpg,stim/1.jpg,stim/latef.jpg,CD,2,4,,,,,0,18,18,37,,,,,,,,,,,,,,2,0,0.283281214427,,,,,,PLC_L_D1S1,P2,60.0181085455,02,C,2014_Dez_05_1519,Y,
stim/negf.jpg,stim/posf.jpg,stim/5.jpg,stim/6.jpg,stim/latef.jpg,EF,2,4,,,,,0,19,19,59,,,,,,,,,,,,,,2,0,0.316549800378,,,,,,PLC_L_D1S1,P2,60.0181085455,02,C,2014_Dez_05_1519,Y,
stim/posf.jpg,stim/negf.jpg,stim/3.jpg,stim/4.jpg,stim/latef.jpg,AB,2,4,,,,,0,20,20,15,,,,,,,,,,,,,,2,0,0.466519048729,,,,,,PLC_L_D1S1,P2,60.0181085455,02,C,2014_Dez_05_1519,Y,
stim/posf.jpg,stim/negf.jpg,stim/5.jpg,stim/6.jpg,stim/latef.jpg,EF,2,4,,,,,0,21,21,54,,,,,,,,,,,,,,4,1,0.266559592785,,,,,,PLC_L_D1S1,P2,60.0181085455,02,C,2014_Dez_05_1519,Y,
stim/negf.jpg,stim/posf.jpg,stim/6.jpg,stim/5.jpg,stim/latef.jpg,EF,1,2,,,,,0,22,22,46,,,,,,,,,,,,,,4,0,0.383149687596,,,,,,PLC_L_D1S1,P2,60.0181085455,02,C,2014_Dez_05_1519,Y,
stim/negf.jpg,stim/posf.jpg,stim/3.jpg,stim/4.jpg,stim/latef.jpg,AB,2,4,,,,,0,23,23,18,,,,,,,,,,,,,,2,0,0.349863625086,,,,,,PLC_L_D1S1,P2,60.0181085455,02,C,2014_Dez_05_1519,Y,
stim/posf.jpg,stim/negf.jpg,stim/2.jpg,stim/1.jpg,stim/latef.jpg,CD,2,4,,,,,0,24,24,33,,,,,,,,,,,,,,4,1,0.366561069466,,,,,,PLC_L_D1S1,P2,60.0181085455,02,C,2014_Dez_05_1519,Y,
stim/posf.jpg,stim/negf.jpg,stim/1.jpg,stim/2.jpg,stim/latef.jpg,CD,1,2,,,,,0,25,25,20,,,,,,,,,,,,,,4,0,0.466506035293,,,,,,PLC_L_D1S1,P2,60.0181085455,02,C,2014_Dez_05_1519,Y,
stim/negf.jpg,stim/posf.jpg,stim/2.jpg,stim/1.jpg,stim/latef.jpg,CD,2,4,,,,,0,26,26,38,,,,,,,,,,,,,,2,0,0.466434089969,,,,,,PLC_L_D1S1,P2,60.0181085455,02,C,2014_Dez_05_1519,Y,
stim/posf.jpg,stim/negf.jpg,stim/2.jpg,stim/1.jpg,stim/latef.jpg,CD,2,4,,,,,0,27,27,36,,,,,,,,,,,,,,4,1,0.283213184863,,,,,,PLC_L_D1S1,P2,60.0181085455,02,C,2014_Dez_05_1519,Y,
stim/posf.jpg,stim/negf.jpg,stim/3.jpg,stim/4.jpg,stim/latef.jpg,AB,2,4,,,,,0,28,28,10,,,,,,,,,,,,,,4,1,0.299906397696,,,,,,PLC_L_D1S1,P2,60.0181085455,02,C,2014_Dez_05_1519,Y,
stim/posf.jpg,stim/negf.jpg,stim/5.jpg,stim/6.jpg,stim/latef.jpg,EF,2,4,,,,,0,29,29,51,,,,,,,,,,,,,,4,1,0.333210709694,,,,,,PLC_L_D1S1,P2,60.0181085455,02,C,2014_Dez_05_1519,Y,
stim/posf.jpg,stim/negf.jpg,stim/3.jpg,stim/4.jpg,stim/latef.jpg,AB,2,4,,,,,0,30,30,13,,,,,,,,,,,,,,4,1,0.299853583056,,,,,,PLC_L_D1S1,P2,60.0181085455,02,C,2014_Dez_05_1519,Y,
stim/posf.jpg,stim/negf.jpg,stim/6.jpg,stim/5.jpg,stim/latef.jpg,EF,1,2,,,,,0,31,31,44,,,,,,,,,,,,,,4,0,0.366588675273,,,,,,PLC_L_D1S1,P2,60.0181085455,02,C,2014_Dez_05_1519,Y,
stim/posf.jpg,stim/negf.jpg,stim/6.jpg,stim/5.jpg,stim/latef.jpg,EF,1,2,,,,,0,32,32,43,,,,,,,,,,,,,,4,0,0.399878984369,,,,,,PLC_L_D1S1,P2,60.0181085455,02,C,2014_Dez_05_1519,Y,
stim/posf.jpg,stim/negf.jpg,stim/6.jpg,stim/5.jpg,stim/latef.jpg,EF,1,2,,,,,0,33,33,42,,,,,,,,,,,,,,2,1,0.383215918677,,,,,,PLC_L_D1S1,P2,60.0181085455,02,C,2014_Dez_05_1519,Y,
stim/negf.jpg,stim/posf.jpg,stim/3.jpg,stim/4.jpg,stim/latef.jpg,AB,2,4,,,,,0,34,34,19,,,,,,,,,,,,,,2,0,0.316546459049,,,,,,PLC_L_D1S1,P2,60.0181085455,02,C,2014_Dez_05_1519,Y,
stim/posf.jpg,stim/negf.jpg,stim/4.jpg,stim/3.jpg,stim/latef.jpg,AB,1,2,,,,,0,35,35,1,,,,,,,,,,,,,,2,1,0.283233629822,,,,,,PLC_L_D1S1,P2,60.0181085455,02,C,2014_Dez_05_1519,Y,
stim/negf.jpg,stim/posf.jpg,stim/6.jpg,stim/5.jpg,stim/latef.jpg,EF,1,2,,,,,0,36,36,47,,,,,,,,,,,,,,2,1,0.19988376328,,,,,,PLC_L_D1S1,P2,60.0181085455,02,C,2014_Dez_05_1519,Y,
stim/posf.jpg,stim/negf.jpg,stim/1.jpg,stim/2.jpg,stim/latef.jpg,CD,1,2,,,,,0,37,37,22,,,,,,,,,,,,,,4,0,0.349886024917,,,,,,PLC_L_D1S1,P2,60.0181085455,02,C,2014_Dez_05_1519,Y,
stim/posf.jpg,stim/negf.jpg,stim/6.jpg,stim/5.jpg,stim/latef.jpg,EF,1,2,,,,,0,38,38,45,,,,,,,,,,,,,,2,1,0.116618257005,,,,,,PLC_L_D1S1,P2,60.0181085455,02,C,2014_Dez_05_1519,Y,
stim/posf.jpg,stim/negf.jpg,stim/4.jpg,stim/3.jpg,stim/latef.jpg,AB,1,2,,,,,0,39,39,2,,,,,,,,,,,,,,2,1,0.499876945286,,,,,,PLC_L_D1S1,P2,60.0181085455,02,C,2014_Dez_05_1519,Y,
stim/posf.jpg,stim/negf.jpg,stim/2.jpg,stim/1.jpg,stim/latef.jpg,CD,2,4,,,,,0,40,40,30,,,,,,,,,,,,,,2,0,0.349838795197,,,,,,PLC_L_D1S1,P2,60.0181085455,02,C,2014_Dez_05_1519,Y,
stim/posf.jpg,stim/negf.jpg,stim/3.jpg,stim/4.jpg,stim/latef.jpg,AB,2,4,,,,,0,41,41,16,,,,,,,,,,,,,,4,1,0.399912734491,,,,,,PLC_L_D1S1,P2,60.0181085455,02,C,2014_Dez_05_1519,Y,
stim/negf.jpg,stim/posf.jpg,stim/6.jpg,stim/5.jpg,stim/latef.jpg,EF,1,2,,,,,0,42,42,48,,,,,,,,,,,,,,4,0,0.299888364749,,,,,,PLC_L_D1S1,P2,60.0181085455,02,C,2014_Dez_05_1519,Y,
stim/negf.jpg,stim/posf.jpg,stim/6.jpg,stim/5.jpg,stim/latef.jpg,EF,1,2,,,,,0,43,43,49,,,,,,,,,,,,,,4,0,0.399852620657,,,,,,PLC_L_D1S1,P2,60.0181085455,02,C,2014_Dez_05_1519,Y,
stim/negf.jpg,stim/posf.jpg,stim/5.jpg,stim/6.jpg,stim/latef.jpg,EF,2,4,,,,,0,44,44,57,,,,,,,,,,,,,,4,1,0.233255695822,,,,,,PLC_L_D1S1,P2,60.0181085455,02,C,2014_Dez_05_1519,Y,
stim/posf.jpg,stim/negf.jpg,stim/3.jpg,stim/4.jpg,stim/latef.jpg,AB,2,4,,,,,0,45,45,17,,,,,,,,,,,,,,2,0,0.233234186209,,,,,,PLC_L_D1S1,P2,60.0181085455,02,C,2014_Dez_05_1519,Y,
stim/negf.jpg,stim/posf.jpg,stim/1.jpg,stim/2.jpg,stim/latef.jpg,CD,1,2,,,,,0,46,46,27,,,,,,,,,,,,,,4,0,0.433191738408,,,,,,PLC_L_D1S1,P2,60.0181085455,02,C,2014_Dez_05_1519,Y,
stim/negf.jpg,stim/posf.jpg,stim/2.jpg,stim/1.jpg,stim/latef.jpg,CD,2,4,,,,,0,47,47,39,,,,,,,,,,,,,,4,1,0.333227118593,,,,,,PLC_L_D1S1,P2,60.0181085455,02,C,2014_Dez_05_1519,Y,
stim/posf.jpg,stim/negf.jpg,stim/1.jpg,stim/2.jpg,stim/latef.jpg,CD,1,2,,,,,0,48,48,26,,,,,,,,,,,,,,4,0,0.499838614747,,,,,,PLC_L_D1S1,P2,60.0181085455,02,C,2014_Dez_05_1519,Y,
stim/posf.jpg,stim/negf.jpg,stim/1.jpg,stim/2.jpg,stim/latef.jpg,CD,1,2,,,,,0,49,49,23,,,,,,,,,,,,,,2,1,0.483180875332,,,,,,PLC_L_D1S1,P2,60.0181085455,02,C,2014_Dez_05_1519,Y,
stim/posf.jpg,stim/negf.jpg,stim/2.jpg,stim/1.jpg,stim/latef.jpg,CD,2,4,,,,,0,50,50,35,,,,,,,,,,,,,,4,1,0.316555171766,,,,,,PLC_L_D1S1,P2,60.0181085455,02,C,2014_Dez_05_1519,Y,
stim/posf.jpg,stim/negf.jpg,stim/1.jpg,stim/2.jpg,stim/latef.jpg,CD,1,2,,,,,0,51,51,25,,,,,,,,,,,,,,4,0,0.833061447658,,,,,,PLC_L_D1S1,P2,60.0181085455,02,C,2014_Dez_05_1519,Y,
stim/posf.jpg,stim/negf.jpg,stim/3.jpg,stim/4.jpg,stim/latef.jpg,AB,2,4,,,,,0,52,52,14,,,,,,,,,,,,,,2,0,0.383209308201,,,,,,PLC_L_D1S1,P2,60.0181085455,02,C,2014_Dez_05_1519,Y,
stim/posf.jpg,stim/negf.jpg,stim/4.jpg,stim/3.jpg,stim/latef.jpg,AB,1,2,,,,,0,53,53,6,,,,,,,,,,,,,,4,0,0.216629947143,,,,,,PLC_L_D1S1,P2,60.0181085455,02,C,2014_Dez_05_1519,Y,
stim/posf.jpg,stim/negf.jpg,stim/2.jpg,stim/1.jpg,stim/latef.jpg,CD,2,4,,,,,0,54,54,34,,,,,,,,,,,,,,2,0,0.249846112435,,,,,,PLC_L_D1S1,P2,60.0181085455,02,C,2014_Dez_05_1519,Y,
stim/posf.jpg,stim/negf.jpg,stim/4.jpg,stim/3.jpg,stim/latef.jpg,AB,1,2,,,,,0,55,55,4,,,,,,,,,,,,,,2,1,0.982934474177,,,,,,PLC_L_D1S1,P2,60.0181085455,02,C,2014_Dez_05_1519,Y,
stim/negf.jpg,stim/posf.jpg,stim/4.jpg,stim/3.jpg,stim/latef.jpg,AB,1,2,,,,,0,56,56,8,,,,,,,,,,,,,,2,1,0.933006846565,,,,,,PLC_L_D1S1,P2,60.0181085455,02,C,2014_Dez_05_1519,Y,
stim/negf.jpg,stim/posf.jpg,stim/1.jpg,stim/2.jpg,stim/latef.jpg,CD,1,2,,,,,0,57,57,29,,,,,,,,,,,,,,4,0,0.56642791558,,,,,,PLC_L_D1S1,P2,60.0181085455,02,C,2014_Dez_05_1519,Y,
stim/posf.jpg,stim/negf.jpg,stim/1.jpg,stim/2.jpg,stim/latef.jpg,CD,1,2,,,,,0,58,58,24,,,,,,,,,,,,,,4,0,0.33318197006,,,,,,PLC_L_D1S1,P2,60.0181085455,02,C,2014_Dez_05_1519,Y,
stim/posf.jpg,stim/negf.jpg,stim/3.jpg,stim/4.jpg,stim/latef.jpg,AB,2,4,,,,,0,59,59,11,,,,,,,,,,,,,,2,0,0.299910364584,,,,,,PLC_L_D1S1,P2,60.0181085455,02,C,2014_Dez_05_1519,Y,
,,,,,,,,,,,,,,,,,,,,,,,,,,,,,,,,0.9984375,1.0,1,0,0,PLC_L_D1S1,P2,60.0181085455,02,C,2014_Dez_05_1519,Y,
stim/posf.jpg,stim/negf.jpg,stim/2.jpg,stim/1.jpg,stim/latef.jpg,CD,2,4,,,,,,,,,0,0,0,34,,,,,,,,,,4,1,0.383207921745,,,,,,PLC_L_D1S1,P2,60.0181085455,02,C,2014_Dez_05_1519,Y,
stim/posf.jpg,stim/negf.jpg,stim/4.jpg,stim/3.jpg,stim/latef.jpg,AB,1,2,,,,,,,,,0,1,1,6,,,,,,,,,,2,1,0.766421118638,,,,,,PLC_L_D1S1,P2,60.0181085455,02,C,2014_Dez_05_1519,Y,
stim/negf.jpg,stim/posf.jpg,stim/3.jpg,stim/4.jpg,stim/latef.jpg,AB,2,4,,,,,,,,,0,2,2,18,,,,,,,,,,4,1,0.949670300223,,,,,,PLC_L_D1S1,P2,60.0181085455,02,C,2014_Dez_05_1519,Y,
stim/negf.jpg,stim/posf.jpg,stim/2.jpg,stim/1.jpg,stim/latef.jpg,CD,2,4,,,,,,,,,0,3,3,39,,,,,,,,,,4,1,0.483125495297,,,,,,PLC_L_D1S1,P2,60.0181085455,02,C,2014_Dez_05_1519,Y,
stim/negf.jpg,stim/posf.jpg,stim/5.jpg,stim/6.jpg,stim/latef.jpg,EF,2,4,,,,,,,,,0,4,4,56,,,,,,,,,,2,0,1.39953566364,,,,,,PLC_L_D1S1,P2,60.0181085455,02,C,2014_Dez_05_1519,Y,
stim/posf.jpg,stim/negf.jpg,stim/1.jpg,stim/2.jpg,stim/latef.jpg,CD,1,2,,,,,,,,,0,5,5,23,,,,,,,,,,2,1,0.349853050729,,,,,,PLC_L_D1S1,P2,60.0181085455,02,C,2014_Dez_05_1519,Y,
stim/posf.jpg,stim/negf.jpg,stim/4.jpg,stim/3.jpg,stim/latef.jpg,AB,1,2,,,,,,,,,0,6,6,2,,,,,,,,,,4,0,0.349885799355,,,,,,PLC_L_D1S1,P2,60.0181085455,02,C,2014_Dez_05_1519,Y,
stim/negf.jpg,stim/posf.jpg,stim/2.jpg,stim/1.jpg,stim/latef.jpg,CD,2,4,,,,,,,,,0,7,7,37,,,,,,,,,,2,0,0.249881919685,,,,,,PLC_L_D1S1,P2,60.0181085455,02,C,2014_Dez_05_1519,Y,
stim/posf.jpg,stim/negf.jpg,stim/4.jpg,stim/3.jpg,stim/latef.jpg,AB,1,2,,,,,,,,,0,8,8,0,,,,,,,,,,4,0,0.283219001361,,,,,,PLC_L_D1S1,P2,60.0181085455,02,C,2014_Dez_05_1519,Y,
stim/posf.jpg,stim/negf.jpg,stim/3.jpg,stim/4.jpg,stim/latef.jpg,AB,2,4,,,,,,,,,0,9,9,16,,,,,,,,,,2,0,0.333251780062,,,,,,PLC_L_D1S1,P2,60.0181085455,02,C,2014_Dez_05_1519,Y,
stim/negf.jpg,stim/posf.jpg,stim/3.jpg,stim/4.jpg,stim/latef.jpg,AB,2,4,,,,,,,,,0,10,10,19,,,,,,,,,,4,1,0.333218682566,,,,,,PLC_L_D1S1,P2,60.0181085455,02,C,2014_Dez_05_1519,Y,
stim/posf.jpg,stim/negf.jpg,stim/5.jpg,stim/6.jpg,stim/latef.jpg,EF,2,4,,,,,,,,,0,11,11,51,,,,,,,,,,2,0,0.68310747438,,,,,,PLC_L_D1S1,P2,60.0181085455,02,C,2014_Dez_05_1519,Y,
stim/posf.jpg,stim/negf.jpg,stim/2.jpg,stim/1.jpg,stim/latef.jpg,CD,2,4,,,,,,,,,0,12,12,31,,,,,,,,,,4,1,0.599791511342,,,,,,PLC_L_D1S1,P2,60.0181085455,02,C,2014_Dez_05_1519,Y,
stim/posf.jpg,stim/negf.jpg,stim/1.jpg,stim/2.jpg,stim/latef.jpg,CD,1,2,,,,,,,,,0,13,13,22,,,,,,,,,,4,0,0.549795198532,,,,,,PLC_L_D1S1,P2,60.0181085455,02,C,2014_Dez_05_1519,Y,
stim/posf.jpg,stim/negf.jpg,stim/6.jpg,stim/5.jpg,stim/latef.jpg,EF,1,2,,,,,,,,,0,14,14,45,,,,,,,,,,2,1,0.883002975917,,,,,,PLC_L_D1S1,P2,60.0181085455,02,C,2014_Dez_05_1519,Y,
stim/posf.jpg,stim/negf.jpg,stim/6.jpg,stim/5.jpg,stim/latef.jpg,EF,1,2,,,,,,,,,0,15,15,44,,,,,,,,,,4,0,0.549837751596,,,,,,PLC_L_D1S1,P2,60.0181085455,02,C,2014_Dez_05_1519,Y,
stim/posf.jpg,stim/negf.jpg,stim/4.jpg,stim/3.jpg,stim/latef.jpg,AB,1,2,,,,,,,,,0,16,16,4,,,,,,,,,,4,0,0.549804912745,,,,,,PLC_L_D1S1,P2,60.0181085455,02,C,2014_Dez_05_1519,Y,
stim/negf.jpg,stim/posf.jpg,stim/5.jpg,stim/6.jpg,stim/latef.jpg,EF,2,4,,,,,,,,,0,17,17,57,,,,,,,,,,4,1,0.349867468666,,,,,,PLC_L_D1S1,P2,60.0181085455,02,C,2014_Dez_05_1519,Y,
stim/posf.jpg,stim/negf.jpg,stim/6.jpg,stim/5.jpg,stim/latef.jpg,EF,1,2,,,,,,,,,0,18,18,43,,,,,,,,,,4,0,0.483195753415,,,,,,PLC_L_D1S1,P2,60.0181085455,02,C,2014_Dez_05_1519,Y,
stim/posf.jpg,stim/negf.jpg,stim/3.jpg,stim/4.jpg,stim/latef.jpg,AB,2,4,,,,,,,,,0,19,19,15,,,,,,,,,,4,1,0.433189879775,,,,,,PLC_L_D1S1,P2,60.0181085455,02,C,2014_Dez_05_1519,Y,
stim/negf.jpg,stim/posf.jpg,stim/6.jpg,stim/5.jpg,stim/latef.jpg,EF,1,2,,,,,,,,,0,20,20,47,,,,,,,,,,2,1,0.616466390478,,,,,,PLC_L_D1S1,P2,60.0181085455,02,C,2014_Dez_05_1519,Y,
stim/negf.jpg,stim/posf.jpg,stim/1.jpg,stim/2.jpg,stim/latef.jpg,CD,1,2,,,,,,,,,0,21,21,27,,,,,,,,,,4,0,0.483140093684,,,,,,PLC_L_D1S1,P2,60.0181085455,02,C,2014_Dez_05_1519,Y,
stim/posf.jpg,stim/negf.jpg,stim/5.jpg,stim/6.jpg,stim/latef.jpg,EF,2,4,,,,,,,,,0,22,22,54,,,,,,,,,,2,0,0.74974600191,,,,,,PLC_L_D1S1,P2,60.0181085455,02,C,2014_Dez_05_1519,Y,
stim/posf.jpg,stim/negf.jpg,stim/2.jpg,stim/1.jpg,stim/latef.jpg,CD,2,4,,,,,,,,,0,23,23,33,,,,,,,,,,4,1,0.349895089511,,,,,,PLC_L_D1S1,P2,60.0181085455,02,C,2014_Dez_05_1519,Y,
stim/posf.jpg,stim/negf.jpg,stim/6.jpg,stim/5.jpg,stim/latef.jpg,EF,1,2,,,,,,,,,0,24,24,40,,,,,,,,,,2,1,0.46650826084,,,,,,PLC_L_D1S1,P2,60.0181085455,02,C,2014_Dez_05_1519,Y,
stim/posf.jpg,stim/negf.jpg,stim/2.jpg,stim/1.jpg,stim/latef.jpg,CD,2,4,,,,,,,,,0,25,25,36,,,,,,,,,,4,1,0.616429530605,,,,,,PLC_L_D1S1,P2,60.0181085455,02,C,2014_Dez_05_1519,Y,
stim/posf.jpg,stim/negf.jpg,stim/6.jpg,stim/5.jpg,stim/latef.jpg,EF,1,2,,,,,,,,,0,26,26,41,,,,,,,,,,None,0,,,,,,,PLC_L_D1S1,P2,60.0181085455,02,C,2014_Dez_05_1519,Y,
stim/posf.jpg,stim/negf.jpg,stim/5.jpg,stim/6.jpg,stim/latef.jpg,EF,2,4,,,,,,,,,0,27,27,52,,,,,,,,,,2,0,0.349928217081,,,,,,PLC_L_D1S1,P2,60.0181085455,02,C,2014_Dez_05_1519,Y,
stim/posf.jpg,stim/negf.jpg,stim/3.jpg,stim/4.jpg,stim/latef.jpg,AB,2,4,,,,,,,,,0,28,28,12,,,,,,,,,,4,1,0.299876037022,,,,,,PLC_L_D1S1,P2,60.0181085455,02,C,2014_Dez_05_1519,Y,
stim/negf.jpg,stim/posf.jpg,stim/1.jpg,stim/2.jpg,stim/latef.jpg,CD,1,2,,,,,,,,,0,29,29,29,,,,,,,,,,2,1,0.366530140375,,,,,,PLC_L_D1S1,P2,60.0181085455,02,C,2014_Dez_05_1519,Y,
stim/negf.jpg,stim/posf.jpg,stim/4.jpg,stim/3.jpg,stim/latef.jpg,AB,1,2,,,,,,,,,0,30,30,9,,,,,,,,,,4,0,0.499825261464,,,,,,PLC_L_D1S1,P2,60.0181085455,02,C,2014_Dez_05_1519,Y,
stim/posf.jpg,stim/negf.jpg,stim/4.jpg,stim/3.jpg,stim/latef.jpg,AB,1,2,,,,,,,,,0,31,31,5,,,,,,,,,,4,0,0.516464555906,,,,,,PLC_L_D1S1,P2,60.0181085455,02,C,2014_Dez_05_1519,Y,
stim/posf.jpg,stim/negf.jpg,stim/4.jpg,stim/3.jpg,stim/latef.jpg,AB,1,2,,,,,,,,,0,32,32,3,,,,,,,,,,2,1,0.466507382651,,,,,,PLC_L_D1S1,P2,60.0181085455,02,C,2014_Dez_05_1519,Y,
stim/negf.jpg,stim/posf.jpg,stim/5.jpg,stim/6.jpg,stim/latef.jpg,EF,2,4,,,,,,,,,0,33,33,59,,,,,,,,,,4,1,0.366531069691,,,,,,PLC_L_D1S1,P2,60.0181085455,02,C,2014_Dez_05_1519,Y,
stim/posf.jpg,stim/negf.jpg,stim/4.jpg,stim/3.jpg,stim/latef.jpg,AB,1,2,,,,,,,,,0,34,34,7,,,,,,,,,,2,1,0.316559613838,,,,,,PLC_L_D1S1,P2,60.0181085455,02,C,2014_Dez_05_1519,Y,
stim/posf.jpg,stim/negf.jpg,stim/3.jpg,stim/4.jpg,stim/latef.jpg,AB,2,4,,,,,,,,,0,35,35,11,,,,,,,,,,4,1,0.483153440952,,,,,,PLC_L_D1S1,P2,60.0181085455,02,C,2014_Dez_05_1519,Y,
stim/negf.jpg,stim/posf.jpg,stim/5.jpg,stim/6.jpg,stim/latef.jpg,EF,2,4,,,,,,,,,0,36,36,58,,,,,,,,,,2,0,0.683121098338,,,,,,PLC_L_D1S1,P2,60.0181085455,02,C,2014_Dez_05_1519,Y,
stim/posf.jpg,stim/negf.jpg,stim/3.jpg,stim/4.jpg,stim/latef.jpg,AB,2,4,,,,,,,,,0,37,37,13,,,,,,,,,,4,1,0.699748859031,,,,,,PLC_L_D1S1,P2,60.0181085455,02,C,2014_Dez_05_1519,Y,
stim/posf.jpg,stim/negf.jpg,stim/2.jpg,stim/1.jpg,stim/latef.jpg,CD,2,4,,,,,,,,,0,38,38,30,,,,,,,,,,4,1,1.08290753603,,,,,,PLC_L_D1S1,P2,60.0181085455,02,C,2014_Dez_05_1519,Y,
stim/posf.jpg,stim/negf.jpg,stim/6.jpg,stim/5.jpg,stim/latef.jpg,EF,1,2,,,,,,,,,0,39,39,42,,,,,,,,,,4,0,0.516447945504,,,,,,PLC_L_D1S1,P2,60.0181085455,02,C,2014_Dez_05_1519,Y,
stim/posf.jpg,stim/negf.jpg,stim/3.jpg,stim/4.jpg,stim/latef.jpg,AB,2,4,,,,,,,,,0,40,40,10,,,,,,,,,,2,0,0.316542648551,,,,,,PLC_L_D1S1,P2,60.0181085455,02,C,2014_Dez_05_1519,Y,
stim/negf.jpg,stim/posf.jpg,stim/6.jpg,stim/5.jpg,stim/latef.jpg,EF,1,2,,,,,,,,,0,41,41,46,,,,,,,,,,2,1,0.233282032466,,,,,,PLC_L_D1S1,P2,60.0181085455,02,C,2014_Dez_05_1519,Y,
stim/posf.jpg,stim/negf.jpg,stim/1.jpg,stim/2.jpg,stim/latef.jpg,CD,1,2,,,,,,,,,0,42,42,20,,,,,,,,,,4,0,0.283203518771,,,,,,PLC_L_D1S1,P2,60.0181085455,02,C,2014_Dez_05_1519,Y,
stim/negf.jpg,stim/posf.jpg,stim/1.jpg,stim/2.jpg,stim/latef.jpg,CD,1,2,,,,,,,,,0,43,43,28,,,,,,,,,,2,1,0.3498898294,,,,,,PLC_L_D1S1,P2,60.0181085455,02,C,2014_Dez_05_1519,Y,
stim/posf.jpg,stim/negf.jpg,stim/3.jpg,stim/4.jpg,stim/latef.jpg,AB,2,4,,,,,,,,,0,44,44,17,,,,,,,,,,4,1,0.433185843715,,,,,,PLC_L_D1S1,P2,60.0181085455,02,C,2014_Dez_05_1519,Y,
stim/posf.jpg,stim/negf.jpg,stim/4.jpg,stim/3.jpg,stim/latef.jpg,AB,1,2,,,,,,,,,0,45,45,1,,,,,,,,,,2,1,0.849672279156,,,,,,PLC_L_D1S1,P2,60.0181085455,02,C,2014_Dez_05_1519,Y,
stim/posf.jpg,stim/negf.jpg,stim/1.jpg,stim/2.jpg,stim/latef.jpg,CD,1,2,,,,,,,,,0,46,46,24,,,,,,,,,,2,1,0.966363095014,,,,,,PLC_L_D1S1,P2,60.0181085455,02,C,2014_Dez_05_1519,Y,
stim/posf.jpg,stim/negf.jpg,stim/3.jpg,stim/4.jpg,stim/latef.jpg,AB,2,4,,,,,,,,,0,47,47,14,,,,,,,,,,4,1,0.716412240509,,,,,,PLC_L_D1S1,P2,60.0181085455,02,C,2014_Dez_05_1519,Y,
stim/posf.jpg,stim/negf.jpg,stim/1.jpg,stim/2.jpg,stim/latef.jpg,CD,1,2,,,,,,,,,0,48,48,21,,,,,,,,,,4,0,0.749720766009,,,,,,PLC_L_D1S1,P2,60.0181085455,02,C,2014_Dez_05_1519,Y,
stim/posf.jpg,stim/negf.jpg,stim/1.jpg,stim/2.jpg,stim/latef.jpg,CD,1,2,,,,,,,,,0,49,49,26,,,,,,,,,,2,1,0.483179146021,,,,,,PLC_L_D1S1,P2,60.0181085455,02,C,2014_Dez_05_1519,Y,
stim/posf.jpg,stim/negf.jpg,stim/5.jpg,stim/6.jpg,stim/latef.jpg,EF,2,4,,,,,,,,,0,50,50,55,,,,,,,,,,4,1,0.716383639221,,,,,,PLC_L_D1S1,P2,60.0181085455,02,C,2014_Dez_05_1519,Y,
stim/negf.jpg,stim/posf.jpg,stim/2.jpg,stim/1.jpg,stim/latef.jpg,CD,2,4,,,,,,,,,0,51,51,38,,,,,,,,,,4,1,0.999683740724,,,,,,PLC_L_D1S1,P2,60.0181085455,02,C,2014_Dez_05_1519,Y,
stim/posf.jpg,stim/negf.jpg,stim/2.jpg,stim/1.jpg,stim/latef.jpg,CD,2,4,,,,,,,,,0,52,52,35,,,,,,,,,,4,1,1.11630324885,,,,,,PLC_L_D1S1,P2,60.0181085455,02,C,2014_Dez_05_1519,Y,
stim/negf.jpg,stim/posf.jpg,stim/6.jpg,stim/5.jpg,stim/latef.jpg,EF,1,2,,,,,,,,,0,53,53,48,,,,,,,,,,4,0,0.649806560853,,,,,,PLC_L_D1S1,P2,60.0181085455,02,C,2014_Dez_05_1519,Y,
stim/negf.jpg,stim/posf.jpg,stim/4.jpg,stim/3.jpg,stim/latef.jpg,AB,1,2,,,,,,,,,0,54,54,8,,,,,,,,,,4,0,0.366548955271,,,,,,PLC_L_D1S1,P2,60.0181085455,02,C,2014_Dez_05_1519,Y,
stim/posf.jpg,stim/negf.jpg,stim/2.jpg,stim/1.jpg,stim/latef.jpg,CD,2,4,,,,,,,,,0,55,55,32,,,,,,,,,,4,1,0.516486552733,,,,,,PLC_L_D1S1,P2,60.0181085455,02,C,2014_Dez_05_1519,Y,
stim/posf.jpg,stim/negf.jpg,stim/1.jpg,stim/2.jpg,stim/latef.jpg,CD,1,2,,,,,,,,,0,56,56,25,,,,,,,,,,2,1,0.416527087766,,,,,,PLC_L_D1S1,P2,60.0181085455,02,C,2014_Dez_05_1519,Y,
stim/posf.jpg,stim/negf.jpg,stim/5.jpg,stim/6.jpg,stim/latef.jpg,EF,2,4,,,,,,,,,0,57,57,53,,,,,,,,,,2,0,0.433099477448,,,,,,PLC_L_D1S1,P2,60.0181085455,02,C,2014_Dez_05_1519,Y,
stim/posf.jpg,stim/negf.jpg,stim/5.jpg,stim/6.jpg,stim/latef.jpg,EF,2,4,,,,,,,,,0,58,58,50,,,,,,,,,,4,1,0.383175991158,,,,,,PLC_L_D1S1,P2,60.0181085455,02,C,2014_Dez_05_1519,Y,
stim/negf.jpg,stim/posf.jpg,stim/6.jpg,stim/5.jpg,stim/latef.jpg,EF,1,2,,,,,,,,,0,59,59,49,,,,,,,,,,4,0,0.533222995316,,,,,,PLC_L_D1S1,P2,60.0181085455,02,C,2014_Dez_05_1519,Y,
,,,,,,,,,,,,,,,,,,,,,,,,,,,,,,,,0.9984375,0.267578125,1,0,0,PLC_L_D1S1,P2,60.0181085455,02,C,2014_Dez_05_1519,Y,
stim/posf.jpg,stim/negf.jpg,stim/6.jpg,stim/5.jpg,stim/latef.jpg,EF,1,2,,,,,,,,,,,,,0,0,0,42,,,,,,4,0,0.48317249344,,,,,,PLC_L_D1S1,P2,60.0181085455,02,C,2014_Dez_05_1519,Y,
stim/posf.jpg,stim/negf.jpg,stim/4.jpg,stim/3.jpg,stim/latef.jpg,AB,1,2,,,,,,,,,,,,,0,1,1,7,,,,,,2,1,0.349878316704,,,,,,PLC_L_D1S1,P2,60.0181085455,02,C,2014_Dez_05_1519,Y,
stim/negf.jpg,stim/posf.jpg,stim/1.jpg,stim/2.jpg,stim/latef.jpg,CD,1,2,,,,,,,,,,,,,0,2,2,29,,,,,,2,1,0.383194962444,,,,,,PLC_L_D1S1,P2,60.0181085455,02,C,2014_Dez_05_1519,Y,
stim/negf.jpg,stim/posf.jpg,stim/2.jpg,stim/1.jpg,stim/latef.jpg,CD,2,4,,,,,,,,,,,,,0,3,3,39,,,,,,4,1,0.733091297058,,,,,,PLC_L_D1S1,P2,60.0181085455,02,C,2014_Dez_05_1519,Y,
stim/posf.jpg,stim/negf.jpg,stim/5.jpg,stim/6.jpg,stim/latef.jpg,EF,2,4,,,,,,,,,,,,,0,4,4,50,,,,,,2,0,0.299887248968,,,,,,PLC_L_D1S1,P2,60.0181085455,02,C,2014_Dez_05_1519,Y,
stim/posf.jpg,stim/negf.jpg,stim/5.jpg,stim/6.jpg,stim/latef.jpg,EF,2,4,,,,,,,,,,,,,0,5,5,52,,,,,,4,1,0.483147037992,,,,,,PLC_L_D1S1,P2,60.0181085455,02,C,2014_Dez_05_1519,Y,
stim/posf.jpg,stim/negf.jpg,stim/1.jpg,stim/2.jpg,stim/latef.jpg,CD,1,2,,,,,,,,,,,,,0,6,6,26,,,,,,2,1,0.716418432944,,,,,,PLC_L_D1S1,P2,60.0181085455,02,C,2014_Dez_05_1519,Y,
stim/posf.jpg,stim/negf.jpg,stim/5.jpg,stim/6.jpg,stim/latef.jpg,EF,2,4,,,,,,,,,,,,,0,7,7,51,,,,,,4,1,0.733081438485,,,,,,PLC_L_D1S1,P2,60.0181085455,02,C,2014_Dez_05_1519,Y,
stim/posf.jpg,stim/negf.jpg,stim/6.jpg,stim/5.jpg,stim/latef.jpg,EF,1,2,,,,,,,,,,,,,0,8,8,40,,,,,,4,0,0.49987380546,,,,,,PLC_L_D1S1,P2,60.0181085455,02,C,2014_Dez_05_1519,Y,
stim/negf.jpg,stim/posf.jpg,stim/2.jpg,stim/1.jpg,stim/latef.jpg,CD,2,4,,,,,,,,,,,,,0,9,9,37,,,,,,2,0,0.833056575515,,,,,,PLC_L_D1S1,P2,60.0181085455,02,C,2014_Dez_05_1519,Y,
stim/negf.jpg,stim/posf.jpg,stim/5.jpg,stim/6.jpg,stim/latef.jpg,EF,2,4,,,,,,,,,,,,,0,10,10,56,,,,,,4,1,0.666548717679,,,,,,PLC_L_D1S1,P2,60.0181085455,02,C,2014_Dez_05_1519,Y,
stim/posf.jpg,stim/negf.jpg,stim/2.jpg,stim/1.jpg,stim/latef.jpg,CD,2,4,,,,,,,,,,,,,0,11,11,33,,,,,,2,0,0.399809685641,,,,,,PLC_L_D1S1,P2,60.0181085455,02,C,2014_Dez_05_1519,Y,
stim/posf.jpg,stim/negf.jpg,stim/6.jpg,stim/5.jpg,stim/latef.jpg,EF,1,2,,,,,,,,,,,,,0,12,12,45,,,,,,4,0,0.516451070293,,,,,,PLC_L_D1S1,P2,60.0181085455,02,C,2014_Dez_05_1519,Y,
stim/posf.jpg,stim/negf.jpg,stim/6.jpg,stim/5.jpg,stim/latef.jpg,EF,1,2,,,,,,,,,,,,,0,13,13,41,,,,,,2,1,0.749760597289,,,,,,PLC_L_D1S1,P2,60.0181085455,02,C,2014_Dez_05_1519,Y,
stim/negf.jpg,stim/posf.jpg,stim/5.jpg,stim/6.jpg,stim/latef.jpg,EF,2,4,,,,,,,,,,,,,0,14,14,58,,,,,,2,0,0.683116572056,,,,,,PLC_L_D1S1,P2,60.0181085455,02,C,2014_Dez_05_1519,Y,
stim/posf.jpg,stim/negf.jpg,stim/4.jpg,stim/3.jpg,stim/latef.jpg,AB,1,2,,,,,,,,,,,,,0,15,15,1,,,,,,2,1,0.583110166089,,,,,,PLC_L_D1S1,P2,60.0181085455,02,C,2014_Dez_05_1519,Y,
stim/posf.jpg,stim/negf.jpg,stim/2.jpg,stim/1.jpg,stim/latef.jpg,CD,2,4,,,,,,,,,,,,,0,16,16,32,,,,,,2,0,0.566473214487,,,,,,PLC_L_D1S1,P2,60.0181085455,02,C,2014_Dez_05_1519,Y,
stim/negf.jpg,stim/posf.jpg,stim/1.jpg,stim/2.jpg,stim/latef.jpg,CD,1,2,,,,,,,,,,,,,0,17,17,27,,,,,,4,0,0.64977902121,,,,,,PLC_L_D1S1,P2,60.0181085455,02,C,2014_Dez_05_1519,Y,
stim/posf.jpg,stim/negf.jpg,stim/1.jpg,stim/2.jpg,stim/latef.jpg,CD,1,2,,,,,,,,,,,,,0,18,18,22,,,,,,2,1,0.433185624168,,,,,,PLC_L_D1S1,P2,60.0181085455,02,C,2014_Dez_05_1519,Y,
stim/posf.jpg,stim/negf.jpg,stim/1.jpg,stim/2.jpg,stim/latef.jpg,CD,1,2,,,,,,,,,,,,,0,19,19,21,,,,,,2,1,0.583136412508,,,,,,PLC_L_D1S1,P2,60.0181085455,02,C,2014_Dez_05_1519,Y,
stim/posf.jpg,stim/negf.jpg,stim/2.jpg,stim/1.jpg,stim/latef.jpg,CD,2,4,,,,,,,,,,,,,0,20,20,30,,,,,,4,1,0.566502149608,,,,,,PLC_L_D1S1,P2,60.0181085455,02,C,2014_Dez_05_1519,Y,
stim/posf.jpg,stim/negf.jpg,stim/4.jpg,stim/3.jpg,stim/latef.jpg,AB,1,2,,,,,,,,,,,,,0,21,21,5,,,,,,2,1,0.566451581567,,,,,,PLC_L_D1S1,P2,60.0181085455,02,C,2014_Dez_05_1519,Y,
stim/negf.jpg,stim/posf.jpg,stim/6.jpg,stim/5.jpg,stim/latef.jpg,EF,1,2,,,,,,,,,,,,,0,22,22,48,,,,,,4,0,0.866379570079,,,,,,PLC_L_D1S1,P2,60.0181085455,02,C,2014_Dez_05_1519,Y,
stim/negf.jpg,stim/posf.jpg,stim/6.jpg,stim/5.jpg,stim/latef.jpg,EF,1,2,,,,,,,,,,,,,0,23,23,47,,,,,,4,0,0.51651259765,,,,,,PLC_L_D1S1,P2,60.0181085455,02,C,2014_Dez_05_1519,Y,
stim/negf.jpg,stim/posf.jpg,stim/1.jpg,stim/2.jpg,stim/latef.jpg,CD,1,2,,,,,,,,,,,,,0,24,24,28,,,,,,4,0,0.583129230607,,,,,,PLC_L_D1S1,P2,60.0181085455,02,C,2014_Dez_05_1519,Y,
stim/posf.jpg,stim/negf.jpg,stim/1.jpg,stim/2.jpg,stim/latef.jpg,CD,1,2,,,,,,,,,,,,,0,25,25,23,,,,,,2,1,0.549835977173,,,,,,PLC_L_D1S1,P2,60.0181085455,02,C,2014_Dez_05_1519,Y,
stim/negf.jpg,stim/posf.jpg,stim/5.jpg,stim/6.jpg,stim/latef.jpg,EF,2,4,,,,,,,,,,,,,0,26,26,57,,,,,,4,1,0.583127672724,,,,,,PLC_L_D1S1,P2,60.0181085455,02,C,2014_Dez_05_1519,Y,
stim/negf.jpg,stim/posf.jpg,stim/6.jpg,stim/5.jpg,stim/latef.jpg,EF,1,2,,,,,,,,,,,,,0,27,27,49,,,,,,2,1,0.399872139307,,,,,,PLC_L_D1S1,P2,60.0181085455,02,C,2014_Dez_05_1519,Y,
stim/negf.jpg,stim/posf.jpg,stim/3.jpg,stim/4.jpg,stim/latef.jpg,AB,2,4,,,,,,,,,,,,,0,28,28,18,,,,,,2,0,0.383202902234,,,,,,PLC_L_D1S1,P2,60.0181085455,02,C,2014_Dez_05_1519,Y,
stim/posf.jpg,stim/negf.jpg,stim/3.jpg,stim/4.jpg,stim/latef.jpg,AB,2,4,,,,,,,,,,,,,0,29,29,12,,,,,,4,1,0.3664927181,,,,,,PLC_L_D1S1,P2,60.0181085455,02,C,2014_Dez_05_1519,Y,
stim/posf.jpg,stim/negf.jpg,stim/2.jpg,stim/1.jpg,stim/latef.jpg,CD,2,4,,,,,,,,,,,,,0,30,30,35,,,,,,2,0,0.683098078962,,,,,,PLC_L_D1S1,P2,60.0181085455,02,C,2014_Dez_05_1519,Y,
stim/posf.jpg,stim/negf.jpg,stim/4.jpg,stim/3.jpg,stim/latef.jpg,AB,1,2,,,,,,,,,,,,,0,31,31,3,,,,,,2,1,0.749744326734,,,,,,PLC_L_D1S1,P2,60.0181085455,02,C,2014_Dez_05_1519,Y,
stim/posf.jpg,stim/negf.jpg,stim/6.jpg,stim/5.jpg,stim/latef.jpg,EF,1,2,,,,,,,,,,,,,0,32,32,44,,,,,,2,1,0.583131771942,,,,,,PLC_L_D1S1,P2,60.0181085455,02,C,2014_Dez_05_1519,Y,
stim/posf.jpg,stim/negf.jpg,stim/4.jpg,stim/3.jpg,stim/latef.jpg,AB,1,2,,,,,,,,,,,,,0,33,33,0,,,,,,2,1,0.533155455974,,,,,,PLC_L_D1S1,P2,60.0181085455,02,C,2014_Dez_05_1519,Y,
stim/posf.jpg,stim/negf.jpg,stim/3.jpg,stim/4.jpg,stim/latef.jpg,AB,2,4,,,,,,,,,,,,,0,34,34,16,,,,,,2,0,0.466556404839,,,,,,PLC_L_D1S1,P2,60.0181085455,02,C,2014_Dez_05_1519,Y,
stim/negf.jpg,stim/posf.jpg,stim/4.jpg,stim/3.jpg,stim/latef.jpg,AB,1,2,,,,,,,,,,,,,0,35,35,9,,,,,,2,1,0.383193882753,,,,,,PLC_L_D1S1,P2,60.0181085455,02,C,2014_Dez_05_1519,Y,
stim/posf.jpg,stim/negf.jpg,stim/5.jpg,stim/6.jpg,stim/latef.jpg,EF,2,4,,,,,,,,,,,,,0,36,36,54,,,,,,4,1,0.499794657183,,,,,,PLC_L_D1S1,P2,60.0181085455,02,C,2014_Dez_05_1519,Y,
stim/posf.jpg,stim/negf.jpg,stim/3.jpg,stim/4.jpg,stim/latef.jpg,AB,2,4,,,,,,,,,,,,,0,37,37,10,,,,,,4,1,0.299882623439,,,,,,PLC_L_D1S1,P2,60.0181085455,02,C,2014_Dez_05_1519,Y,
stim/posf.jpg,stim/negf.jpg,stim/3.jpg,stim/4.jpg,stim/latef.jpg,AB,2,4,,,,,,,,,,,,,0,38,38,13,,,,,,4,1,0.399863047646,,,,,,PLC_L_D1S1,P2,60.0181085455,02,C,2014_Dez_05_1519,Y,
stim/negf.jpg,stim/posf.jpg,stim/6.jpg,stim/5.jpg,stim/latef.jpg,EF,1,2,,,,,,,,,,,,,0,39,39,46,,,,,,4,0,0.349789069255,,,,,,PLC_L_D1S1,P2,60.0181085455,02,C,2014_Dez_05_1519,Y,
stim/negf.jpg,stim/posf.jpg,stim/4.jpg,stim/3.jpg,stim/latef.jpg,AB,1,2,,,,,,,,,,,,,0,40,40,8,,,,,,2,1,0.383139278652,,,,,,PLC_L_D1S1,P2,60.0181085455,02,C,2014_Dez_05_1519,Y,
stim/posf.jpg,stim/negf.jpg,stim/2.jpg,stim/1.jpg,stim/latef.jpg,CD,2,4,,,,,,,,,,,,,0,41,41,36,,,,,,4,1,0.549807384907,,,,,,PLC_L_D1S1,P2,60.0181085455,02,C,2014_Dez_05_1519,Y,
stim/posf.jpg,stim/negf.jpg,stim/3.jpg,stim/4.jpg,stim/latef.jpg,AB,2,4,,,,,,,,,,,,,0,42,42,17,,,,,,4,1,0.299896800776,,,,,,PLC_L_D1S1,P2,60.0181085455,02,C,2014_Dez_05_1519,Y,
stim/posf.jpg,stim/negf.jpg,stim/3.jpg,stim/4.jpg,stim/latef.jpg,AB,2,4,,,,,,,,,,,,,0,43,43,15,,,,,,4,1,0.399848536477,,,,,,PLC_L_D1S1,P2,60.0181085455,02,C,2014_Dez_05_1519,Y,
stim/posf.jpg,stim/negf.jpg,stim/5.jpg,stim/6.jpg,stim/latef.jpg,EF,2,4,,,,,,,,,,,,,0,44,44,53,,,,,,2,0,0.666439124518,,,,,,PLC_L_D1S1,P2,60.0181085455,02,C,2014_Dez_05_1519,Y,
stim/posf.jpg,stim/negf.jpg,stim/3.jpg,stim/4.jpg,stim/latef.jpg,AB,2,4,,,,,,,,,,,,,0,45,45,14,,,,,,4,1,0.283234300494,,,,,,PLC_L_D1S1,P2,60.0181085455,02,C,2014_Dez_05_1519,Y,
stim/posf.jpg,stim/negf.jpg,stim/2.jpg,stim/1.jpg,stim/latef.jpg,CD,2,4,,,,,,,,,,,,,0,46,46,31,,,,,,4,1,0.316552961256,,,,,,PLC_L_D1S1,P2,60.0181085455,02,C,2014_Dez_05_1519,Y,
stim/negf.jpg,stim/posf.jpg,stim/5.jpg,stim/6.jpg,stim/latef.jpg,EF,2,4,,,,,,,,,,,,,0,47,47,59,,,,,,4,1,0.266573186668,,,,,,PLC_L_D1S1,P2,60.0181085455,02,C,2014_Dez_05_1519,Y,
stim/posf.jpg,stim/negf.jpg,stim/3.jpg,stim/4.jpg,stim/latef.jpg,AB,2,4,,,,,,,,,,,,,0,48,48,11,,,,,,4,1,0.266602106751,,,,,,PLC_L_D1S1,P2,60.0181085455,02,C,2014_Dez_05_1519,Y,
stim/posf.jpg,stim/negf.jpg,stim/1.jpg,stim/2.jpg,stim/latef.jpg,CD,1,2,,,,,,,,,,,,,0,49,49,25,,,,,,4,0,0.299878006932,,,,,,PLC_L_D1S1,P2,60.0181085455,02,C,2014_Dez_05_1519,Y,
stim/posf.jpg,stim/negf.jpg,stim/5.jpg,stim/6.jpg,stim/latef.jpg,EF,2,4,,,,,,,,,,,,,0,50,50,55,,,,,,2,0,0.433186339952,,,,,,PLC_L_D1S1,P2,60.0181085455,02,C,2014_Dez_05_1519,Y,
stim/posf.jpg,stim/negf.jpg,stim/4.jpg,stim/3.jpg,stim/latef.jpg,AB,1,2,,,,,,,,,,,,,0,51,51,4,,,,,,4,0,0.433182884339,,,,,,PLC_L_D1S1,P2,60.0181085455,02,C,2014_Dez_05_1519,Y,
stim/posf.jpg,stim/negf.jpg,stim/4.jpg,stim/3.jpg,stim/latef.jpg,AB,1,2,,,,,,,,,,,,,0,52,52,2,,,,,,2,1,0.316597487237,,,,,,PLC_L_D1S1,P2,60.0181085455,02,C,2014_Dez_05_1519,Y,
stim/negf.jpg,stim/posf.jpg,stim/2.jpg,stim/1.jpg,stim/latef.jpg,CD,2,4,,,,,,,,,,,,,0,53,53,38,,,,,,2,0,0.633076497169,,,,,,PLC_L_D1S1,P2,60.0181085455,02,C,2014_Dez_05_1519,Y,
stim/posf.jpg,stim/negf.jpg,stim/4.jpg,stim/3.jpg,stim/latef.jpg,AB,1,2,,,,,,,,,,,,,0,54,54,6,,,,,,2,1,0.433203840573,,,,,,PLC_L_D1S1,P2,60.0181085455,02,C,2014_Dez_05_1519,Y,
stim/posf.jpg,stim/negf.jpg,stim/6.jpg,stim/5.jpg,stim/latef.jpg,EF,1,2,,,,,,,,,,,,,0,55,55,43,,,,,,2,1,0.316529003541,,,,,,PLC_L_D1S1,P2,60.0181085455,02,C,2014_Dez_05_1519,Y,
stim/posf.jpg,stim/negf.jpg,stim/1.jpg,stim/2.jpg,stim/latef.jpg,CD,1,2,,,,,,,,,,,,,0,56,56,20,,,,,,2,1,0.299905531538,,,,,,PLC_L_D1S1,P2,60.0181085455,02,C,2014_Dez_05_1519,Y,
stim/posf.jpg,stim/negf.jpg,stim/2.jpg,stim/1.jpg,stim/latef.jpg,CD,2,4,,,,,,,,,,,,,0,57,57,34,,,,,,4,1,0.699782347501,,,,,,PLC_L_D1S1,P2,60.0181085455,02,C,2014_Dez_05_1519,Y,
stim/negf.jpg,stim/posf.jpg,stim/3.jpg,stim/4.jpg,stim/latef.jpg,AB,2,4,,,,,,,,,,,,,0,58,58,19,,,,,,4,1,0.549807393929,,,,,,PLC_L_D1S1,P2,60.0181085455,02,C,2014_Dez_05_1519,Y,
stim/posf.jpg,stim/negf.jpg,stim/1.jpg,stim/2.jpg,stim/latef.jpg,CD,1,2,,,,,,,,,,,,,0,59,59,24,,,,,,4,0,0.433192198554,,,,,,PLC_L_D1S1,P2,60.0181085455,02,C,2014_Dez_05_1519,Y,
