fb_corr,fb_incorr,symbol2,symbol1,fb_late,pair,position,correct,block_01.thisRepN,block_01.thisTrialN,block_01.thisN,block_01.thisIndex,block_02.thisRepN,block_02.thisTrialN,block_02.thisN,block_02.thisIndex,block_03.thisRepN,block_03.thisTrialN,block_03.thisN,block_03.thisIndex,block_04.thisRepN,block_04.thisTrialN,block_04.thisN,block_04.thisIndex,mouse.x,mouse.y,mouse.leftButton,mouse.midButton,mouse.rightButton,buttonBox_2.keys,buttonBox_2.corr,buttonBox_2.rt,mouse_2.x,mouse_2.y,mouse_2.leftButton,mouse_2.midButton,mouse_2.rightButton,expName,Participant,frameRate,SessionNumber,Version,date,Group,
,,,,,,,,,,,,,,,,,,,,,,,,0.903125,1.0,1,0,0,,,,,,,,,PLC_L_D1S1,P33,60.0259237831,01,A,2015_Aug_21_1706,Y,
stim/posf.jpg,stim/negf.jpg,stim/4.jpg,stim/1.jpg,stim/latef.jpg,AB,1,2,0,0,0,4,,,,,,,,,,,,,,,,,,2,1,1.24959896542,,,,,,PLC_L_D1S1,P33,60.0259237831,01,A,2015_Aug_21_1706,Y,
stim/posf.jpg,stim/negf.jpg,stim/6.jpg,stim/2.jpg,stim/latef.jpg,CD,2,4,0,1,1,32,,,,,,,,,,,,,,,,,,4,1,1.34955800633,,,,,,PLC_L_D1S1,P33,60.0259237831,01,A,2015_Aug_21_1706,Y,
stim/negf.jpg,stim/posf.jpg,stim/4.jpg,stim/1.jpg,stim/latef.jpg,AB,1,2,0,2,2,9,,,,,,,,,,,,,,,,,,2,1,1.01629505342,,,,,,PLC_L_D1S1,P33,60.0259237831,01,A,2015_Aug_21_1706,Y,
stim/negf.jpg,stim/posf.jpg,stim/3.jpg,stim/5.jpg,stim/latef.jpg,EF,1,2,0,3,3,48,,,,,,,,,,,,,,,,,,4,0,0.899735902738,,,,,,PLC_L_D1S1,P33,60.0259237831,01,A,2015_Aug_21_1706,Y,
stim/negf.jpg,stim/posf.jpg,stim/6.jpg,stim/2.jpg,stim/latef.jpg,CD,2,4,0,4,4,37,,,,,,,,,,,,,,,,,,4,1,1.33282272464,,,,,,PLC_L_D1S1,P33,60.0259237831,01,A,2015_Aug_21_1706,Y,
stim/posf.jpg,stim/negf.jpg,stim/4.jpg,stim/1.jpg,stim/latef.jpg,AB,1,2,0,5,5,0,,,,,,,,,,,,,,,,,,2,1,0.716419750227,,,,,,PLC_L_D1S1,P33,60.0259237831,01,A,2015_Aug_21_1706,Y,
stim/negf.jpg,stim/posf.jpg,stim/1.jpg,stim/4.jpg,stim/latef.jpg,AB,2,4,0,6,6,18,,,,,,,,,,,,,,,,,,4,1,1.34955834016,,,,,,PLC_L_D1S1,P33,60.0259237831,01,A,2015_Aug_21_1706,Y,
stim/posf.jpg,stim/negf.jpg,stim/1.jpg,stim/4.jpg,stim/latef.jpg,AB,2,4,0,7,7,11,,,,,,,,,,,,,,,,,,2,0,0.766407446561,,,,,,PLC_L_D1S1,P33,60.0259237831,01,A,2015_Aug_21_1706,Y,
stim/posf.jpg,stim/negf.jpg,stim/1.jpg,stim/4.jpg,stim/latef.jpg,AB,2,4,0,8,8,15,,,,,,,,,,,,,,,,,,None,0,,,,,,,PLC_L_D1S1,P33,60.0259237831,01,A,2015_Aug_21_1706,Y,
stim/negf.jpg,stim/posf.jpg,stim/5.jpg,stim/3.jpg,stim/latef.jpg,EF,2,4,0,9,9,57,,,,,,,,,,,,,,,,,,4,1,1.08296283487,,,,,,PLC_L_D1S1,P33,60.0259237831,01,A,2015_Aug_21_1706,Y,
stim/posf.jpg,stim/negf.jpg,stim/4.jpg,stim/1.jpg,stim/latef.jpg,AB,1,2,0,10,10,6,,,,,,,,,,,,,,,,,,2,1,1.26630723979,,,,,,PLC_L_D1S1,P33,60.0259237831,01,A,2015_Aug_21_1706,Y,
stim/posf.jpg,stim/negf.jpg,stim/1.jpg,stim/4.jpg,stim/latef.jpg,AB,2,4,0,11,11,12,,,,,,,,,,,,,,,,,,2,0,1.56612666371,,,,,,PLC_L_D1S1,P33,60.0259237831,01,A,2015_Aug_21_1706,Y,
stim/negf.jpg,stim/posf.jpg,stim/4.jpg,stim/1.jpg,stim/latef.jpg,AB,1,2,0,12,12,8,,,,,,,,,,,,,,,,,,4,0,1.03299769175,,,,,,PLC_L_D1S1,P33,60.0259237831,01,A,2015_Aug_21_1706,Y,
stim/negf.jpg,stim/posf.jpg,stim/3.jpg,stim/5.jpg,stim/latef.jpg,EF,1,2,0,13,13,47,,,,,,,,,,,,,,,,,,4,0,1.41616915963,,,,,,PLC_L_D1S1,P33,60.0259237831,01,A,2015_Aug_21_1706,Y,
stim/posf.jpg,stim/negf.jpg,stim/4.jpg,stim/1.jpg,stim/latef.jpg,AB,1,2,0,14,14,2,,,,,,,,,,,,,,,,,,4,0,1.19960200299,,,,,,PLC_L_D1S1,P33,60.0259237831,01,A,2015_Aug_21_1706,Y,
stim/posf.jpg,stim/negf.jpg,stim/6.jpg,stim/2.jpg,stim/latef.jpg,CD,2,4,0,15,15,34,,,,,,,,,,,,,,,,,,None,0,,,,,,,PLC_L_D1S1,P33,60.0259237831,01,A,2015_Aug_21_1706,Y,
stim/posf.jpg,stim/negf.jpg,stim/5.jpg,stim/3.jpg,stim/latef.jpg,EF,2,4,0,16,16,50,,,,,,,,,,,,,,,,,,4,1,0.799731334351,,,,,,PLC_L_D1S1,P33,60.0259237831,01,A,2015_Aug_21_1706,Y,
stim/posf.jpg,stim/negf.jpg,stim/5.jpg,stim/3.jpg,stim/latef.jpg,EF,2,4,0,17,17,51,,,,,,,,,,,,,,,,,,2,0,1.29959488726,,,,,,PLC_L_D1S1,P33,60.0259237831,01,A,2015_Aug_21_1706,Y,
stim/posf.jpg,stim/negf.jpg,stim/4.jpg,stim/1.jpg,stim/latef.jpg,AB,1,2,0,18,18,7,,,,,,,,,,,,,,,,,,2,1,1.26623880723,,,,,,PLC_L_D1S1,P33,60.0259237831,01,A,2015_Aug_21_1706,Y,
stim/posf.jpg,stim/negf.jpg,stim/3.jpg,stim/5.jpg,stim/latef.jpg,EF,1,2,0,19,19,42,,,,,,,,,,,,,,,,,,4,0,0.849720835182,,,,,,PLC_L_D1S1,P33,60.0259237831,01,A,2015_Aug_21_1706,Y,
stim/posf.jpg,stim/negf.jpg,stim/3.jpg,stim/5.jpg,stim/latef.jpg,EF,1,2,0,20,20,43,,,,,,,,,,,,,,,,,,2,1,0.833047414681,,,,,,PLC_L_D1S1,P33,60.0259237831,01,A,2015_Aug_21_1706,Y,
stim/negf.jpg,stim/posf.jpg,stim/3.jpg,stim/5.jpg,stim/latef.jpg,EF,1,2,0,21,21,46,,,,,,,,,,,,,,,,,,2,1,0.916354141698,,,,,,PLC_L_D1S1,P33,60.0259237831,01,A,2015_Aug_21_1706,Y,
stim/posf.jpg,stim/negf.jpg,stim/1.jpg,stim/4.jpg,stim/latef.jpg,AB,2,4,0,22,22,17,,,,,,,,,,,,,,,,,,4,1,0.982929006549,,,,,,PLC_L_D1S1,P33,60.0259237831,01,A,2015_Aug_21_1706,Y,
stim/negf.jpg,stim/posf.jpg,stim/5.jpg,stim/3.jpg,stim/latef.jpg,EF,2,4,0,23,23,58,,,,,,,,,,,,,,,,,,None,0,,,,,,,PLC_L_D1S1,P33,60.0259237831,01,A,2015_Aug_21_1706,Y,
stim/posf.jpg,stim/negf.jpg,stim/5.jpg,stim/3.jpg,stim/latef.jpg,EF,2,4,0,24,24,54,,,,,,,,,,,,,,,,,,2,0,0.849718347982,,,,,,PLC_L_D1S1,P33,60.0259237831,01,A,2015_Aug_21_1706,Y,
stim/posf.jpg,stim/negf.jpg,stim/4.jpg,stim/1.jpg,stim/latef.jpg,AB,1,2,0,25,25,5,,,,,,,,,,,,,,,,,,2,1,0.883073874632,,,,,,PLC_L_D1S1,P33,60.0259237831,01,A,2015_Aug_21_1706,Y,
stim/posf.jpg,stim/negf.jpg,stim/2.jpg,stim/6.jpg,stim/latef.jpg,CD,1,2,0,26,26,23,,,,,,,,,,,,,,,,,,4,0,0.949609202938,,,,,,PLC_L_D1S1,P33,60.0259237831,01,A,2015_Aug_21_1706,Y,
stim/posf.jpg,stim/negf.jpg,stim/5.jpg,stim/3.jpg,stim/latef.jpg,EF,2,4,0,27,27,55,,,,,,,,,,,,,,,,,,2,0,1.08296570702,,,,,,PLC_L_D1S1,P33,60.0259237831,01,A,2015_Aug_21_1706,Y,
stim/posf.jpg,stim/negf.jpg,stim/6.jpg,stim/2.jpg,stim/latef.jpg,CD,2,4,0,28,28,36,,,,,,,,,,,,,,,,,,None,0,,,,,,,PLC_L_D1S1,P33,60.0259237831,01,A,2015_Aug_21_1706,Y,
stim/posf.jpg,stim/negf.jpg,stim/4.jpg,stim/1.jpg,stim/latef.jpg,AB,1,2,0,29,29,3,,,,,,,,,,,,,,,,,,2,1,1.16626256645,,,,,,PLC_L_D1S1,P33,60.0259237831,01,A,2015_Aug_21_1706,Y,
stim/posf.jpg,stim/negf.jpg,stim/6.jpg,stim/2.jpg,stim/latef.jpg,CD,2,4,0,30,30,35,,,,,,,,,,,,,,,,,,2,0,1.0163112939,,,,,,PLC_L_D1S1,P33,60.0259237831,01,A,2015_Aug_21_1706,Y,
stim/negf.jpg,stim/posf.jpg,stim/5.jpg,stim/3.jpg,stim/latef.jpg,EF,2,4,0,31,31,59,,,,,,,,,,,,,,,,,,4,1,0.982993324862,,,,,,PLC_L_D1S1,P33,60.0259237831,01,A,2015_Aug_21_1706,Y,
stim/posf.jpg,stim/negf.jpg,stim/2.jpg,stim/6.jpg,stim/latef.jpg,CD,1,2,0,32,32,24,,,,,,,,,,,,,,,,,,4,0,1.44952347727,,,,,,PLC_L_D1S1,P33,60.0259237831,01,A,2015_Aug_21_1706,Y,
stim/posf.jpg,stim/negf.jpg,stim/2.jpg,stim/6.jpg,stim/latef.jpg,CD,1,2,0,33,33,22,,,,,,,,,,,,,,,,,,2,1,0.683057766483,,,,,,PLC_L_D1S1,P33,60.0259237831,01,A,2015_Aug_21_1706,Y,
stim/posf.jpg,stim/negf.jpg,stim/6.jpg,stim/2.jpg,stim/latef.jpg,CD,2,4,0,34,34,33,,,,,,,,,,,,,,,,,,2,0,1.03301091571,,,,,,PLC_L_D1S1,P33,60.0259237831,01,A,2015_Aug_21_1706,Y,
stim/negf.jpg,stim/posf.jpg,stim/2.jpg,stim/6.jpg,stim/latef.jpg,CD,1,2,0,35,35,27,,,,,,,,,,,,,,,,,,4,0,1.19959067075,,,,,,PLC_L_D1S1,P33,60.0259237831,01,A,2015_Aug_21_1706,Y,
stim/posf.jpg,stim/negf.jpg,stim/1.jpg,stim/4.jpg,stim/latef.jpg,AB,2,4,0,36,36,10,,,,,,,,,,,,,,,,,,4,1,1.06625481613,,,,,,PLC_L_D1S1,P33,60.0259237831,01,A,2015_Aug_21_1706,Y,
stim/posf.jpg,stim/negf.jpg,stim/5.jpg,stim/3.jpg,stim/latef.jpg,EF,2,4,0,37,37,53,,,,,,,,,,,,,,,,,,2,0,1.23291734949,,,,,,PLC_L_D1S1,P33,60.0259237831,01,A,2015_Aug_21_1706,Y,
stim/posf.jpg,stim/negf.jpg,stim/2.jpg,stim/6.jpg,stim/latef.jpg,CD,1,2,0,38,38,20,,,,,,,,,,,,,,,,,,2,1,1.34954995827,,,,,,PLC_L_D1S1,P33,60.0259237831,01,A,2015_Aug_21_1706,Y,
stim/negf.jpg,stim/posf.jpg,stim/6.jpg,stim/2.jpg,stim/latef.jpg,CD,2,4,0,39,39,38,,,,,,,,,,,,,,,,,,None,0,,,,,,,PLC_L_D1S1,P33,60.0259237831,01,A,2015_Aug_21_1706,Y,
stim/posf.jpg,stim/negf.jpg,stim/3.jpg,stim/5.jpg,stim/latef.jpg,EF,1,2,0,40,40,45,,,,,,,,,,,,,,,,,,2,1,1.01632036752,,,,,,PLC_L_D1S1,P33,60.0259237831,01,A,2015_Aug_21_1706,Y,
stim/posf.jpg,stim/negf.jpg,stim/5.jpg,stim/3.jpg,stim/latef.jpg,EF,2,4,0,41,41,52,,,,,,,,,,,,,,,,,,4,1,1.28287860392,,,,,,PLC_L_D1S1,P33,60.0259237831,01,A,2015_Aug_21_1706,Y,
stim/negf.jpg,stim/posf.jpg,stim/5.jpg,stim/3.jpg,stim/latef.jpg,EF,2,4,0,42,42,56,,,,,,,,,,,,,,,,,,2,0,1.21630518568,,,,,,PLC_L_D1S1,P33,60.0259237831,01,A,2015_Aug_21_1706,Y,
stim/negf.jpg,stim/posf.jpg,stim/2.jpg,stim/6.jpg,stim/latef.jpg,CD,1,2,0,43,43,28,,,,,,,,,,,,,,,,,,None,0,,,,,,,PLC_L_D1S1,P33,60.0259237831,01,A,2015_Aug_21_1706,Y,
stim/posf.jpg,stim/negf.jpg,stim/6.jpg,stim/2.jpg,stim/latef.jpg,CD,2,4,0,44,44,31,,,,,,,,,,,,,,,,,,2,0,0.899703939068,,,,,,PLC_L_D1S1,P33,60.0259237831,01,A,2015_Aug_21_1706,Y,
stim/posf.jpg,stim/negf.jpg,stim/4.jpg,stim/1.jpg,stim/latef.jpg,AB,1,2,0,45,45,1,,,,,,,,,,,,,,,,,,2,1,1.31623354411,,,,,,PLC_L_D1S1,P33,60.0259237831,01,A,2015_Aug_21_1706,Y,
stim/posf.jpg,stim/negf.jpg,stim/1.jpg,stim/4.jpg,stim/latef.jpg,AB,2,4,0,46,46,14,,,,,,,,,,,,,,,,,,4,1,1.09954497485,,,,,,PLC_L_D1S1,P33,60.0259237831,01,A,2015_Aug_21_1706,Y,
stim/posf.jpg,stim/negf.jpg,stim/1.jpg,stim/4.jpg,stim/latef.jpg,AB,2,4,0,47,47,13,,,,,,,,,,,,,,,,,,4,1,0.966297315058,,,,,,PLC_L_D1S1,P33,60.0259237831,01,A,2015_Aug_21_1706,Y,
stim/negf.jpg,stim/posf.jpg,stim/3.jpg,stim/5.jpg,stim/latef.jpg,EF,1,2,0,48,48,49,,,,,,,,,,,,,,,,,,4,0,0.999666213036,,,,,,PLC_L_D1S1,P33,60.0259237831,01,A,2015_Aug_21_1706,Y,
stim/posf.jpg,stim/negf.jpg,stim/3.jpg,stim/5.jpg,stim/latef.jpg,EF,1,2,0,49,49,44,,,,,,,,,,,,,,,,,,2,1,1.18294163503,,,,,,PLC_L_D1S1,P33,60.0259237831,01,A,2015_Aug_21_1706,Y,
stim/posf.jpg,stim/negf.jpg,stim/3.jpg,stim/5.jpg,stim/latef.jpg,EF,1,2,0,50,50,40,,,,,,,,,,,,,,,,,,4,0,0.983011042022,,,,,,PLC_L_D1S1,P33,60.0259237831,01,A,2015_Aug_21_1706,Y,
stim/posf.jpg,stim/negf.jpg,stim/2.jpg,stim/6.jpg,stim/latef.jpg,CD,1,2,0,51,51,25,,,,,,,,,,,,,,,,,,2,1,1.5161474816,,,,,,PLC_L_D1S1,P33,60.0259237831,01,A,2015_Aug_21_1706,Y,
stim/negf.jpg,stim/posf.jpg,stim/1.jpg,stim/4.jpg,stim/latef.jpg,AB,2,4,0,52,52,19,,,,,,,,,,,,,,,,,,4,1,0.849758916098,,,,,,PLC_L_D1S1,P33,60.0259237831,01,A,2015_Aug_21_1706,Y,
stim/posf.jpg,stim/negf.jpg,stim/1.jpg,stim/4.jpg,stim/latef.jpg,AB,2,4,0,53,53,16,,,,,,,,,,,,,,,,,,4,1,0.983008172871,,,,,,PLC_L_D1S1,P33,60.0259237831,01,A,2015_Aug_21_1706,Y,
stim/posf.jpg,stim/negf.jpg,stim/2.jpg,stim/6.jpg,stim/latef.jpg,CD,1,2,0,54,54,21,,,,,,,,,,,,,,,,,,2,1,0.982996413561,,,,,,PLC_L_D1S1,P33,60.0259237831,01,A,2015_Aug_21_1706,Y,
stim/posf.jpg,stim/negf.jpg,stim/6.jpg,stim/2.jpg,stim/latef.jpg,CD,2,4,0,55,55,30,,,,,,,,,,,,,,,,,,4,1,1.28290777062,,,,,,PLC_L_D1S1,P33,60.0259237831,01,A,2015_Aug_21_1706,Y,
stim/posf.jpg,stim/negf.jpg,stim/2.jpg,stim/6.jpg,stim/latef.jpg,CD,1,2,0,56,56,26,,,,,,,,,,,,,,,,,,4,0,1.19962060436,,,,,,PLC_L_D1S1,P33,60.0259237831,01,A,2015_Aug_21_1706,Y,
stim/negf.jpg,stim/posf.jpg,stim/6.jpg,stim/2.jpg,stim/latef.jpg,CD,2,4,0,57,57,39,,,,,,,,,,,,,,,,,,None,0,,,,,,,PLC_L_D1S1,P33,60.0259237831,01,A,2015_Aug_21_1706,Y,
stim/posf.jpg,stim/negf.jpg,stim/3.jpg,stim/5.jpg,stim/latef.jpg,EF,1,2,0,58,58,41,,,,,,,,,,,,,,,,,,4,0,0.783081664048,,,,,,PLC_L_D1S1,P33,60.0259237831,01,A,2015_Aug_21_1706,Y,
stim/negf.jpg,stim/posf.jpg,stim/2.jpg,stim/6.jpg,stim/latef.jpg,CD,1,2,0,59,59,29,,,,,,,,,,,,,,,,,,4,0,1.11630100826,,,,,,PLC_L_D1S1,P33,60.0259237831,01,A,2015_Aug_21_1706,Y,
,,,,,,,,,,,,,,,,,,,,,,,,,,,,,,,,0.903125,1.0,1,0,0,PLC_L_D1S1,P33,60.0259237831,01,A,2015_Aug_21_1706,Y,
stim/negf.jpg,stim/posf.jpg,stim/5.jpg,stim/3.jpg,stim/latef.jpg,EF,2,4,,,,,0,0,0,56,,,,,,,,,,,,,,2,0,0.86634889061,,,,,,PLC_L_D1S1,P33,60.0259237831,01,A,2015_Aug_21_1706,Y,
stim/posf.jpg,stim/negf.jpg,stim/4.jpg,stim/1.jpg,stim/latef.jpg,AB,1,2,,,,,0,1,1,2,,,,,,,,,,,,,,2,1,1.14955607552,,,,,,PLC_L_D1S1,P33,60.0259237831,01,A,2015_Aug_21_1706,Y,
stim/negf.jpg,stim/posf.jpg,stim/5.jpg,stim/3.jpg,stim/latef.jpg,EF,2,4,,,,,0,2,2,58,,,,,,,,,,,,,,4,1,1.46620370072,,,,,,PLC_L_D1S1,P33,60.0259237831,01,A,2015_Aug_21_1706,Y,
stim/posf.jpg,stim/negf.jpg,stim/1.jpg,stim/4.jpg,stim/latef.jpg,AB,2,4,,,,,0,3,3,16,,,,,,,,,,,,,,4,1,0.749743782378,,,,,,PLC_L_D1S1,P33,60.0259237831,01,A,2015_Aug_21_1706,Y,
stim/posf.jpg,stim/negf.jpg,stim/4.jpg,stim/1.jpg,stim/latef.jpg,AB,1,2,,,,,0,4,4,1,,,,,,,,,,,,,,2,1,0.883027408816,,,,,,PLC_L_D1S1,P33,60.0259237831,01,A,2015_Aug_21_1706,Y,
stim/posf.jpg,stim/negf.jpg,stim/3.jpg,stim/5.jpg,stim/latef.jpg,EF,1,2,,,,,0,5,5,40,,,,,,,,,,,,,,4,0,1.26622145097,,,,,,PLC_L_D1S1,P33,60.0259237831,01,A,2015_Aug_21_1706,Y,
stim/posf.jpg,stim/negf.jpg,stim/4.jpg,stim/1.jpg,stim/latef.jpg,AB,1,2,,,,,0,6,6,3,,,,,,,,,,,,,,2,1,0.683141931263,,,,,,PLC_L_D1S1,P33,60.0259237831,01,A,2015_Aug_21_1706,Y,
stim/negf.jpg,stim/posf.jpg,stim/6.jpg,stim/2.jpg,stim/latef.jpg,CD,2,4,,,,,0,7,7,39,,,,,,,,,,,,,,4,1,1.2328556868,,,,,,PLC_L_D1S1,P33,60.0259237831,01,A,2015_Aug_21_1706,Y,
stim/posf.jpg,stim/negf.jpg,stim/4.jpg,stim/1.jpg,stim/latef.jpg,AB,1,2,,,,,0,8,8,6,,,,,,,,,,,,,,2,1,0.599735794468,,,,,,PLC_L_D1S1,P33,60.0259237831,01,A,2015_Aug_21_1706,Y,
stim/posf.jpg,stim/negf.jpg,stim/6.jpg,stim/2.jpg,stim/latef.jpg,CD,2,4,,,,,0,9,9,32,,,,,,,,,,,,,,2,0,0.983008025504,,,,,,PLC_L_D1S1,P33,60.0259237831,01,A,2015_Aug_21_1706,Y,
stim/negf.jpg,stim/posf.jpg,stim/3.jpg,stim/5.jpg,stim/latef.jpg,EF,1,2,,,,,0,10,10,48,,,,,,,,,,,,,,2,1,1.29954247863,,,,,,PLC_L_D1S1,P33,60.0259237831,01,A,2015_Aug_21_1706,Y,
stim/posf.jpg,stim/negf.jpg,stim/3.jpg,stim/5.jpg,stim/latef.jpg,EF,1,2,,,,,0,11,11,41,,,,,,,,,,,,,,4,0,0.766422790806,,,,,,PLC_L_D1S1,P33,60.0259237831,01,A,2015_Aug_21_1706,Y,
stim/negf.jpg,stim/posf.jpg,stim/2.jpg,stim/6.jpg,stim/latef.jpg,CD,1,2,,,,,0,12,12,29,,,,,,,,,,,,,,2,1,1.14964707032,,,,,,PLC_L_D1S1,P33,60.0259237831,01,A,2015_Aug_21_1706,Y,
stim/posf.jpg,stim/negf.jpg,stim/2.jpg,stim/6.jpg,stim/latef.jpg,CD,1,2,,,,,0,13,13,21,,,,,,,,,,,,,,4,0,1.38289174668,,,,,,PLC_L_D1S1,P33,60.0259237831,01,A,2015_Aug_21_1706,Y,
stim/posf.jpg,stim/negf.jpg,stim/5.jpg,stim/3.jpg,stim/latef.jpg,EF,2,4,,,,,0,14,14,50,,,,,,,,,,,,,,4,1,1.53281568109,,,,,,PLC_L_D1S1,P33,60.0259237831,01,A,2015_Aug_21_1706,Y,
stim/posf.jpg,stim/negf.jpg,stim/5.jpg,stim/3.jpg,stim/latef.jpg,EF,2,4,,,,,0,15,15,52,,,,,,,,,,,,,,4,1,1.08292771032,,,,,,PLC_L_D1S1,P33,60.0259237831,01,A,2015_Aug_21_1706,Y,
stim/posf.jpg,stim/negf.jpg,stim/4.jpg,stim/1.jpg,stim/latef.jpg,AB,1,2,,,,,0,16,16,0,,,,,,,,,,,,,,None,0,,,,,,,PLC_L_D1S1,P33,60.0259237831,01,A,2015_Aug_21_1706,Y,
stim/negf.jpg,stim/posf.jpg,stim/6.jpg,stim/2.jpg,stim/latef.jpg,CD,2,4,,,,,0,17,17,37,,,,,,,,,,,,,,4,1,0.916371699461,,,,,,PLC_L_D1S1,P33,60.0259237831,01,A,2015_Aug_21_1706,Y,
stim/posf.jpg,stim/negf.jpg,stim/1.jpg,stim/4.jpg,stim/latef.jpg,AB,2,4,,,,,0,18,18,11,,,,,,,,,,,,,,4,1,0.73307813024,,,,,,PLC_L_D1S1,P33,60.0259237831,01,A,2015_Aug_21_1706,Y,
stim/posf.jpg,stim/negf.jpg,stim/6.jpg,stim/2.jpg,stim/latef.jpg,CD,2,4,,,,,0,19,19,36,,,,,,,,,,,,,,2,0,1.11627796483,,,,,,PLC_L_D1S1,P33,60.0259237831,01,A,2015_Aug_21_1706,Y,
stim/posf.jpg,stim/negf.jpg,stim/6.jpg,stim/2.jpg,stim/latef.jpg,CD,2,4,,,,,0,20,20,31,,,,,,,,,,,,,,4,1,0.966355191315,,,,,,PLC_L_D1S1,P33,60.0259237831,01,A,2015_Aug_21_1706,Y,
stim/negf.jpg,stim/posf.jpg,stim/1.jpg,stim/4.jpg,stim/latef.jpg,AB,2,4,,,,,0,21,21,18,,,,,,,,,,,,,,4,1,0.833078939256,,,,,,PLC_L_D1S1,P33,60.0259237831,01,A,2015_Aug_21_1706,Y,
stim/posf.jpg,stim/negf.jpg,stim/1.jpg,stim/4.jpg,stim/latef.jpg,AB,2,4,,,,,0,22,22,14,,,,,,,,,,,,,,2,0,0.933030193758,,,,,,PLC_L_D1S1,P33,60.0259237831,01,A,2015_Aug_21_1706,Y,
stim/posf.jpg,stim/negf.jpg,stim/3.jpg,stim/5.jpg,stim/latef.jpg,EF,1,2,,,,,0,23,23,44,,,,,,,,,,,,,,4,0,1.28287870317,,,,,,PLC_L_D1S1,P33,60.0259237831,01,A,2015_Aug_21_1706,Y,
stim/posf.jpg,stim/negf.jpg,stim/4.jpg,stim/1.jpg,stim/latef.jpg,AB,1,2,,,,,0,24,24,7,,,,,,,,,,,,,,2,1,0.883031718558,,,,,,PLC_L_D1S1,P33,60.0259237831,01,A,2015_Aug_21_1706,Y,
stim/negf.jpg,stim/posf.jpg,stim/4.jpg,stim/1.jpg,stim/latef.jpg,AB,1,2,,,,,0,25,25,9,,,,,,,,,,,,,,2,1,1.06626533034,,,,,,PLC_L_D1S1,P33,60.0259237831,01,A,2015_Aug_21_1706,Y,
stim/posf.jpg,stim/negf.jpg,stim/3.jpg,stim/5.jpg,stim/latef.jpg,EF,1,2,,,,,0,26,26,45,,,,,,,,,,,,,,4,0,1.01632508928,,,,,,PLC_L_D1S1,P33,60.0259237831,01,A,2015_Aug_21_1706,Y,
stim/negf.jpg,stim/posf.jpg,stim/3.jpg,stim/5.jpg,stim/latef.jpg,EF,1,2,,,,,0,27,27,47,,,,,,,,,,,,,,2,1,0.516520714882,,,,,,PLC_L_D1S1,P33,60.0259237831,01,A,2015_Aug_21_1706,Y,
stim/posf.jpg,stim/negf.jpg,stim/5.jpg,stim/3.jpg,stim/latef.jpg,EF,2,4,,,,,0,28,28,55,,,,,,,,,,,,,,4,1,1.14963469748,,,,,,PLC_L_D1S1,P33,60.0259237831,01,A,2015_Aug_21_1706,Y,
stim/posf.jpg,stim/negf.jpg,stim/3.jpg,stim/5.jpg,stim/latef.jpg,EF,1,2,,,,,0,29,29,43,,,,,,,,,,,,,,2,1,1.1496384749,,,,,,PLC_L_D1S1,P33,60.0259237831,01,A,2015_Aug_21_1706,Y,
stim/posf.jpg,stim/negf.jpg,stim/4.jpg,stim/1.jpg,stim/latef.jpg,AB,1,2,,,,,0,30,30,4,,,,,,,,,,,,,,2,1,1.11627104759,,,,,,PLC_L_D1S1,P33,60.0259237831,01,A,2015_Aug_21_1706,Y,
stim/posf.jpg,stim/negf.jpg,stim/5.jpg,stim/3.jpg,stim/latef.jpg,EF,2,4,,,,,0,31,31,54,,,,,,,,,,,,,,4,1,1.23293221856,,,,,,PLC_L_D1S1,P33,60.0259237831,01,A,2015_Aug_21_1706,Y,
stim/negf.jpg,stim/posf.jpg,stim/5.jpg,stim/3.jpg,stim/latef.jpg,EF,2,4,,,,,0,32,32,57,,,,,,,,,,,,,,4,1,0.716445398155,,,,,,PLC_L_D1S1,P33,60.0259237831,01,A,2015_Aug_21_1706,Y,
stim/posf.jpg,stim/negf.jpg,stim/2.jpg,stim/6.jpg,stim/latef.jpg,CD,1,2,,,,,0,33,33,26,,,,,,,,,,,,,,2,1,1.1662947256,,,,,,PLC_L_D1S1,P33,60.0259237831,01,A,2015_Aug_21_1706,Y,
stim/negf.jpg,stim/posf.jpg,stim/5.jpg,stim/3.jpg,stim/latef.jpg,EF,2,4,,,,,0,34,34,59,,,,,,,,,,,,,,2,0,1.59947853926,,,,,,PLC_L_D1S1,P33,60.0259237831,01,A,2015_Aug_21_1706,Y,
stim/negf.jpg,stim/posf.jpg,stim/2.jpg,stim/6.jpg,stim/latef.jpg,CD,1,2,,,,,0,35,35,28,,,,,,,,,,,,,,None,0,,,,,,,PLC_L_D1S1,P33,60.0259237831,01,A,2015_Aug_21_1706,Y,
stim/posf.jpg,stim/negf.jpg,stim/6.jpg,stim/2.jpg,stim/latef.jpg,CD,2,4,,,,,0,36,36,30,,,,,,,,,,,,,,2,0,0.383222002842,,,,,,PLC_L_D1S1,P33,60.0259237831,01,A,2015_Aug_21_1706,Y,
stim/negf.jpg,stim/posf.jpg,stim/1.jpg,stim/4.jpg,stim/latef.jpg,AB,2,4,,,,,0,37,37,19,,,,,,,,,,,,,,4,1,0.849642156074,,,,,,PLC_L_D1S1,P33,60.0259237831,01,A,2015_Aug_21_1706,Y,
stim/negf.jpg,stim/posf.jpg,stim/4.jpg,stim/1.jpg,stim/latef.jpg,AB,1,2,,,,,0,38,38,8,,,,,,,,,,,,,,2,1,1.06630344734,,,,,,PLC_L_D1S1,P33,60.0259237831,01,A,2015_Aug_21_1706,Y,
stim/posf.jpg,stim/negf.jpg,stim/2.jpg,stim/6.jpg,stim/latef.jpg,CD,1,2,,,,,0,39,39,20,,,,,,,,,,,,,,2,1,1.09969092262,,,,,,PLC_L_D1S1,P33,60.0259237831,01,A,2015_Aug_21_1706,Y,
stim/posf.jpg,stim/negf.jpg,stim/1.jpg,stim/4.jpg,stim/latef.jpg,AB,2,4,,,,,0,40,40,13,,,,,,,,,,,,,,4,1,0.81637423478,,,,,,PLC_L_D1S1,P33,60.0259237831,01,A,2015_Aug_21_1706,Y,
stim/posf.jpg,stim/negf.jpg,stim/2.jpg,stim/6.jpg,stim/latef.jpg,CD,1,2,,,,,0,41,41,22,,,,,,,,,,,,,,2,1,1.14957963023,,,,,,PLC_L_D1S1,P33,60.0259237831,01,A,2015_Aug_21_1706,Y,
stim/posf.jpg,stim/negf.jpg,stim/6.jpg,stim/2.jpg,stim/latef.jpg,CD,2,4,,,,,0,42,42,33,,,,,,,,,,,,,,4,1,1.34954261096,,,,,,PLC_L_D1S1,P33,60.0259237831,01,A,2015_Aug_21_1706,Y,
stim/posf.jpg,stim/negf.jpg,stim/1.jpg,stim/4.jpg,stim/latef.jpg,AB,2,4,,,,,0,43,43,10,,,,,,,,,,,,,,4,1,0.833058097307,,,,,,PLC_L_D1S1,P33,60.0259237831,01,A,2015_Aug_21_1706,Y,
stim/posf.jpg,stim/negf.jpg,stim/4.jpg,stim/1.jpg,stim/latef.jpg,AB,1,2,,,,,0,44,44,5,,,,,,,,,,,,,,2,1,0.832968119037,,,,,,PLC_L_D1S1,P33,60.0259237831,01,A,2015_Aug_21_1706,Y,
stim/posf.jpg,stim/negf.jpg,stim/5.jpg,stim/3.jpg,stim/latef.jpg,EF,2,4,,,,,0,45,45,51,,,,,,,,,,,,,,4,1,0.949684336208,,,,,,PLC_L_D1S1,P33,60.0259237831,01,A,2015_Aug_21_1706,Y,
stim/posf.jpg,stim/negf.jpg,stim/6.jpg,stim/2.jpg,stim/latef.jpg,CD,2,4,,,,,0,46,46,35,,,,,,,,,,,,,,4,1,1.44944159518,,,,,,PLC_L_D1S1,P33,60.0259237831,01,A,2015_Aug_21_1706,Y,
stim/posf.jpg,stim/negf.jpg,stim/5.jpg,stim/3.jpg,stim/latef.jpg,EF,2,4,,,,,0,47,47,53,,,,,,,,,,,,,,4,1,0.883005697702,,,,,,PLC_L_D1S1,P33,60.0259237831,01,A,2015_Aug_21_1706,Y,
stim/posf.jpg,stim/negf.jpg,stim/1.jpg,stim/4.jpg,stim/latef.jpg,AB,2,4,,,,,0,48,48,15,,,,,,,,,,,,,,4,1,0.899673797941,,,,,,PLC_L_D1S1,P33,60.0259237831,01,A,2015_Aug_21_1706,Y,
stim/posf.jpg,stim/negf.jpg,stim/2.jpg,stim/6.jpg,stim/latef.jpg,CD,1,2,,,,,0,49,49,24,,,,,,,,,,,,,,2,1,1.33291549086,,,,,,PLC_L_D1S1,P33,60.0259237831,01,A,2015_Aug_21_1706,Y,
stim/posf.jpg,stim/negf.jpg,stim/2.jpg,stim/6.jpg,stim/latef.jpg,CD,1,2,,,,,0,50,50,23,,,,,,,,,,,,,,2,1,0.649785788077,,,,,,PLC_L_D1S1,P33,60.0259237831,01,A,2015_Aug_21_1706,Y,
stim/posf.jpg,stim/negf.jpg,stim/3.jpg,stim/5.jpg,stim/latef.jpg,EF,1,2,,,,,0,51,51,42,,,,,,,,,,,,,,2,1,0.866365648379,,,,,,PLC_L_D1S1,P33,60.0259237831,01,A,2015_Aug_21_1706,Y,
stim/negf.jpg,stim/posf.jpg,stim/2.jpg,stim/6.jpg,stim/latef.jpg,CD,1,2,,,,,0,52,52,27,,,,,,,,,,,,,,2,1,0.866402815016,,,,,,PLC_L_D1S1,P33,60.0259237831,01,A,2015_Aug_21_1706,Y,
stim/posf.jpg,stim/negf.jpg,stim/1.jpg,stim/4.jpg,stim/latef.jpg,AB,2,4,,,,,0,53,53,17,,,,,,,,,,,,,,4,1,1.0830089458,,,,,,PLC_L_D1S1,P33,60.0259237831,01,A,2015_Aug_21_1706,Y,
stim/negf.jpg,stim/posf.jpg,stim/6.jpg,stim/2.jpg,stim/latef.jpg,CD,2,4,,,,,0,54,54,38,,,,,,,,,,,,,,2,0,1.14964078766,,,,,,PLC_L_D1S1,P33,60.0259237831,01,A,2015_Aug_21_1706,Y,
stim/posf.jpg,stim/negf.jpg,stim/2.jpg,stim/6.jpg,stim/latef.jpg,CD,1,2,,,,,0,55,55,25,,,,,,,,,,,,,,4,0,1.24956295968,,,,,,PLC_L_D1S1,P33,60.0259237831,01,A,2015_Aug_21_1706,Y,
stim/posf.jpg,stim/negf.jpg,stim/1.jpg,stim/4.jpg,stim/latef.jpg,AB,2,4,,,,,0,56,56,12,,,,,,,,,,,,,,4,1,0.733095585747,,,,,,PLC_L_D1S1,P33,60.0259237831,01,A,2015_Aug_21_1706,Y,
stim/posf.jpg,stim/negf.jpg,stim/6.jpg,stim/2.jpg,stim/latef.jpg,CD,2,4,,,,,0,57,57,34,,,,,,,,,,,,,,2,0,0.833040359095,,,,,,PLC_L_D1S1,P33,60.0259237831,01,A,2015_Aug_21_1706,Y,
stim/negf.jpg,stim/posf.jpg,stim/3.jpg,stim/5.jpg,stim/latef.jpg,EF,1,2,,,,,0,58,58,46,,,,,,,,,,,,,,2,1,1.01636235517,,,,,,PLC_L_D1S1,P33,60.0259237831,01,A,2015_Aug_21_1706,Y,
stim/negf.jpg,stim/posf.jpg,stim/3.jpg,stim/5.jpg,stim/latef.jpg,EF,1,2,,,,,0,59,59,49,,,,,,,,,,,,,,4,0,0.533195921835,,,,,,PLC_L_D1S1,P33,60.0259237831,01,A,2015_Aug_21_1706,Y,
,,,,,,,,,,,,,,,,,,,,,,,,,,,,,,,,0.903125,1.0,1,0,0,PLC_L_D1S1,P33,60.0259237831,01,A,2015_Aug_21_1706,Y,
stim/posf.jpg,stim/negf.jpg,stim/4.jpg,stim/1.jpg,stim/latef.jpg,AB,1,2,,,,,,,,,0,0,0,7,,,,,,,,,,2,1,0.883015162292,,,,,,PLC_L_D1S1,P33,60.0259237831,01,A,2015_Aug_21_1706,Y,
stim/posf.jpg,stim/negf.jpg,stim/6.jpg,stim/2.jpg,stim/latef.jpg,CD,2,4,,,,,,,,,0,1,1,31,,,,,,,,,,4,1,1.0662844129,,,,,,PLC_L_D1S1,P33,60.0259237831,01,A,2015_Aug_21_1706,Y,
stim/posf.jpg,stim/negf.jpg,stim/4.jpg,stim/1.jpg,stim/latef.jpg,AB,1,2,,,,,,,,,0,2,2,6,,,,,,,,,,2,1,0.933028903542,,,,,,PLC_L_D1S1,P33,60.0259237831,01,A,2015_Aug_21_1706,Y,
stim/posf.jpg,stim/negf.jpg,stim/1.jpg,stim/4.jpg,stim/latef.jpg,AB,2,4,,,,,,,,,0,3,3,16,,,,,,,,,,4,1,0.766423572755,,,,,,PLC_L_D1S1,P33,60.0259237831,01,A,2015_Aug_21_1706,Y,
stim/posf.jpg,stim/negf.jpg,stim/4.jpg,stim/1.jpg,stim/latef.jpg,AB,1,2,,,,,,,,,0,4,4,5,,,,,,,,,,2,1,0.933091576755,,,,,,PLC_L_D1S1,P33,60.0259237831,01,A,2015_Aug_21_1706,Y,
stim/posf.jpg,stim/negf.jpg,stim/5.jpg,stim/3.jpg,stim/latef.jpg,EF,2,4,,,,,,,,,0,5,5,50,,,,,,,,,,4,1,1.06631958857,,,,,,PLC_L_D1S1,P33,60.0259237831,01,A,2015_Aug_21_1706,Y,
stim/posf.jpg,stim/negf.jpg,stim/5.jpg,stim/3.jpg,stim/latef.jpg,EF,2,4,,,,,,,,,0,6,6,52,,,,,,,,,,4,1,0.949691854948,,,,,,PLC_L_D1S1,P33,60.0259237831,01,A,2015_Aug_21_1706,Y,
stim/negf.jpg,stim/posf.jpg,stim/5.jpg,stim/3.jpg,stim/latef.jpg,EF,2,4,,,,,,,,,0,7,7,58,,,,,,,,,,4,1,0.633051246231,,,,,,PLC_L_D1S1,P33,60.0259237831,01,A,2015_Aug_21_1706,Y,
stim/posf.jpg,stim/negf.jpg,stim/6.jpg,stim/2.jpg,stim/latef.jpg,CD,2,4,,,,,,,,,0,8,8,36,,,,,,,,,,4,1,1.46619152036,,,,,,PLC_L_D1S1,P33,60.0259237831,01,A,2015_Aug_21_1706,Y,
stim/negf.jpg,stim/posf.jpg,stim/5.jpg,stim/3.jpg,stim/latef.jpg,EF,2,4,,,,,,,,,0,9,9,56,,,,,,,,,,2,0,0.633130235111,,,,,,PLC_L_D1S1,P33,60.0259237831,01,A,2015_Aug_21_1706,Y,
stim/posf.jpg,stim/negf.jpg,stim/4.jpg,stim/1.jpg,stim/latef.jpg,AB,1,2,,,,,,,,,0,10,10,2,,,,,,,,,,2,1,0.999659007075,,,,,,PLC_L_D1S1,P33,60.0259237831,01,A,2015_Aug_21_1706,Y,
stim/negf.jpg,stim/posf.jpg,stim/3.jpg,stim/5.jpg,stim/latef.jpg,EF,1,2,,,,,,,,,0,11,11,46,,,,,,,,,,4,0,1.16628480688,,,,,,PLC_L_D1S1,P33,60.0259237831,01,A,2015_Aug_21_1706,Y,
stim/posf.jpg,stim/negf.jpg,stim/2.jpg,stim/6.jpg,stim/latef.jpg,CD,1,2,,,,,,,,,0,12,12,23,,,,,,,,,,4,0,1.43284657409,,,,,,PLC_L_D1S1,P33,60.0259237831,01,A,2015_Aug_21_1706,Y,
stim/negf.jpg,stim/posf.jpg,stim/1.jpg,stim/4.jpg,stim/latef.jpg,AB,2,4,,,,,,,,,0,13,13,18,,,,,,,,,,4,1,0.716384577559,,,,,,PLC_L_D1S1,P33,60.0259237831,01,A,2015_Aug_21_1706,Y,
stim/posf.jpg,stim/negf.jpg,stim/2.jpg,stim/6.jpg,stim/latef.jpg,CD,1,2,,,,,,,,,0,14,14,26,,,,,,,,,,2,1,1.38293184262,,,,,,PLC_L_D1S1,P33,60.0259237831,01,A,2015_Aug_21_1706,Y,
stim/posf.jpg,stim/negf.jpg,stim/6.jpg,stim/2.jpg,stim/latef.jpg,CD,2,4,,,,,,,,,0,15,15,33,,,,,,,,,,2,0,1.21625018759,,,,,,PLC_L_D1S1,P33,60.0259237831,01,A,2015_Aug_21_1706,Y,
stim/posf.jpg,stim/negf.jpg,stim/2.jpg,stim/6.jpg,stim/latef.jpg,CD,1,2,,,,,,,,,0,16,16,22,,,,,,,,,,4,0,1.09962713062,,,,,,PLC_L_D1S1,P33,60.0259237831,01,A,2015_Aug_21_1706,Y,
stim/negf.jpg,stim/posf.jpg,stim/5.jpg,stim/3.jpg,stim/latef.jpg,EF,2,4,,,,,,,,,0,17,17,59,,,,,,,,,,2,0,1.31623738468,,,,,,PLC_L_D1S1,P33,60.0259237831,01,A,2015_Aug_21_1706,Y,
stim/negf.jpg,stim/posf.jpg,stim/6.jpg,stim/2.jpg,stim/latef.jpg,CD,2,4,,,,,,,,,0,18,18,37,,,,,,,,,,4,1,1.28291791791,,,,,,PLC_L_D1S1,P33,60.0259237831,01,A,2015_Aug_21_1706,Y,
stim/posf.jpg,stim/negf.jpg,stim/4.jpg,stim/1.jpg,stim/latef.jpg,AB,1,2,,,,,,,,,0,19,19,0,,,,,,,,,,4,0,1.06635183194,,,,,,PLC_L_D1S1,P33,60.0259237831,01,A,2015_Aug_21_1706,Y,
stim/posf.jpg,stim/negf.jpg,stim/2.jpg,stim/6.jpg,stim/latef.jpg,CD,1,2,,,,,,,,,0,20,20,21,,,,,,,,,,2,1,0.999664315306,,,,,,PLC_L_D1S1,P33,60.0259237831,01,A,2015_Aug_21_1706,Y,
stim/posf.jpg,stim/negf.jpg,stim/2.jpg,stim/6.jpg,stim/latef.jpg,CD,1,2,,,,,,,,,0,21,21,24,,,,,,,,,,2,1,0.849721060744,,,,,,PLC_L_D1S1,P33,60.0259237831,01,A,2015_Aug_21_1706,Y,
stim/negf.jpg,stim/posf.jpg,stim/2.jpg,stim/6.jpg,stim/latef.jpg,CD,1,2,,,,,,,,,0,22,22,28,,,,,,,,,,2,1,0.633096611304,,,,,,PLC_L_D1S1,P33,60.0259237831,01,A,2015_Aug_21_1706,Y,
stim/posf.jpg,stim/negf.jpg,stim/3.jpg,stim/5.jpg,stim/latef.jpg,EF,1,2,,,,,,,,,0,23,23,40,,,,,,,,,,4,0,0.999677776859,,,,,,PLC_L_D1S1,P33,60.0259237831,01,A,2015_Aug_21_1706,Y,
stim/posf.jpg,stim/negf.jpg,stim/4.jpg,stim/1.jpg,stim/latef.jpg,AB,1,2,,,,,,,,,0,24,24,3,,,,,,,,,,4,0,1.54948332719,,,,,,PLC_L_D1S1,P33,60.0259237831,01,A,2015_Aug_21_1706,Y,
stim/negf.jpg,stim/posf.jpg,stim/3.jpg,stim/5.jpg,stim/latef.jpg,EF,1,2,,,,,,,,,0,25,25,47,,,,,,,,,,2,1,0.999678787377,,,,,,PLC_L_D1S1,P33,60.0259237831,01,A,2015_Aug_21_1706,Y,
stim/negf.jpg,stim/posf.jpg,stim/2.jpg,stim/6.jpg,stim/latef.jpg,CD,1,2,,,,,,,,,0,26,26,29,,,,,,,,,,2,1,1.56610260374,,,,,,PLC_L_D1S1,P33,60.0259237831,01,A,2015_Aug_21_1706,Y,
stim/posf.jpg,stim/negf.jpg,stim/1.jpg,stim/4.jpg,stim/latef.jpg,AB,2,4,,,,,,,,,0,27,27,15,,,,,,,,,,4,1,0.866404872143,,,,,,PLC_L_D1S1,P33,60.0259237831,01,A,2015_Aug_21_1706,Y,
stim/posf.jpg,stim/negf.jpg,stim/1.jpg,stim/4.jpg,stim/latef.jpg,AB,2,4,,,,,,,,,0,28,28,17,,,,,,,,,,4,1,0.733096497019,,,,,,PLC_L_D1S1,P33,60.0259237831,01,A,2015_Aug_21_1706,Y,
stim/posf.jpg,stim/negf.jpg,stim/5.jpg,stim/3.jpg,stim/latef.jpg,EF,2,4,,,,,,,,,0,29,29,51,,,,,,,,,,2,0,1.23292022165,,,,,,PLC_L_D1S1,P33,60.0259237831,01,A,2015_Aug_21_1706,Y,
stim/negf.jpg,stim/posf.jpg,stim/4.jpg,stim/1.jpg,stim/latef.jpg,AB,1,2,,,,,,,,,0,30,30,9,,,,,,,,,,2,1,1.24959591281,,,,,,PLC_L_D1S1,P33,60.0259237831,01,A,2015_Aug_21_1706,Y,
stim/posf.jpg,stim/negf.jpg,stim/5.jpg,stim/3.jpg,stim/latef.jpg,EF,2,4,,,,,,,,,0,31,31,54,,,,,,,,,,4,1,0.966322638175,,,,,,PLC_L_D1S1,P33,60.0259237831,01,A,2015_Aug_21_1706,Y,
stim/negf.jpg,stim/posf.jpg,stim/3.jpg,stim/5.jpg,stim/latef.jpg,EF,1,2,,,,,,,,,0,32,32,48,,,,,,,,,,4,0,0.733098800761,,,,,,PLC_L_D1S1,P33,60.0259237831,01,A,2015_Aug_21_1706,Y,
stim/negf.jpg,stim/posf.jpg,stim/4.jpg,stim/1.jpg,stim/latef.jpg,AB,1,2,,,,,,,,,0,33,33,8,,,,,,,,,,2,1,0.733081988857,,,,,,PLC_L_D1S1,P33,60.0259237831,01,A,2015_Aug_21_1706,Y,
stim/posf.jpg,stim/negf.jpg,stim/5.jpg,stim/3.jpg,stim/latef.jpg,EF,2,4,,,,,,,,,0,34,34,55,,,,,,,,,,4,1,1.2662470207,,,,,,PLC_L_D1S1,P33,60.0259237831,01,A,2015_Aug_21_1706,Y,
stim/posf.jpg,stim/negf.jpg,stim/3.jpg,stim/5.jpg,stim/latef.jpg,EF,1,2,,,,,,,,,0,35,35,43,,,,,,,,,,4,0,0.666431837355,,,,,,PLC_L_D1S1,P33,60.0259237831,01,A,2015_Aug_21_1706,Y,
stim/posf.jpg,stim/negf.jpg,stim/2.jpg,stim/6.jpg,stim/latef.jpg,CD,1,2,,,,,,,,,0,36,36,25,,,,,,,,,,2,1,0.983003866137,,,,,,PLC_L_D1S1,P33,60.0259237831,01,A,2015_Aug_21_1706,Y,
stim/posf.jpg,stim/negf.jpg,stim/2.jpg,stim/6.jpg,stim/latef.jpg,CD,1,2,,,,,,,,,0,37,37,20,,,,,,,,,,2,1,0.683081233976,,,,,,PLC_L_D1S1,P33,60.0259237831,01,A,2015_Aug_21_1706,Y,
stim/posf.jpg,stim/negf.jpg,stim/4.jpg,stim/1.jpg,stim/latef.jpg,AB,1,2,,,,,,,,,0,38,38,4,,,,,,,,,,2,1,1.06634418388,,,,,,PLC_L_D1S1,P33,60.0259237831,01,A,2015_Aug_21_1706,Y,
stim/posf.jpg,stim/negf.jpg,stim/6.jpg,stim/2.jpg,stim/latef.jpg,CD,2,4,,,,,,,,,0,39,39,32,,,,,,,,,,4,1,0.883032756145,,,,,,PLC_L_D1S1,P33,60.0259237831,01,A,2015_Aug_21_1706,Y,
stim/posf.jpg,stim/negf.jpg,stim/3.jpg,stim/5.jpg,stim/latef.jpg,EF,1,2,,,,,,,,,0,40,40,41,,,,,,,,,,2,1,0.98307194382,,,,,,PLC_L_D1S1,P33,60.0259237831,01,A,2015_Aug_21_1706,Y,
stim/posf.jpg,stim/negf.jpg,stim/4.jpg,stim/1.jpg,stim/latef.jpg,AB,1,2,,,,,,,,,0,41,41,1,,,,,,,,,,2,1,0.783039053842,,,,,,PLC_L_D1S1,P33,60.0259237831,01,A,2015_Aug_21_1706,Y,
stim/posf.jpg,stim/negf.jpg,stim/6.jpg,stim/2.jpg,stim/latef.jpg,CD,2,4,,,,,,,,,0,42,42,34,,,,,,,,,,4,1,0.966359058954,,,,,,PLC_L_D1S1,P33,60.0259237831,01,A,2015_Aug_21_1706,Y,
stim/negf.jpg,stim/posf.jpg,stim/1.jpg,stim/4.jpg,stim/latef.jpg,AB,2,4,,,,,,,,,0,43,43,19,,,,,,,,,,4,1,0.86633904106,,,,,,PLC_L_D1S1,P33,60.0259237831,01,A,2015_Aug_21_1706,Y,
stim/posf.jpg,stim/negf.jpg,stim/5.jpg,stim/3.jpg,stim/latef.jpg,EF,2,4,,,,,,,,,0,44,44,53,,,,,,,,,,4,1,0.899674631018,,,,,,PLC_L_D1S1,P33,60.0259237831,01,A,2015_Aug_21_1706,Y,
stim/negf.jpg,stim/posf.jpg,stim/6.jpg,stim/2.jpg,stim/latef.jpg,CD,2,4,,,,,,,,,0,45,45,39,,,,,,,,,,4,1,0.899707794678,,,,,,PLC_L_D1S1,P33,60.0259237831,01,A,2015_Aug_21_1706,Y,
stim/posf.jpg,stim/negf.jpg,stim/3.jpg,stim/5.jpg,stim/latef.jpg,EF,1,2,,,,,,,,,0,46,46,44,,,,,,,,,,2,1,1.03297952045,,,,,,PLC_L_D1S1,P33,60.0259237831,01,A,2015_Aug_21_1706,Y,
stim/posf.jpg,stim/negf.jpg,stim/3.jpg,stim/5.jpg,stim/latef.jpg,EF,1,2,,,,,,,,,0,47,47,42,,,,,,,,,,2,1,0.566545027481,,,,,,PLC_L_D1S1,P33,60.0259237831,01,A,2015_Aug_21_1706,Y,
stim/posf.jpg,stim/negf.jpg,stim/6.jpg,stim/2.jpg,stim/latef.jpg,CD,2,4,,,,,,,,,0,48,48,35,,,,,,,,,,2,0,1.46619147224,,,,,,PLC_L_D1S1,P33,60.0259237831,01,A,2015_Aug_21_1706,Y,
stim/posf.jpg,stim/negf.jpg,stim/1.jpg,stim/4.jpg,stim/latef.jpg,AB,2,4,,,,,,,,,0,49,49,12,,,,,,,,,,4,1,0.949644122977,,,,,,PLC_L_D1S1,P33,60.0259237831,01,A,2015_Aug_21_1706,Y,
stim/negf.jpg,stim/posf.jpg,stim/3.jpg,stim/5.jpg,stim/latef.jpg,EF,1,2,,,,,,,,,0,50,50,49,,,,,,,,,,2,1,0.783014666055,,,,,,PLC_L_D1S1,P33,60.0259237831,01,A,2015_Aug_21_1706,Y,
stim/posf.jpg,stim/negf.jpg,stim/1.jpg,stim/4.jpg,stim/latef.jpg,AB,2,4,,,,,,,,,0,51,51,13,,,,,,,,,,4,1,0.766412111187,,,,,,PLC_L_D1S1,P33,60.0259237831,01,A,2015_Aug_21_1706,Y,
stim/posf.jpg,stim/negf.jpg,stim/1.jpg,stim/4.jpg,stim/latef.jpg,AB,2,4,,,,,,,,,0,52,52,14,,,,,,,,,,4,1,1.41619561357,,,,,,PLC_L_D1S1,P33,60.0259237831,01,A,2015_Aug_21_1706,Y,
stim/posf.jpg,stim/negf.jpg,stim/6.jpg,stim/2.jpg,stim/latef.jpg,CD,2,4,,,,,,,,,0,53,53,30,,,,,,,,,,None,0,,,,,,,PLC_L_D1S1,P33,60.0259237831,01,A,2015_Aug_21_1706,Y,
stim/posf.jpg,stim/negf.jpg,stim/1.jpg,stim/4.jpg,stim/latef.jpg,AB,2,4,,,,,,,,,0,54,54,10,,,,,,,,,,4,1,0.866383594108,,,,,,PLC_L_D1S1,P33,60.0259237831,01,A,2015_Aug_21_1706,Y,
stim/negf.jpg,stim/posf.jpg,stim/6.jpg,stim/2.jpg,stim/latef.jpg,CD,2,4,,,,,,,,,0,55,55,38,,,,,,,,,,2,0,0.749800242103,,,,,,PLC_L_D1S1,P33,60.0259237831,01,A,2015_Aug_21_1706,Y,
stim/posf.jpg,stim/negf.jpg,stim/3.jpg,stim/5.jpg,stim/latef.jpg,EF,1,2,,,,,,,,,0,56,56,45,,,,,,,,,,2,1,1.18296052812,,,,,,PLC_L_D1S1,P33,60.0259237831,01,A,2015_Aug_21_1706,Y,
stim/negf.jpg,stim/posf.jpg,stim/5.jpg,stim/3.jpg,stim/latef.jpg,EF,2,4,,,,,,,,,0,57,57,57,,,,,,,,,,4,1,1.31621301193,,,,,,PLC_L_D1S1,P33,60.0259237831,01,A,2015_Aug_21_1706,Y,
stim/posf.jpg,stim/negf.jpg,stim/1.jpg,stim/4.jpg,stim/latef.jpg,AB,2,4,,,,,,,,,0,58,58,11,,,,,,,,,,4,1,0.716483653506,,,,,,PLC_L_D1S1,P33,60.0259237831,01,A,2015_Aug_21_1706,Y,
stim/negf.jpg,stim/posf.jpg,stim/2.jpg,stim/6.jpg,stim/latef.jpg,CD,1,2,,,,,,,,,0,59,59,27,,,,,,,,,,4,0,1.61621260291,,,,,,PLC_L_D1S1,P33,60.0259237831,01,A,2015_Aug_21_1706,Y,
,,,,,,,,,,,,,,,,,,,,,,,,,,,,,,,,0.903125,1.0,1,0,0,PLC_L_D1S1,P33,60.0259237831,01,A,2015_Aug_21_1706,Y,
stim/negf.jpg,stim/posf.jpg,stim/2.jpg,stim/6.jpg,stim/latef.jpg,CD,1,2,,,,,,,,,,,,,0,0,0,27,,,,,,4,0,1.24960719393,,,,,,PLC_L_D1S1,P33,60.0259237831,01,A,2015_Aug_21_1706,Y,
stim/negf.jpg,stim/posf.jpg,stim/4.jpg,stim/1.jpg,stim/latef.jpg,AB,1,2,,,,,,,,,,,,,0,1,1,9,,,,,,2,1,0.749748218434,,,,,,PLC_L_D1S1,P33,60.0259237831,01,A,2015_Aug_21_1706,Y,
stim/posf.jpg,stim/negf.jpg,stim/6.jpg,stim/2.jpg,stim/latef.jpg,CD,2,4,,,,,,,,,,,,,0,2,2,31,,,,,,2,0,1.09968515124,,,,,,PLC_L_D1S1,P33,60.0259237831,01,A,2015_Aug_21_1706,Y,
stim/posf.jpg,stim/negf.jpg,stim/4.jpg,stim/1.jpg,stim/latef.jpg,AB,1,2,,,,,,,,,,,,,0,3,3,3,,,,,,4,0,1.46614409516,,,,,,PLC_L_D1S1,P33,60.0259237831,01,A,2015_Aug_21_1706,Y,
stim/posf.jpg,stim/negf.jpg,stim/1.jpg,stim/4.jpg,stim/latef.jpg,AB,2,4,,,,,,,,,,,,,0,4,4,16,,,,,,4,1,1.23290637815,,,,,,PLC_L_D1S1,P33,60.0259237831,01,A,2015_Aug_21_1706,Y,
stim/negf.jpg,stim/posf.jpg,stim/3.jpg,stim/5.jpg,stim/latef.jpg,EF,1,2,,,,,,,,,,,,,0,5,5,46,,,,,,None,0,,,,,,,PLC_L_D1S1,P33,60.0259237831,01,A,2015_Aug_21_1706,Y,
stim/posf.jpg,stim/negf.jpg,stim/4.jpg,stim/1.jpg,stim/latef.jpg,AB,1,2,,,,,,,,,,,,,0,6,6,4,,,,,,2,1,1.04958441215,,,,,,PLC_L_D1S1,P33,60.0259237831,01,A,2015_Aug_21_1706,Y,
stim/negf.jpg,stim/posf.jpg,stim/6.jpg,stim/2.jpg,stim/latef.jpg,CD,2,4,,,,,,,,,,,,,0,7,7,39,,,,,,2,0,1.06632363666,,,,,,PLC_L_D1S1,P33,60.0259237831,01,A,2015_Aug_21_1706,Y,
stim/posf.jpg,stim/negf.jpg,stim/1.jpg,stim/4.jpg,stim/latef.jpg,AB,2,4,,,,,,,,,,,,,0,8,8,17,,,,,,4,1,0.916421638935,,,,,,PLC_L_D1S1,P33,60.0259237831,01,A,2015_Aug_21_1706,Y,
stim/negf.jpg,stim/posf.jpg,stim/5.jpg,stim/3.jpg,stim/latef.jpg,EF,2,4,,,,,,,,,,,,,0,9,9,57,,,,,,2,0,1.14961889911,,,,,,PLC_L_D1S1,P33,60.0259237831,01,A,2015_Aug_21_1706,Y,
stim/negf.jpg,stim/posf.jpg,stim/3.jpg,stim/5.jpg,stim/latef.jpg,EF,1,2,,,,,,,,,,,,,0,10,10,47,,,,,,2,1,1.26620403456,,,,,,PLC_L_D1S1,P33,60.0259237831,01,A,2015_Aug_21_1706,Y,
stim/posf.jpg,stim/negf.jpg,stim/4.jpg,stim/1.jpg,stim/latef.jpg,AB,1,2,,,,,,,,,,,,,0,11,11,0,,,,,,2,1,1.18289805039,,,,,,PLC_L_D1S1,P33,60.0259237831,01,A,2015_Aug_21_1706,Y,
stim/posf.jpg,stim/negf.jpg,stim/4.jpg,stim/1.jpg,stim/latef.jpg,AB,1,2,,,,,,,,,,,,,0,12,12,1,,,,,,2,1,0.833052807122,,,,,,PLC_L_D1S1,P33,60.0259237831,01,A,2015_Aug_21_1706,Y,
stim/posf.jpg,stim/negf.jpg,stim/3.jpg,stim/5.jpg,stim/latef.jpg,EF,1,2,,,,,,,,,,,,,0,13,13,42,,,,,,4,0,0.982989018128,,,,,,PLC_L_D1S1,P33,60.0259237831,01,A,2015_Aug_21_1706,Y,
stim/posf.jpg,stim/negf.jpg,stim/3.jpg,stim/5.jpg,stim/latef.jpg,EF,1,2,,,,,,,,,,,,,0,14,14,45,,,,,,2,1,0.483215043496,,,,,,PLC_L_D1S1,P33,60.0259237831,01,A,2015_Aug_21_1706,Y,
stim/posf.jpg,stim/negf.jpg,stim/3.jpg,stim/5.jpg,stim/latef.jpg,EF,1,2,,,,,,,,,,,,,0,15,15,40,,,,,,2,1,0.583069835565,,,,,,PLC_L_D1S1,P33,60.0259237831,01,A,2015_Aug_21_1706,Y,
stim/posf.jpg,stim/negf.jpg,stim/2.jpg,stim/6.jpg,stim/latef.jpg,CD,1,2,,,,,,,,,,,,,0,16,16,25,,,,,,4,0,1.08296632356,,,,,,PLC_L_D1S1,P33,60.0259237831,01,A,2015_Aug_21_1706,Y,
stim/posf.jpg,stim/negf.jpg,stim/5.jpg,stim/3.jpg,stim/latef.jpg,EF,2,4,,,,,,,,,,,,,0,17,17,52,,,,,,4,1,1.58278096856,,,,,,PLC_L_D1S1,P33,60.0259237831,01,A,2015_Aug_21_1706,Y,
stim/posf.jpg,stim/negf.jpg,stim/6.jpg,stim/2.jpg,stim/latef.jpg,CD,2,4,,,,,,,,,,,,,0,18,18,35,,,,,,None,0,,,,,,,PLC_L_D1S1,P33,60.0259237831,01,A,2015_Aug_21_1706,Y,
stim/posf.jpg,stim/negf.jpg,stim/6.jpg,stim/2.jpg,stim/latef.jpg,CD,2,4,,,,,,,,,,,,,0,19,19,33,,,,,,2,0,0.583124893798,,,,,,PLC_L_D1S1,P33,60.0259237831,01,A,2015_Aug_21_1706,Y,
stim/posf.jpg,stim/negf.jpg,stim/2.jpg,stim/6.jpg,stim/latef.jpg,CD,1,2,,,,,,,,,,,,,0,20,20,20,,,,,,2,1,0.699747553778,,,,,,PLC_L_D1S1,P33,60.0259237831,01,A,2015_Aug_21_1706,Y,
stim/posf.jpg,stim/negf.jpg,stim/4.jpg,stim/1.jpg,stim/latef.jpg,AB,1,2,,,,,,,,,,,,,0,21,21,7,,,,,,2,1,0.866365765671,,,,,,PLC_L_D1S1,P33,60.0259237831,01,A,2015_Aug_21_1706,Y,
stim/negf.jpg,stim/posf.jpg,stim/3.jpg,stim/5.jpg,stim/latef.jpg,EF,1,2,,,,,,,,,,,,,0,22,22,48,,,,,,2,1,1.01627879189,,,,,,PLC_L_D1S1,P33,60.0259237831,01,A,2015_Aug_21_1706,Y,
stim/posf.jpg,stim/negf.jpg,stim/6.jpg,stim/2.jpg,stim/latef.jpg,CD,2,4,,,,,,,,,,,,,0,23,23,34,,,,,,2,0,0.899715355524,,,,,,PLC_L_D1S1,P33,60.0259237831,01,A,2015_Aug_21_1706,Y,
stim/posf.jpg,stim/negf.jpg,stim/2.jpg,stim/6.jpg,stim/latef.jpg,CD,1,2,,,,,,,,,,,,,0,24,24,23,,,,,,2,1,1.5828168089,,,,,,PLC_L_D1S1,P33,60.0259237831,01,A,2015_Aug_21_1706,Y,
stim/posf.jpg,stim/negf.jpg,stim/3.jpg,stim/5.jpg,stim/latef.jpg,EF,1,2,,,,,,,,,,,,,0,25,25,41,,,,,,4,0,1.06630305035,,,,,,PLC_L_D1S1,P33,60.0259237831,01,A,2015_Aug_21_1706,Y,
stim/negf.jpg,stim/posf.jpg,stim/5.jpg,stim/3.jpg,stim/latef.jpg,EF,2,4,,,,,,,,,,,,,0,26,26,59,,,,,,4,1,0.983015565297,,,,,,PLC_L_D1S1,P33,60.0259237831,01,A,2015_Aug_21_1706,Y,
stim/negf.jpg,stim/posf.jpg,stim/2.jpg,stim/6.jpg,stim/latef.jpg,CD,1,2,,,,,,,,,,,,,0,27,27,29,,,,,,2,1,0.833063543883,,,,,,PLC_L_D1S1,P33,60.0259237831,01,A,2015_Aug_21_1706,Y,
stim/negf.jpg,stim/posf.jpg,stim/4.jpg,stim/1.jpg,stim/latef.jpg,AB,1,2,,,,,,,,,,,,,0,28,28,8,,,,,,2,1,0.783112539003,,,,,,PLC_L_D1S1,P33,60.0259237831,01,A,2015_Aug_21_1706,Y,
stim/posf.jpg,stim/negf.jpg,stim/2.jpg,stim/6.jpg,stim/latef.jpg,CD,1,2,,,,,,,,,,,,,0,29,29,26,,,,,,2,1,1.21626293336,,,,,,PLC_L_D1S1,P33,60.0259237831,01,A,2015_Aug_21_1706,Y,
stim/posf.jpg,stim/negf.jpg,stim/2.jpg,stim/6.jpg,stim/latef.jpg,CD,1,2,,,,,,,,,,,,,0,30,30,21,,,,,,2,1,0.566464844625,,,,,,PLC_L_D1S1,P33,60.0259237831,01,A,2015_Aug_21_1706,Y,
stim/negf.jpg,stim/posf.jpg,stim/1.jpg,stim/4.jpg,stim/latef.jpg,AB,2,4,,,,,,,,,,,,,0,31,31,19,,,,,,2,0,1.28291885926,,,,,,PLC_L_D1S1,P33,60.0259237831,01,A,2015_Aug_21_1706,Y,
stim/posf.jpg,stim/negf.jpg,stim/1.jpg,stim/4.jpg,stim/latef.jpg,AB,2,4,,,,,,,,,,,,,0,32,32,11,,,,,,2,0,1.16625830783,,,,,,PLC_L_D1S1,P33,60.0259237831,01,A,2015_Aug_21_1706,Y,
stim/posf.jpg,stim/negf.jpg,stim/1.jpg,stim/4.jpg,stim/latef.jpg,AB,2,4,,,,,,,,,,,,,0,33,33,13,,,,,,4,1,1.18291220367,,,,,,PLC_L_D1S1,P33,60.0259237831,01,A,2015_Aug_21_1706,Y,
stim/posf.jpg,stim/negf.jpg,stim/3.jpg,stim/5.jpg,stim/latef.jpg,EF,1,2,,,,,,,,,,,,,0,34,34,43,,,,,,2,1,1.08295841986,,,,,,PLC_L_D1S1,P33,60.0259237831,01,A,2015_Aug_21_1706,Y,
stim/negf.jpg,stim/posf.jpg,stim/2.jpg,stim/6.jpg,stim/latef.jpg,CD,1,2,,,,,,,,,,,,,0,35,35,28,,,,,,2,1,1.11632083969,,,,,,PLC_L_D1S1,P33,60.0259237831,01,A,2015_Aug_21_1706,Y,
stim/negf.jpg,stim/posf.jpg,stim/5.jpg,stim/3.jpg,stim/latef.jpg,EF,2,4,,,,,,,,,,,,,0,36,36,56,,,,,,None,0,,,,,,,PLC_L_D1S1,P33,60.0259237831,01,A,2015_Aug_21_1706,Y,
stim/posf.jpg,stim/negf.jpg,stim/5.jpg,stim/3.jpg,stim/latef.jpg,EF,2,4,,,,,,,,,,,,,0,37,37,55,,,,,,2,0,0.533201190968,,,,,,PLC_L_D1S1,P33,60.0259237831,01,A,2015_Aug_21_1706,Y,
stim/posf.jpg,stim/negf.jpg,stim/6.jpg,stim/2.jpg,stim/latef.jpg,CD,2,4,,,,,,,,,,,,,0,38,38,36,,,,,,4,1,1.2495797385,,,,,,PLC_L_D1S1,P33,60.0259237831,01,A,2015_Aug_21_1706,Y,
stim/posf.jpg,stim/negf.jpg,stim/4.jpg,stim/1.jpg,stim/latef.jpg,AB,1,2,,,,,,,,,,,,,0,39,39,6,,,,,,4,0,1.18290423982,,,,,,PLC_L_D1S1,P33,60.0259237831,01,A,2015_Aug_21_1706,Y,
stim/posf.jpg,stim/negf.jpg,stim/6.jpg,stim/2.jpg,stim/latef.jpg,CD,2,4,,,,,,,,,,,,,0,40,40,32,,,,,,4,1,1.38287363554,,,,,,PLC_L_D1S1,P33,60.0259237831,01,A,2015_Aug_21_1706,Y,
stim/posf.jpg,stim/negf.jpg,stim/5.jpg,stim/3.jpg,stim/latef.jpg,EF,2,4,,,,,,,,,,,,,0,41,41,51,,,,,,2,0,0.899703653356,,,,,,PLC_L_D1S1,P33,60.0259237831,01,A,2015_Aug_21_1706,Y,
stim/posf.jpg,stim/negf.jpg,stim/2.jpg,stim/6.jpg,stim/latef.jpg,CD,1,2,,,,,,,,,,,,,0,42,42,24,,,,,,2,1,1.58286407771,,,,,,PLC_L_D1S1,P33,60.0259237831,01,A,2015_Aug_21_1706,Y,
stim/negf.jpg,stim/posf.jpg,stim/5.jpg,stim/3.jpg,stim/latef.jpg,EF,2,4,,,,,,,,,,,,,0,43,43,58,,,,,,4,1,0.816352373291,,,,,,PLC_L_D1S1,P33,60.0259237831,01,A,2015_Aug_21_1706,Y,
stim/posf.jpg,stim/negf.jpg,stim/3.jpg,stim/5.jpg,stim/latef.jpg,EF,1,2,,,,,,,,,,,,,0,44,44,44,,,,,,4,0,0.866405906723,,,,,,PLC_L_D1S1,P33,60.0259237831,01,A,2015_Aug_21_1706,Y,
stim/posf.jpg,stim/negf.jpg,stim/5.jpg,stim/3.jpg,stim/latef.jpg,EF,2,4,,,,,,,,,,,,,0,45,45,50,,,,,,4,1,0.683147624454,,,,,,PLC_L_D1S1,P33,60.0259237831,01,A,2015_Aug_21_1706,Y,
stim/posf.jpg,stim/negf.jpg,stim/1.jpg,stim/4.jpg,stim/latef.jpg,AB,2,4,,,,,,,,,,,,,0,46,46,15,,,,,,2,0,1.16623209149,,,,,,PLC_L_D1S1,P33,60.0259237831,01,A,2015_Aug_21_1706,Y,
stim/negf.jpg,stim/posf.jpg,stim/1.jpg,stim/4.jpg,stim/latef.jpg,AB,2,4,,,,,,,,,,,,,0,47,47,18,,,,,,4,1,1.0330011233,,,,,,PLC_L_D1S1,P33,60.0259237831,01,A,2015_Aug_21_1706,Y,
stim/posf.jpg,stim/negf.jpg,stim/1.jpg,stim/4.jpg,stim/latef.jpg,AB,2,4,,,,,,,,,,,,,0,48,48,10,,,,,,2,0,0.549821114127,,,,,,PLC_L_D1S1,P33,60.0259237831,01,A,2015_Aug_21_1706,Y,
stim/negf.jpg,stim/posf.jpg,stim/3.jpg,stim/5.jpg,stim/latef.jpg,EF,1,2,,,,,,,,,,,,,0,49,49,49,,,,,,4,0,1.232927181,,,,,,PLC_L_D1S1,P33,60.0259237831,01,A,2015_Aug_21_1706,Y,
stim/posf.jpg,stim/negf.jpg,stim/4.jpg,stim/1.jpg,stim/latef.jpg,AB,1,2,,,,,,,,,,,,,0,50,50,5,,,,,,4,0,1.46615637777,,,,,,PLC_L_D1S1,P33,60.0259237831,01,A,2015_Aug_21_1706,Y,
stim/posf.jpg,stim/negf.jpg,stim/1.jpg,stim/4.jpg,stim/latef.jpg,AB,2,4,,,,,,,,,,,,,0,51,51,14,,,,,,4,1,0.849720738942,,,,,,PLC_L_D1S1,P33,60.0259237831,01,A,2015_Aug_21_1706,Y,
stim/posf.jpg,stim/negf.jpg,stim/1.jpg,stim/4.jpg,stim/latef.jpg,AB,2,4,,,,,,,,,,,,,0,52,52,12,,,,,,4,1,0.583107411222,,,,,,PLC_L_D1S1,P33,60.0259237831,01,A,2015_Aug_21_1706,Y,
stim/negf.jpg,stim/posf.jpg,stim/6.jpg,stim/2.jpg,stim/latef.jpg,CD,2,4,,,,,,,,,,,,,0,53,53,38,,,,,,2,0,1.16624507786,,,,,,PLC_L_D1S1,P33,60.0259237831,01,A,2015_Aug_21_1706,Y,
stim/negf.jpg,stim/posf.jpg,stim/6.jpg,stim/2.jpg,stim/latef.jpg,CD,2,4,,,,,,,,,,,,,0,54,54,37,,,,,,2,0,0.86635440335,,,,,,PLC_L_D1S1,P33,60.0259237831,01,A,2015_Aug_21_1706,Y,
stim/posf.jpg,stim/negf.jpg,stim/5.jpg,stim/3.jpg,stim/latef.jpg,EF,2,4,,,,,,,,,,,,,0,55,55,54,,,,,,2,0,1.11626945361,,,,,,PLC_L_D1S1,P33,60.0259237831,01,A,2015_Aug_21_1706,Y,
stim/posf.jpg,stim/negf.jpg,stim/4.jpg,stim/1.jpg,stim/latef.jpg,AB,1,2,,,,,,,,,,,,,0,56,56,2,,,,,,2,1,0.816408249562,,,,,,PLC_L_D1S1,P33,60.0259237831,01,A,2015_Aug_21_1706,Y,
stim/posf.jpg,stim/negf.jpg,stim/6.jpg,stim/2.jpg,stim/latef.jpg,CD,2,4,,,,,,,,,,,,,0,57,57,30,,,,,,2,0,1.11626294539,,,,,,PLC_L_D1S1,P33,60.0259237831,01,A,2015_Aug_21_1706,Y,
stim/posf.jpg,stim/negf.jpg,stim/5.jpg,stim/3.jpg,stim/latef.jpg,EF,2,4,,,,,,,,,,,,,0,58,58,53,,,,,,4,1,1.03298450087,,,,,,PLC_L_D1S1,P33,60.0259237831,01,A,2015_Aug_21_1706,Y,
stim/posf.jpg,stim/negf.jpg,stim/2.jpg,stim/6.jpg,stim/latef.jpg,CD,1,2,,,,,,,,,,,,,0,59,59,22,,,,,,2,1,1.26620410974,,,,,,PLC_L_D1S1,P33,60.0259237831,01,A,2015_Aug_21_1706,Y,
