fb_corr,fb_incorr,symbol2,symbol1,fb_late,pair,position,correct,block_01.thisRepN,block_01.thisTrialN,block_01.thisN,block_01.thisIndex,block_02.thisRepN,block_02.thisTrialN,block_02.thisN,block_02.thisIndex,block_03.thisRepN,block_03.thisTrialN,block_03.thisN,block_03.thisIndex,block_04.thisRepN,block_04.thisTrialN,block_04.thisN,block_04.thisIndex,mouse.x,mouse.y,mouse.leftButton,mouse.midButton,mouse.rightButton,buttonBox_2.keys,buttonBox_2.corr,buttonBox_2.rt,mouse_2.x,mouse_2.y,mouse_2.leftButton,mouse_2.midButton,mouse_2.rightButton,expName,Participant,frameRate,SessionNumber,Version,date,Group,
,,,,,,,,,,,,,,,,,,,,,,,,0.55,0.978515625,1,0,0,,,,,,,,,PLC_L_D1S1,P4,60.0225874582,01,A,2014_Dez_17_1654,Y,
stim/negf.jpg,stim/posf.jpg,stim/5.jpg,stim/1.jpg,stim/latef.jpg,CD,2,4,0,0,0,37,,,,,,,,,,,,,,,,,,4,1,0.71645120563,,,,,,PLC_L_D1S1,P4,60.0225874582,01,A,2014_Dez_17_1654,Y,
stim/posf.jpg,stim/negf.jpg,stim/4.jpg,stim/6.jpg,stim/latef.jpg,AB,2,4,0,1,1,13,,,,,,,,,,,,,,,,,,2,0,0.56648617379,,,,,,PLC_L_D1S1,P4,60.0225874582,01,A,2014_Dez_17_1654,Y,
stim/negf.jpg,stim/posf.jpg,stim/5.jpg,stim/1.jpg,stim/latef.jpg,CD,2,4,0,2,2,38,,,,,,,,,,,,,,,,,,2,0,0.533184207638,,,,,,PLC_L_D1S1,P4,60.0225874582,01,A,2014_Dez_17_1654,Y,
stim/posf.jpg,stim/negf.jpg,stim/1.jpg,stim/5.jpg,stim/latef.jpg,CD,1,2,0,3,3,24,,,,,,,,,,,,,,,,,,2,1,0.599773156595,,,,,,PLC_L_D1S1,P4,60.0225874582,01,A,2014_Dez_17_1654,Y,
stim/posf.jpg,stim/negf.jpg,stim/4.jpg,stim/6.jpg,stim/latef.jpg,AB,2,4,0,4,4,10,,,,,,,,,,,,,,,,,,4,1,0.533145221463,,,,,,PLC_L_D1S1,P4,60.0225874582,01,A,2014_Dez_17_1654,Y,
stim/posf.jpg,stim/negf.jpg,stim/6.jpg,stim/4.jpg,stim/latef.jpg,AB,1,2,0,5,5,4,,,,,,,,,,,,,,,,,,2,1,0.466497884976,,,,,,PLC_L_D1S1,P4,60.0225874582,01,A,2014_Dez_17_1654,Y,
stim/posf.jpg,stim/negf.jpg,stim/1.jpg,stim/5.jpg,stim/latef.jpg,CD,1,2,0,6,6,21,,,,,,,,,,,,,,,,,,4,0,0.599771989684,,,,,,PLC_L_D1S1,P4,60.0225874582,01,A,2014_Dez_17_1654,Y,
stim/posf.jpg,stim/negf.jpg,stim/3.jpg,stim/2.jpg,stim/latef.jpg,EF,1,2,0,7,7,41,,,,,,,,,,,,,,,,,,2,1,0.533173585161,,,,,,PLC_L_D1S1,P4,60.0225874582,01,A,2014_Dez_17_1654,Y,
stim/posf.jpg,stim/negf.jpg,stim/4.jpg,stim/6.jpg,stim/latef.jpg,AB,2,4,0,8,8,12,,,,,,,,,,,,,,,,,,4,1,0.533145663569,,,,,,PLC_L_D1S1,P4,60.0225874582,01,A,2014_Dez_17_1654,Y,
stim/negf.jpg,stim/posf.jpg,stim/3.jpg,stim/2.jpg,stim/latef.jpg,EF,1,2,0,9,9,49,,,,,,,,,,,,,,,,,,4,0,0.51646435741,,,,,,PLC_L_D1S1,P4,60.0225874582,01,A,2014_Dez_17_1654,Y,
stim/posf.jpg,stim/negf.jpg,stim/6.jpg,stim/4.jpg,stim/latef.jpg,AB,1,2,0,10,10,2,,,,,,,,,,,,,,,,,,2,1,0.516475076129,,,,,,PLC_L_D1S1,P4,60.0225874582,01,A,2014_Dez_17_1654,Y,
stim/posf.jpg,stim/negf.jpg,stim/4.jpg,stim/6.jpg,stim/latef.jpg,AB,2,4,0,11,11,11,,,,,,,,,,,,,,,,,,4,1,0.449860804056,,,,,,PLC_L_D1S1,P4,60.0225874582,01,A,2014_Dez_17_1654,Y,
stim/posf.jpg,stim/negf.jpg,stim/6.jpg,stim/4.jpg,stim/latef.jpg,AB,1,2,0,12,12,1,,,,,,,,,,,,,,,,,,2,1,0.499811580365,,,,,,PLC_L_D1S1,P4,60.0225874582,01,A,2014_Dez_17_1654,Y,
stim/negf.jpg,stim/posf.jpg,stim/1.jpg,stim/5.jpg,stim/latef.jpg,CD,1,2,0,13,13,29,,,,,,,,,,,,,,,,,,4,0,0.483101290971,,,,,,PLC_L_D1S1,P4,60.0225874582,01,A,2014_Dez_17_1654,Y,
stim/negf.jpg,stim/posf.jpg,stim/3.jpg,stim/2.jpg,stim/latef.jpg,EF,1,2,0,14,14,47,,,,,,,,,,,,,,,,,,4,0,0.449810437516,,,,,,PLC_L_D1S1,P4,60.0225874582,01,A,2014_Dez_17_1654,Y,
stim/posf.jpg,stim/negf.jpg,stim/3.jpg,stim/2.jpg,stim/latef.jpg,EF,1,2,0,15,15,40,,,,,,,,,,,,,,,,,,2,1,0.616525890782,,,,,,PLC_L_D1S1,P4,60.0225874582,01,A,2014_Dez_17_1654,Y,
stim/posf.jpg,stim/negf.jpg,stim/2.jpg,stim/3.jpg,stim/latef.jpg,EF,2,4,0,16,16,52,,,,,,,,,,,,,,,,,,2,0,0.583127943399,,,,,,PLC_L_D1S1,P4,60.0225874582,01,A,2014_Dez_17_1654,Y,
stim/negf.jpg,stim/posf.jpg,stim/4.jpg,stim/6.jpg,stim/latef.jpg,AB,2,4,0,17,17,18,,,,,,,,,,,,,,,,,,4,1,0.499843050802,,,,,,PLC_L_D1S1,P4,60.0225874582,01,A,2014_Dez_17_1654,Y,
stim/posf.jpg,stim/negf.jpg,stim/5.jpg,stim/1.jpg,stim/latef.jpg,CD,2,4,0,18,18,33,,,,,,,,,,,,,,,,,,2,0,0.516499524063,,,,,,PLC_L_D1S1,P4,60.0225874582,01,A,2014_Dez_17_1654,Y,
stim/posf.jpg,stim/negf.jpg,stim/6.jpg,stim/4.jpg,stim/latef.jpg,AB,1,2,0,19,19,3,,,,,,,,,,,,,,,,,,2,1,0.516495842887,,,,,,PLC_L_D1S1,P4,60.0225874582,01,A,2014_Dez_17_1654,Y,
stim/posf.jpg,stim/negf.jpg,stim/3.jpg,stim/2.jpg,stim/latef.jpg,EF,1,2,0,20,20,42,,,,,,,,,,,,,,,,,,4,0,0.43319268577,,,,,,PLC_L_D1S1,P4,60.0225874582,01,A,2014_Dez_17_1654,Y,
stim/posf.jpg,stim/negf.jpg,stim/1.jpg,stim/5.jpg,stim/latef.jpg,CD,1,2,0,21,21,26,,,,,,,,,,,,,,,,,,4,0,0.449816527696,,,,,,PLC_L_D1S1,P4,60.0225874582,01,A,2014_Dez_17_1654,Y,
stim/posf.jpg,stim/negf.jpg,stim/5.jpg,stim/1.jpg,stim/latef.jpg,CD,2,4,0,22,22,31,,,,,,,,,,,,,,,,,,4,1,0.466483530199,,,,,,PLC_L_D1S1,P4,60.0225874582,01,A,2014_Dez_17_1654,Y,
stim/posf.jpg,stim/negf.jpg,stim/6.jpg,stim/4.jpg,stim/latef.jpg,AB,1,2,0,23,23,5,,,,,,,,,,,,,,,,,,2,1,0.599796636117,,,,,,PLC_L_D1S1,P4,60.0225874582,01,A,2014_Dez_17_1654,Y,
stim/posf.jpg,stim/negf.jpg,stim/3.jpg,stim/2.jpg,stim/latef.jpg,EF,1,2,0,24,24,43,,,,,,,,,,,,,,,,,,4,0,0.549828262945,,,,,,PLC_L_D1S1,P4,60.0225874582,01,A,2014_Dez_17_1654,Y,
stim/posf.jpg,stim/negf.jpg,stim/1.jpg,stim/5.jpg,stim/latef.jpg,CD,1,2,0,25,25,20,,,,,,,,,,,,,,,,,,4,0,0.633118665271,,,,,,PLC_L_D1S1,P4,60.0225874582,01,A,2014_Dez_17_1654,Y,
stim/posf.jpg,stim/negf.jpg,stim/5.jpg,stim/1.jpg,stim/latef.jpg,CD,2,4,0,26,26,34,,,,,,,,,,,,,,,,,,2,0,0.533160788265,,,,,,PLC_L_D1S1,P4,60.0225874582,01,A,2014_Dez_17_1654,Y,
stim/negf.jpg,stim/posf.jpg,stim/2.jpg,stim/3.jpg,stim/latef.jpg,EF,2,4,0,27,27,56,,,,,,,,,,,,,,,,,,2,0,0.599721617131,,,,,,PLC_L_D1S1,P4,60.0225874582,01,A,2014_Dez_17_1654,Y,
stim/negf.jpg,stim/posf.jpg,stim/3.jpg,stim/2.jpg,stim/latef.jpg,EF,1,2,0,28,28,46,,,,,,,,,,,,,,,,,,4,0,0.433182321936,,,,,,PLC_L_D1S1,P4,60.0225874582,01,A,2014_Dez_17_1654,Y,
stim/posf.jpg,stim/negf.jpg,stim/6.jpg,stim/4.jpg,stim/latef.jpg,AB,1,2,0,29,29,0,,,,,,,,,,,,,,,,,,2,1,0.499817802873,,,,,,PLC_L_D1S1,P4,60.0225874582,01,A,2014_Dez_17_1654,Y,
stim/posf.jpg,stim/negf.jpg,stim/2.jpg,stim/3.jpg,stim/latef.jpg,EF,2,4,0,30,30,55,,,,,,,,,,,,,,,,,,2,0,0.666435834319,,,,,,PLC_L_D1S1,P4,60.0225874582,01,A,2014_Dez_17_1654,Y,
stim/posf.jpg,stim/negf.jpg,stim/5.jpg,stim/1.jpg,stim/latef.jpg,CD,2,4,0,31,31,30,,,,,,,,,,,,,,,,,,4,1,0.766415106656,,,,,,PLC_L_D1S1,P4,60.0225874582,01,A,2014_Dez_17_1654,Y,
stim/negf.jpg,stim/posf.jpg,stim/2.jpg,stim/3.jpg,stim/latef.jpg,EF,2,4,0,32,32,59,,,,,,,,,,,,,,,,,,2,0,0.533156162735,,,,,,PLC_L_D1S1,P4,60.0225874582,01,A,2014_Dez_17_1654,Y,
stim/negf.jpg,stim/posf.jpg,stim/1.jpg,stim/5.jpg,stim/latef.jpg,CD,1,2,0,33,33,27,,,,,,,,,,,,,,,,,,4,0,0.666482733213,,,,,,PLC_L_D1S1,P4,60.0225874582,01,A,2014_Dez_17_1654,Y,
stim/posf.jpg,stim/negf.jpg,stim/4.jpg,stim/6.jpg,stim/latef.jpg,AB,2,4,0,34,34,15,,,,,,,,,,,,,,,,,,2,0,0.583121050218,,,,,,PLC_L_D1S1,P4,60.0225874582,01,A,2014_Dez_17_1654,Y,
stim/posf.jpg,stim/negf.jpg,stim/5.jpg,stim/1.jpg,stim/latef.jpg,CD,2,4,0,35,35,32,,,,,,,,,,,,,,,,,,4,1,0.649770897962,,,,,,PLC_L_D1S1,P4,60.0225874582,01,A,2014_Dez_17_1654,Y,
stim/posf.jpg,stim/negf.jpg,stim/3.jpg,stim/2.jpg,stim/latef.jpg,EF,1,2,0,36,36,45,,,,,,,,,,,,,,,,,,4,0,0.516480384358,,,,,,PLC_L_D1S1,P4,60.0225874582,01,A,2014_Dez_17_1654,Y,
stim/posf.jpg,stim/negf.jpg,stim/5.jpg,stim/1.jpg,stim/latef.jpg,CD,2,4,0,37,37,36,,,,,,,,,,,,,,,,,,4,1,0.616432102015,,,,,,PLC_L_D1S1,P4,60.0225874582,01,A,2014_Dez_17_1654,Y,
stim/posf.jpg,stim/negf.jpg,stim/1.jpg,stim/5.jpg,stim/latef.jpg,CD,1,2,0,38,38,25,,,,,,,,,,,,,,,,,,2,1,0.599802536821,,,,,,PLC_L_D1S1,P4,60.0225874582,01,A,2014_Dez_17_1654,Y,
stim/posf.jpg,stim/negf.jpg,stim/2.jpg,stim/3.jpg,stim/latef.jpg,EF,2,4,0,39,39,50,,,,,,,,,,,,,,,,,,2,0,0.633115014174,,,,,,PLC_L_D1S1,P4,60.0225874582,01,A,2014_Dez_17_1654,Y,
stim/negf.jpg,stim/posf.jpg,stim/2.jpg,stim/3.jpg,stim/latef.jpg,EF,2,4,0,40,40,58,,,,,,,,,,,,,,,,,,2,0,0.466537692198,,,,,,PLC_L_D1S1,P4,60.0225874582,01,A,2014_Dez_17_1654,Y,
stim/negf.jpg,stim/posf.jpg,stim/2.jpg,stim/3.jpg,stim/latef.jpg,EF,2,4,0,41,41,57,,,,,,,,,,,,,,,,,,2,0,0.483171807733,,,,,,PLC_L_D1S1,P4,60.0225874582,01,A,2014_Dez_17_1654,Y,
stim/posf.jpg,stim/negf.jpg,stim/2.jpg,stim/3.jpg,stim/latef.jpg,EF,2,4,0,42,42,53,,,,,,,,,,,,,,,,,,2,0,0.566495271465,,,,,,PLC_L_D1S1,P4,60.0225874582,01,A,2014_Dez_17_1654,Y,
stim/posf.jpg,stim/negf.jpg,stim/1.jpg,stim/5.jpg,stim/latef.jpg,CD,1,2,0,43,43,23,,,,,,,,,,,,,,,,,,2,1,0.849703560125,,,,,,PLC_L_D1S1,P4,60.0225874582,01,A,2014_Dez_17_1654,Y,
stim/negf.jpg,stim/posf.jpg,stim/4.jpg,stim/6.jpg,stim/latef.jpg,AB,2,4,0,44,44,19,,,,,,,,,,,,,,,,,,4,1,0.61644201773,,,,,,PLC_L_D1S1,P4,60.0225874582,01,A,2014_Dez_17_1654,Y,
stim/posf.jpg,stim/negf.jpg,stim/5.jpg,stim/1.jpg,stim/latef.jpg,CD,2,4,0,45,45,35,,,,,,,,,,,,,,,,,,2,0,0.516483764783,,,,,,PLC_L_D1S1,P4,60.0225874582,01,A,2014_Dez_17_1654,Y,
stim/negf.jpg,stim/posf.jpg,stim/3.jpg,stim/2.jpg,stim/latef.jpg,EF,1,2,0,46,46,48,,,,,,,,,,,,,,,,,,4,0,0.583154216885,,,,,,PLC_L_D1S1,P4,60.0225874582,01,A,2014_Dez_17_1654,Y,
stim/negf.jpg,stim/posf.jpg,stim/1.jpg,stim/5.jpg,stim/latef.jpg,CD,1,2,0,47,47,28,,,,,,,,,,,,,,,,,,4,0,0.683152057503,,,,,,PLC_L_D1S1,P4,60.0225874582,01,A,2014_Dez_17_1654,Y,
stim/posf.jpg,stim/negf.jpg,stim/4.jpg,stim/6.jpg,stim/latef.jpg,AB,2,4,0,48,48,17,,,,,,,,,,,,,,,,,,4,1,0.583124358462,,,,,,PLC_L_D1S1,P4,60.0225874582,01,A,2014_Dez_17_1654,Y,
stim/posf.jpg,stim/negf.jpg,stim/6.jpg,stim/4.jpg,stim/latef.jpg,AB,1,2,0,49,49,6,,,,,,,,,,,,,,,,,,2,1,0.583119462262,,,,,,PLC_L_D1S1,P4,60.0225874582,01,A,2014_Dez_17_1654,Y,
stim/posf.jpg,stim/negf.jpg,stim/4.jpg,stim/6.jpg,stim/latef.jpg,AB,2,4,0,50,50,16,,,,,,,,,,,,,,,,,,4,1,0.533173994183,,,,,,PLC_L_D1S1,P4,60.0225874582,01,A,2014_Dez_17_1654,Y,
stim/posf.jpg,stim/negf.jpg,stim/2.jpg,stim/3.jpg,stim/latef.jpg,EF,2,4,0,51,51,54,,,,,,,,,,,,,,,,,,4,1,0.683084142223,,,,,,PLC_L_D1S1,P4,60.0225874582,01,A,2014_Dez_17_1654,Y,
stim/posf.jpg,stim/negf.jpg,stim/4.jpg,stim/6.jpg,stim/latef.jpg,AB,2,4,0,52,52,14,,,,,,,,,,,,,,,,,,4,1,0.616430414808,,,,,,PLC_L_D1S1,P4,60.0225874582,01,A,2014_Dez_17_1654,Y,
stim/negf.jpg,stim/posf.jpg,stim/6.jpg,stim/4.jpg,stim/latef.jpg,AB,1,2,0,53,53,8,,,,,,,,,,,,,,,,,,2,1,0.549809177377,,,,,,PLC_L_D1S1,P4,60.0225874582,01,A,2014_Dez_17_1654,Y,
stim/negf.jpg,stim/posf.jpg,stim/6.jpg,stim/4.jpg,stim/latef.jpg,AB,1,2,0,54,54,9,,,,,,,,,,,,,,,,,,2,1,0.56651928632,,,,,,PLC_L_D1S1,P4,60.0225874582,01,A,2014_Dez_17_1654,Y,
stim/posf.jpg,stim/negf.jpg,stim/3.jpg,stim/2.jpg,stim/latef.jpg,EF,1,2,0,55,55,44,,,,,,,,,,,,,,,,,,4,0,0.649839225269,,,,,,PLC_L_D1S1,P4,60.0225874582,01,A,2014_Dez_17_1654,Y,
stim/posf.jpg,stim/negf.jpg,stim/6.jpg,stim/4.jpg,stim/latef.jpg,AB,1,2,0,56,56,7,,,,,,,,,,,,,,,,,,2,1,0.533196896267,,,,,,PLC_L_D1S1,P4,60.0225874582,01,A,2014_Dez_17_1654,Y,
stim/posf.jpg,stim/negf.jpg,stim/2.jpg,stim/3.jpg,stim/latef.jpg,EF,2,4,0,57,57,51,,,,,,,,,,,,,,,,,,2,0,0.616489722634,,,,,,PLC_L_D1S1,P4,60.0225874582,01,A,2014_Dez_17_1654,Y,
stim/posf.jpg,stim/negf.jpg,stim/1.jpg,stim/5.jpg,stim/latef.jpg,CD,1,2,0,58,58,22,,,,,,,,,,,,,,,,,,4,0,0.499873375386,,,,,,PLC_L_D1S1,P4,60.0225874582,01,A,2014_Dez_17_1654,Y,
stim/negf.jpg,stim/posf.jpg,stim/5.jpg,stim/1.jpg,stim/latef.jpg,CD,2,4,0,59,59,39,,,,,,,,,,,,,,,,,,4,1,0.499840891422,,,,,,PLC_L_D1S1,P4,60.0225874582,01,A,2014_Dez_17_1654,Y,
,,,,,,,,,,,,,,,,,,,,,,,,,,,,,,,,0.9984375,1.0,1,0,0,PLC_L_D1S1,P4,60.0225874582,01,A,2014_Dez_17_1654,Y,
stim/posf.jpg,stim/negf.jpg,stim/1.jpg,stim/5.jpg,stim/latef.jpg,CD,1,2,,,,,0,0,0,23,,,,,,,,,,,,,,4,0,0.583090106087,,,,,,PLC_L_D1S1,P4,60.0225874582,01,A,2014_Dez_17_1654,Y,
stim/negf.jpg,stim/posf.jpg,stim/2.jpg,stim/3.jpg,stim/latef.jpg,EF,2,4,,,,,0,1,1,57,,,,,,,,,,,,,,2,0,0.549810266086,,,,,,PLC_L_D1S1,P4,60.0225874582,01,A,2014_Dez_17_1654,Y,
stim/posf.jpg,stim/negf.jpg,stim/2.jpg,stim/3.jpg,stim/latef.jpg,EF,2,4,,,,,0,2,2,55,,,,,,,,,,,,,,2,0,0.449845498908,,,,,,PLC_L_D1S1,P4,60.0225874582,01,A,2014_Dez_17_1654,Y,
stim/negf.jpg,stim/posf.jpg,stim/6.jpg,stim/4.jpg,stim/latef.jpg,AB,1,2,,,,,0,3,3,9,,,,,,,,,,,,,,2,1,0.583133898243,,,,,,PLC_L_D1S1,P4,60.0225874582,01,A,2014_Dez_17_1654,Y,
stim/posf.jpg,stim/negf.jpg,stim/4.jpg,stim/6.jpg,stim/latef.jpg,AB,2,4,,,,,0,4,4,11,,,,,,,,,,,,,,4,1,0.499821935173,,,,,,PLC_L_D1S1,P4,60.0225874582,01,A,2014_Dez_17_1654,Y,
stim/posf.jpg,stim/negf.jpg,stim/3.jpg,stim/2.jpg,stim/latef.jpg,EF,1,2,,,,,0,5,5,43,,,,,,,,,,,,,,2,1,0.616450601123,,,,,,PLC_L_D1S1,P4,60.0225874582,01,A,2014_Dez_17_1654,Y,
stim/posf.jpg,stim/negf.jpg,stim/4.jpg,stim/6.jpg,stim/latef.jpg,AB,2,4,,,,,0,6,6,17,,,,,,,,,,,,,,4,1,0.583145931232,,,,,,PLC_L_D1S1,P4,60.0225874582,01,A,2014_Dez_17_1654,Y,
stim/negf.jpg,stim/posf.jpg,stim/2.jpg,stim/3.jpg,stim/latef.jpg,EF,2,4,,,,,0,7,7,59,,,,,,,,,,,,,,2,0,0.549817060022,,,,,,PLC_L_D1S1,P4,60.0225874582,01,A,2014_Dez_17_1654,Y,
stim/posf.jpg,stim/negf.jpg,stim/1.jpg,stim/5.jpg,stim/latef.jpg,CD,1,2,,,,,0,8,8,26,,,,,,,,,,,,,,2,1,0.599802013516,,,,,,PLC_L_D1S1,P4,60.0225874582,01,A,2014_Dez_17_1654,Y,
stim/posf.jpg,stim/negf.jpg,stim/6.jpg,stim/4.jpg,stim/latef.jpg,AB,1,2,,,,,0,9,9,5,,,,,,,,,,,,,,2,1,0.516515875821,,,,,,PLC_L_D1S1,P4,60.0225874582,01,A,2014_Dez_17_1654,Y,
stim/posf.jpg,stim/negf.jpg,stim/5.jpg,stim/1.jpg,stim/latef.jpg,CD,2,4,,,,,0,10,10,34,,,,,,,,,,,,,,4,1,0.616477830994,,,,,,PLC_L_D1S1,P4,60.0225874582,01,A,2014_Dez_17_1654,Y,
stim/posf.jpg,stim/negf.jpg,stim/2.jpg,stim/3.jpg,stim/latef.jpg,EF,2,4,,,,,0,11,11,51,,,,,,,,,,,,,,4,1,0.583135711764,,,,,,PLC_L_D1S1,P4,60.0225874582,01,A,2014_Dez_17_1654,Y,
stim/negf.jpg,stim/posf.jpg,stim/5.jpg,stim/1.jpg,stim/latef.jpg,CD,2,4,,,,,0,12,12,37,,,,,,,,,,,,,,2,0,0.499879279101,,,,,,PLC_L_D1S1,P4,60.0225874582,01,A,2014_Dez_17_1654,Y,
stim/posf.jpg,stim/negf.jpg,stim/2.jpg,stim/3.jpg,stim/latef.jpg,EF,2,4,,,,,0,13,13,53,,,,,,,,,,,,,,4,1,0.649773685913,,,,,,PLC_L_D1S1,P4,60.0225874582,01,A,2014_Dez_17_1654,Y,
stim/posf.jpg,stim/negf.jpg,stim/5.jpg,stim/1.jpg,stim/latef.jpg,CD,2,4,,,,,0,14,14,31,,,,,,,,,,,,,,4,1,0.633070518266,,,,,,PLC_L_D1S1,P4,60.0225874582,01,A,2014_Dez_17_1654,Y,
stim/negf.jpg,stim/posf.jpg,stim/1.jpg,stim/5.jpg,stim/latef.jpg,CD,1,2,,,,,0,15,15,28,,,,,,,,,,,,,,2,1,0.583132262163,,,,,,PLC_L_D1S1,P4,60.0225874582,01,A,2014_Dez_17_1654,Y,
stim/posf.jpg,stim/negf.jpg,stim/4.jpg,stim/6.jpg,stim/latef.jpg,AB,2,4,,,,,0,16,16,13,,,,,,,,,,,,,,4,1,0.666444646282,,,,,,PLC_L_D1S1,P4,60.0225874582,01,A,2014_Dez_17_1654,Y,
stim/posf.jpg,stim/negf.jpg,stim/2.jpg,stim/3.jpg,stim/latef.jpg,EF,2,4,,,,,0,17,17,54,,,,,,,,,,,,,,4,1,0.683107832272,,,,,,PLC_L_D1S1,P4,60.0225874582,01,A,2014_Dez_17_1654,Y,
stim/posf.jpg,stim/negf.jpg,stim/6.jpg,stim/4.jpg,stim/latef.jpg,AB,1,2,,,,,0,18,18,6,,,,,,,,,,,,,,2,1,0.533116111907,,,,,,PLC_L_D1S1,P4,60.0225874582,01,A,2014_Dez_17_1654,Y,
stim/posf.jpg,stim/negf.jpg,stim/1.jpg,stim/5.jpg,stim/latef.jpg,CD,1,2,,,,,0,19,19,25,,,,,,,,,,,,,,4,0,0.583128809558,,,,,,PLC_L_D1S1,P4,60.0225874582,01,A,2014_Dez_17_1654,Y,
stim/posf.jpg,stim/negf.jpg,stim/6.jpg,stim/4.jpg,stim/latef.jpg,AB,1,2,,,,,0,20,20,2,,,,,,,,,,,,,,2,1,0.516547890616,,,,,,PLC_L_D1S1,P4,60.0225874582,01,A,2014_Dez_17_1654,Y,
stim/posf.jpg,stim/negf.jpg,stim/1.jpg,stim/5.jpg,stim/latef.jpg,CD,1,2,,,,,0,21,21,21,,,,,,,,,,,,,,4,0,0.533136472659,,,,,,PLC_L_D1S1,P4,60.0225874582,01,A,2014_Dez_17_1654,Y,
stim/posf.jpg,stim/negf.jpg,stim/6.jpg,stim/4.jpg,stim/latef.jpg,AB,1,2,,,,,0,22,22,0,,,,,,,,,,,,,,2,1,0.483165010788,,,,,,PLC_L_D1S1,P4,60.0225874582,01,A,2014_Dez_17_1654,Y,
stim/posf.jpg,stim/negf.jpg,stim/1.jpg,stim/5.jpg,stim/latef.jpg,CD,1,2,,,,,0,23,23,20,,,,,,,,,,,,,,2,1,0.399897471449,,,,,,PLC_L_D1S1,P4,60.0225874582,01,A,2014_Dez_17_1654,Y,
stim/posf.jpg,stim/negf.jpg,stim/4.jpg,stim/6.jpg,stim/latef.jpg,AB,2,4,,,,,0,24,24,16,,,,,,,,,,,,,,4,1,0.666484170793,,,,,,PLC_L_D1S1,P4,60.0225874582,01,A,2014_Dez_17_1654,Y,
stim/posf.jpg,stim/negf.jpg,stim/6.jpg,stim/4.jpg,stim/latef.jpg,AB,1,2,,,,,0,25,25,3,,,,,,,,,,,,,,2,1,0.449806374389,,,,,,PLC_L_D1S1,P4,60.0225874582,01,A,2014_Dez_17_1654,Y,
stim/posf.jpg,stim/negf.jpg,stim/6.jpg,stim/4.jpg,stim/latef.jpg,AB,1,2,,,,,0,26,26,4,,,,,,,,,,,,,,2,1,0.566461725852,,,,,,PLC_L_D1S1,P4,60.0225874582,01,A,2014_Dez_17_1654,Y,
stim/negf.jpg,stim/posf.jpg,stim/3.jpg,stim/2.jpg,stim/latef.jpg,EF,1,2,,,,,0,27,27,48,,,,,,,,,,,,,,4,0,0.58313617191,,,,,,PLC_L_D1S1,P4,60.0225874582,01,A,2014_Dez_17_1654,Y,
stim/negf.jpg,stim/posf.jpg,stim/6.jpg,stim/4.jpg,stim/latef.jpg,AB,1,2,,,,,0,28,28,8,,,,,,,,,,,,,,2,1,0.59980026917,,,,,,PLC_L_D1S1,P4,60.0225874582,01,A,2014_Dez_17_1654,Y,
stim/posf.jpg,stim/negf.jpg,stim/5.jpg,stim/1.jpg,stim/latef.jpg,CD,2,4,,,,,0,29,29,35,,,,,,,,,,,,,,4,1,0.499829053915,,,,,,PLC_L_D1S1,P4,60.0225874582,01,A,2014_Dez_17_1654,Y,
stim/posf.jpg,stim/negf.jpg,stim/5.jpg,stim/1.jpg,stim/latef.jpg,CD,2,4,,,,,0,30,30,30,,,,,,,,,,,,,,2,0,0.499849074818,,,,,,PLC_L_D1S1,P4,60.0225874582,01,A,2014_Dez_17_1654,Y,
stim/posf.jpg,stim/negf.jpg,stim/6.jpg,stim/4.jpg,stim/latef.jpg,AB,1,2,,,,,0,31,31,1,,,,,,,,,,,,,,2,1,0.499836307998,,,,,,PLC_L_D1S1,P4,60.0225874582,01,A,2014_Dez_17_1654,Y,
stim/posf.jpg,stim/negf.jpg,stim/3.jpg,stim/2.jpg,stim/latef.jpg,EF,1,2,,,,,0,32,32,40,,,,,,,,,,,,,,4,0,0.566431981715,,,,,,PLC_L_D1S1,P4,60.0225874582,01,A,2014_Dez_17_1654,Y,
stim/posf.jpg,stim/negf.jpg,stim/1.jpg,stim/5.jpg,stim/latef.jpg,CD,1,2,,,,,0,33,33,24,,,,,,,,,,,,,,2,1,0.766417019422,,,,,,PLC_L_D1S1,P4,60.0225874582,01,A,2014_Dez_17_1654,Y,
stim/posf.jpg,stim/negf.jpg,stim/4.jpg,stim/6.jpg,stim/latef.jpg,AB,2,4,,,,,0,34,34,10,,,,,,,,,,,,,,4,1,0.849759505571,,,,,,PLC_L_D1S1,P4,60.0225874582,01,A,2014_Dez_17_1654,Y,
stim/posf.jpg,stim/negf.jpg,stim/3.jpg,stim/2.jpg,stim/latef.jpg,EF,1,2,,,,,0,35,35,41,,,,,,,,,,,,,,4,0,0.58310243081,,,,,,PLC_L_D1S1,P4,60.0225874582,01,A,2014_Dez_17_1654,Y,
stim/negf.jpg,stim/posf.jpg,stim/2.jpg,stim/3.jpg,stim/latef.jpg,EF,2,4,,,,,0,36,36,56,,,,,,,,,,,,,,4,1,0.916374703953,,,,,,PLC_L_D1S1,P4,60.0225874582,01,A,2014_Dez_17_1654,Y,
stim/posf.jpg,stim/negf.jpg,stim/3.jpg,stim/2.jpg,stim/latef.jpg,EF,1,2,,,,,0,37,37,44,,,,,,,,,,,,,,2,1,0.666452655245,,,,,,PLC_L_D1S1,P4,60.0225874582,01,A,2014_Dez_17_1654,Y,
stim/posf.jpg,stim/negf.jpg,stim/1.jpg,stim/5.jpg,stim/latef.jpg,CD,1,2,,,,,0,38,38,22,,,,,,,,,,,,,,2,1,0.816404189442,,,,,,PLC_L_D1S1,P4,60.0225874582,01,A,2014_Dez_17_1654,Y,
stim/negf.jpg,stim/posf.jpg,stim/1.jpg,stim/5.jpg,stim/latef.jpg,CD,1,2,,,,,0,39,39,29,,,,,,,,,,,,,,2,1,0.699703860872,,,,,,PLC_L_D1S1,P4,60.0225874582,01,A,2014_Dez_17_1654,Y,
stim/negf.jpg,stim/posf.jpg,stim/3.jpg,stim/2.jpg,stim/latef.jpg,EF,1,2,,,,,0,40,40,46,,,,,,,,,,,,,,2,1,0.73305553793,,,,,,PLC_L_D1S1,P4,60.0225874582,01,A,2014_Dez_17_1654,Y,
stim/negf.jpg,stim/posf.jpg,stim/1.jpg,stim/5.jpg,stim/latef.jpg,CD,1,2,,,,,0,41,41,27,,,,,,,,,,,,,,2,1,0.666461617584,,,,,,PLC_L_D1S1,P4,60.0225874582,01,A,2014_Dez_17_1654,Y,
stim/posf.jpg,stim/negf.jpg,stim/4.jpg,stim/6.jpg,stim/latef.jpg,AB,2,4,,,,,0,42,42,15,,,,,,,,,,,,,,4,1,0.599694357188,,,,,,PLC_L_D1S1,P4,60.0225874582,01,A,2014_Dez_17_1654,Y,
stim/negf.jpg,stim/posf.jpg,stim/2.jpg,stim/3.jpg,stim/latef.jpg,EF,2,4,,,,,0,43,43,58,,,,,,,,,,,,,,2,0,0.649766458901,,,,,,PLC_L_D1S1,P4,60.0225874582,01,A,2014_Dez_17_1654,Y,
stim/negf.jpg,stim/posf.jpg,stim/3.jpg,stim/2.jpg,stim/latef.jpg,EF,1,2,,,,,0,44,44,49,,,,,,,,,,,,,,2,1,0.616414884098,,,,,,PLC_L_D1S1,P4,60.0225874582,01,A,2014_Dez_17_1654,Y,
stim/posf.jpg,stim/negf.jpg,stim/4.jpg,stim/6.jpg,stim/latef.jpg,AB,2,4,,,,,0,45,45,12,,,,,,,,,,,,,,4,1,0.549820079548,,,,,,PLC_L_D1S1,P4,60.0225874582,01,A,2014_Dez_17_1654,Y,
stim/posf.jpg,stim/negf.jpg,stim/2.jpg,stim/3.jpg,stim/latef.jpg,EF,2,4,,,,,0,46,46,50,,,,,,,,,,,,,,2,0,0.549855492816,,,,,,PLC_L_D1S1,P4,60.0225874582,01,A,2014_Dez_17_1654,Y,
stim/posf.jpg,stim/negf.jpg,stim/2.jpg,stim/3.jpg,stim/latef.jpg,EF,2,4,,,,,0,47,47,52,,,,,,,,,,,,,,2,0,1.16629693611,,,,,,PLC_L_D1S1,P4,60.0225874582,01,A,2014_Dez_17_1654,Y,
stim/posf.jpg,stim/negf.jpg,stim/5.jpg,stim/1.jpg,stim/latef.jpg,CD,2,4,,,,,0,48,48,33,,,,,,,,,,,,,,4,1,0.799747785353,,,,,,PLC_L_D1S1,P4,60.0225874582,01,A,2014_Dez_17_1654,Y,
stim/posf.jpg,stim/negf.jpg,stim/5.jpg,stim/1.jpg,stim/latef.jpg,CD,2,4,,,,,0,49,49,32,,,,,,,,,,,,,,4,1,0.683044238765,,,,,,PLC_L_D1S1,P4,60.0225874582,01,A,2014_Dez_17_1654,Y,
stim/negf.jpg,stim/posf.jpg,stim/5.jpg,stim/1.jpg,stim/latef.jpg,CD,2,4,,,,,0,50,50,38,,,,,,,,,,,,,,4,1,0.499829607295,,,,,,PLC_L_D1S1,P4,60.0225874582,01,A,2014_Dez_17_1654,Y,
stim/negf.jpg,stim/posf.jpg,stim/4.jpg,stim/6.jpg,stim/latef.jpg,AB,2,4,,,,,0,51,51,19,,,,,,,,,,,,,,4,1,1.18294495229,,,,,,PLC_L_D1S1,P4,60.0225874582,01,A,2014_Dez_17_1654,Y,
stim/posf.jpg,stim/negf.jpg,stim/4.jpg,stim/6.jpg,stim/latef.jpg,AB,2,4,,,,,0,52,52,14,,,,,,,,,,,,,,4,1,0.566564720564,,,,,,PLC_L_D1S1,P4,60.0225874582,01,A,2014_Dez_17_1654,Y,
stim/posf.jpg,stim/negf.jpg,stim/3.jpg,stim/2.jpg,stim/latef.jpg,EF,1,2,,,,,0,53,53,42,,,,,,,,,,,,,,4,0,0.583126072739,,,,,,PLC_L_D1S1,P4,60.0225874582,01,A,2014_Dez_17_1654,Y,
stim/posf.jpg,stim/negf.jpg,stim/6.jpg,stim/4.jpg,stim/latef.jpg,AB,1,2,,,,,0,54,54,7,,,,,,,,,,,,,,4,0,0.533167344609,,,,,,PLC_L_D1S1,P4,60.0225874582,01,A,2014_Dez_17_1654,Y,
stim/negf.jpg,stim/posf.jpg,stim/5.jpg,stim/1.jpg,stim/latef.jpg,CD,2,4,,,,,0,55,55,39,,,,,,,,,,,,,,4,1,0.516540441051,,,,,,PLC_L_D1S1,P4,60.0225874582,01,A,2014_Dez_17_1654,Y,
stim/posf.jpg,stim/negf.jpg,stim/3.jpg,stim/2.jpg,stim/latef.jpg,EF,1,2,,,,,0,56,56,45,,,,,,,,,,,,,,4,0,0.583148174825,,,,,,PLC_L_D1S1,P4,60.0225874582,01,A,2014_Dez_17_1654,Y,
stim/negf.jpg,stim/posf.jpg,stim/4.jpg,stim/6.jpg,stim/latef.jpg,AB,2,4,,,,,0,57,57,18,,,,,,,,,,,,,,4,1,0.516500107518,,,,,,PLC_L_D1S1,P4,60.0225874582,01,A,2014_Dez_17_1654,Y,
stim/negf.jpg,stim/posf.jpg,stim/3.jpg,stim/2.jpg,stim/latef.jpg,EF,1,2,,,,,0,58,58,47,,,,,,,,,,,,,,4,0,0.533149708648,,,,,,PLC_L_D1S1,P4,60.0225874582,01,A,2014_Dez_17_1654,Y,
stim/posf.jpg,stim/negf.jpg,stim/5.jpg,stim/1.jpg,stim/latef.jpg,CD,2,4,,,,,0,59,59,36,,,,,,,,,,,,,,4,1,0.43318337456,,,,,,PLC_L_D1S1,P4,60.0225874582,01,A,2014_Dez_17_1654,Y,
,,,,,,,,,,,,,,,,,,,,,,,,,,,,,,,,0.9984375,0.984375,1,0,0,PLC_L_D1S1,P4,60.0225874582,01,A,2014_Dez_17_1654,Y,
stim/negf.jpg,stim/posf.jpg,stim/5.jpg,stim/1.jpg,stim/latef.jpg,CD,2,4,,,,,,,,,0,0,0,38,,,,,,,,,,4,1,0.599778329484,,,,,,PLC_L_D1S1,P4,60.0225874582,01,A,2014_Dez_17_1654,Y,
stim/negf.jpg,stim/posf.jpg,stim/3.jpg,stim/2.jpg,stim/latef.jpg,EF,1,2,,,,,,,,,0,1,1,49,,,,,,,,,,4,0,0.533188827154,,,,,,PLC_L_D1S1,P4,60.0225874582,01,A,2014_Dez_17_1654,Y,
stim/posf.jpg,stim/negf.jpg,stim/3.jpg,stim/2.jpg,stim/latef.jpg,EF,1,2,,,,,,,,,0,2,2,42,,,,,,,,,,4,0,0.433178983614,,,,,,PLC_L_D1S1,P4,60.0225874582,01,A,2014_Dez_17_1654,Y,
stim/posf.jpg,stim/negf.jpg,stim/5.jpg,stim/1.jpg,stim/latef.jpg,CD,2,4,,,,,,,,,0,3,3,32,,,,,,,,,,4,1,0.716432132089,,,,,,PLC_L_D1S1,P4,60.0225874582,01,A,2014_Dez_17_1654,Y,
stim/posf.jpg,stim/negf.jpg,stim/5.jpg,stim/1.jpg,stim/latef.jpg,CD,2,4,,,,,,,,,0,4,4,33,,,,,,,,,,2,0,0.466499752634,,,,,,PLC_L_D1S1,P4,60.0225874582,01,A,2014_Dez_17_1654,Y,
stim/posf.jpg,stim/negf.jpg,stim/6.jpg,stim/4.jpg,stim/latef.jpg,AB,1,2,,,,,,,,,0,5,5,7,,,,,,,,,,2,1,0.533093095542,,,,,,PLC_L_D1S1,P4,60.0225874582,01,A,2014_Dez_17_1654,Y,
stim/posf.jpg,stim/negf.jpg,stim/2.jpg,stim/3.jpg,stim/latef.jpg,EF,2,4,,,,,,,,,0,6,6,52,,,,,,,,,,2,0,0.499820485558,,,,,,PLC_L_D1S1,P4,60.0225874582,01,A,2014_Dez_17_1654,Y,
stim/negf.jpg,stim/posf.jpg,stim/4.jpg,stim/6.jpg,stim/latef.jpg,AB,2,4,,,,,,,,,0,7,7,18,,,,,,,,,,4,1,0.699730389995,,,,,,PLC_L_D1S1,P4,60.0225874582,01,A,2014_Dez_17_1654,Y,
stim/negf.jpg,stim/posf.jpg,stim/1.jpg,stim/5.jpg,stim/latef.jpg,CD,1,2,,,,,,,,,0,8,8,28,,,,,,,,,,2,1,0.683090136165,,,,,,PLC_L_D1S1,P4,60.0225874582,01,A,2014_Dez_17_1654,Y,
stim/negf.jpg,stim/posf.jpg,stim/5.jpg,stim/1.jpg,stim/latef.jpg,CD,2,4,,,,,,,,,0,9,9,39,,,,,,,,,,4,1,0.549810741271,,,,,,PLC_L_D1S1,P4,60.0225874582,01,A,2014_Dez_17_1654,Y,
stim/posf.jpg,stim/negf.jpg,stim/1.jpg,stim/5.jpg,stim/latef.jpg,CD,1,2,,,,,,,,,0,10,10,22,,,,,,,,,,2,1,0.633125456199,,,,,,PLC_L_D1S1,P4,60.0225874582,01,A,2014_Dez_17_1654,Y,
stim/negf.jpg,stim/posf.jpg,stim/6.jpg,stim/4.jpg,stim/latef.jpg,AB,1,2,,,,,,,,,0,11,11,8,,,,,,,,,,2,1,0.583145209435,,,,,,PLC_L_D1S1,P4,60.0225874582,01,A,2014_Dez_17_1654,Y,
stim/negf.jpg,stim/posf.jpg,stim/2.jpg,stim/3.jpg,stim/latef.jpg,EF,2,4,,,,,,,,,0,12,12,56,,,,,,,,,,4,1,0.683043189147,,,,,,PLC_L_D1S1,P4,60.0225874582,01,A,2014_Dez_17_1654,Y,
stim/posf.jpg,stim/negf.jpg,stim/3.jpg,stim/2.jpg,stim/latef.jpg,EF,1,2,,,,,,,,,0,13,13,43,,,,,,,,,,4,0,0.583127257691,,,,,,PLC_L_D1S1,P4,60.0225874582,01,A,2014_Dez_17_1654,Y,
stim/posf.jpg,stim/negf.jpg,stim/3.jpg,stim/2.jpg,stim/latef.jpg,EF,1,2,,,,,,,,,0,14,14,45,,,,,,,,,,4,0,0.499790539921,,,,,,PLC_L_D1S1,P4,60.0225874582,01,A,2014_Dez_17_1654,Y,
stim/posf.jpg,stim/negf.jpg,stim/2.jpg,stim/3.jpg,stim/latef.jpg,EF,2,4,,,,,,,,,0,15,15,50,,,,,,,,,,2,0,0.849637229796,,,,,,PLC_L_D1S1,P4,60.0225874582,01,A,2014_Dez_17_1654,Y,
stim/posf.jpg,stim/negf.jpg,stim/4.jpg,stim/6.jpg,stim/latef.jpg,AB,2,4,,,,,,,,,0,16,16,10,,,,,,,,,,4,1,0.549815420934,,,,,,PLC_L_D1S1,P4,60.0225874582,01,A,2014_Dez_17_1654,Y,
stim/posf.jpg,stim/negf.jpg,stim/3.jpg,stim/2.jpg,stim/latef.jpg,EF,1,2,,,,,,,,,0,17,17,40,,,,,,,,,,2,1,0.699772146076,,,,,,PLC_L_D1S1,P4,60.0225874582,01,A,2014_Dez_17_1654,Y,
stim/posf.jpg,stim/negf.jpg,stim/2.jpg,stim/3.jpg,stim/latef.jpg,EF,2,4,,,,,,,,,0,18,18,54,,,,,,,,,,2,0,0.433198941359,,,,,,PLC_L_D1S1,P4,60.0225874582,01,A,2014_Dez_17_1654,Y,
stim/posf.jpg,stim/negf.jpg,stim/6.jpg,stim/4.jpg,stim/latef.jpg,AB,1,2,,,,,,,,,0,19,19,1,,,,,,,,,,2,1,0.549845225225,,,,,,PLC_L_D1S1,P4,60.0225874582,01,A,2014_Dez_17_1654,Y,
stim/posf.jpg,stim/negf.jpg,stim/1.jpg,stim/5.jpg,stim/latef.jpg,CD,1,2,,,,,,,,,0,20,20,26,,,,,,,,,,4,0,0.566468044603,,,,,,PLC_L_D1S1,P4,60.0225874582,01,A,2014_Dez_17_1654,Y,
stim/posf.jpg,stim/negf.jpg,stim/6.jpg,stim/4.jpg,stim/latef.jpg,AB,1,2,,,,,,,,,0,21,21,5,,,,,,,,,,2,1,0.616468970908,,,,,,PLC_L_D1S1,P4,60.0225874582,01,A,2014_Dez_17_1654,Y,
stim/posf.jpg,stim/negf.jpg,stim/5.jpg,stim/1.jpg,stim/latef.jpg,CD,2,4,,,,,,,,,0,22,22,34,,,,,,,,,,4,1,0.699756335667,,,,,,PLC_L_D1S1,P4,60.0225874582,01,A,2014_Dez_17_1654,Y,
stim/posf.jpg,stim/negf.jpg,stim/1.jpg,stim/5.jpg,stim/latef.jpg,CD,1,2,,,,,,,,,0,23,23,20,,,,,,,,,,2,1,0.799760131125,,,,,,PLC_L_D1S1,P4,60.0225874582,01,A,2014_Dez_17_1654,Y,
stim/posf.jpg,stim/negf.jpg,stim/4.jpg,stim/6.jpg,stim/latef.jpg,AB,2,4,,,,,,,,,0,24,24,14,,,,,,,,,,4,1,0.633131528335,,,,,,PLC_L_D1S1,P4,60.0225874582,01,A,2014_Dez_17_1654,Y,
stim/posf.jpg,stim/negf.jpg,stim/2.jpg,stim/3.jpg,stim/latef.jpg,EF,2,4,,,,,,,,,0,25,25,53,,,,,,,,,,4,1,0.633102854867,,,,,,PLC_L_D1S1,P4,60.0225874582,01,A,2014_Dez_17_1654,Y,
stim/posf.jpg,stim/negf.jpg,stim/1.jpg,stim/5.jpg,stim/latef.jpg,CD,1,2,,,,,,,,,0,26,26,23,,,,,,,,,,2,1,0.749717253253,,,,,,PLC_L_D1S1,P4,60.0225874582,01,A,2014_Dez_17_1654,Y,
stim/posf.jpg,stim/negf.jpg,stim/4.jpg,stim/6.jpg,stim/latef.jpg,AB,2,4,,,,,,,,,0,27,27,15,,,,,,,,,,4,1,0.56646031233,,,,,,PLC_L_D1S1,P4,60.0225874582,01,A,2014_Dez_17_1654,Y,
stim/negf.jpg,stim/posf.jpg,stim/2.jpg,stim/3.jpg,stim/latef.jpg,EF,2,4,,,,,,,,,0,28,28,58,,,,,,,,,,4,1,0.566461304803,,,,,,PLC_L_D1S1,P4,60.0225874582,01,A,2014_Dez_17_1654,Y,
stim/posf.jpg,stim/negf.jpg,stim/6.jpg,stim/4.jpg,stim/latef.jpg,AB,1,2,,,,,,,,,0,29,29,3,,,,,,,,,,2,1,0.583103763129,,,,,,PLC_L_D1S1,P4,60.0225874582,01,A,2014_Dez_17_1654,Y,
stim/posf.jpg,stim/negf.jpg,stim/3.jpg,stim/2.jpg,stim/latef.jpg,EF,1,2,,,,,,,,,0,30,30,41,,,,,,,,,,2,1,0.599790777513,,,,,,PLC_L_D1S1,P4,60.0225874582,01,A,2014_Dez_17_1654,Y,
stim/negf.jpg,stim/posf.jpg,stim/4.jpg,stim/6.jpg,stim/latef.jpg,AB,2,4,,,,,,,,,0,31,31,19,,,,,,,,,,4,1,0.799732002015,,,,,,PLC_L_D1S1,P4,60.0225874582,01,A,2014_Dez_17_1654,Y,
stim/posf.jpg,stim/negf.jpg,stim/1.jpg,stim/5.jpg,stim/latef.jpg,CD,1,2,,,,,,,,,0,32,32,21,,,,,,,,,,2,1,0.749764143126,,,,,,PLC_L_D1S1,P4,60.0225874582,01,A,2014_Dez_17_1654,Y,
stim/negf.jpg,stim/posf.jpg,stim/1.jpg,stim/5.jpg,stim/latef.jpg,CD,1,2,,,,,,,,,0,33,33,27,,,,,,,,,,2,1,0.683041965098,,,,,,PLC_L_D1S1,P4,60.0225874582,01,A,2014_Dez_17_1654,Y,
stim/posf.jpg,stim/negf.jpg,stim/4.jpg,stim/6.jpg,stim/latef.jpg,AB,2,4,,,,,,,,,0,34,34,11,,,,,,,,,,4,1,0.59980585409,,,,,,PLC_L_D1S1,P4,60.0225874582,01,A,2014_Dez_17_1654,Y,
stim/posf.jpg,stim/negf.jpg,stim/1.jpg,stim/5.jpg,stim/latef.jpg,CD,1,2,,,,,,,,,0,35,35,25,,,,,,,,,,2,1,0.533154755227,,,,,,PLC_L_D1S1,P4,60.0225874582,01,A,2014_Dez_17_1654,Y,
stim/posf.jpg,stim/negf.jpg,stim/5.jpg,stim/1.jpg,stim/latef.jpg,CD,2,4,,,,,,,,,0,36,36,35,,,,,,,,,,4,1,0.68305196803,,,,,,PLC_L_D1S1,P4,60.0225874582,01,A,2014_Dez_17_1654,Y,
stim/posf.jpg,stim/negf.jpg,stim/2.jpg,stim/3.jpg,stim/latef.jpg,EF,2,4,,,,,,,,,0,37,37,55,,,,,,,,,,4,1,0.483212781859,,,,,,PLC_L_D1S1,P4,60.0225874582,01,A,2014_Dez_17_1654,Y,
stim/posf.jpg,stim/negf.jpg,stim/4.jpg,stim/6.jpg,stim/latef.jpg,AB,2,4,,,,,,,,,0,38,38,13,,,,,,,,,,4,1,0.616488558731,,,,,,PLC_L_D1S1,P4,60.0225874582,01,A,2014_Dez_17_1654,Y,
stim/posf.jpg,stim/negf.jpg,stim/1.jpg,stim/5.jpg,stim/latef.jpg,CD,1,2,,,,,,,,,0,39,39,24,,,,,,,,,,2,1,0.549815872058,,,,,,PLC_L_D1S1,P4,60.0225874582,01,A,2014_Dez_17_1654,Y,
stim/negf.jpg,stim/posf.jpg,stim/3.jpg,stim/2.jpg,stim/latef.jpg,EF,1,2,,,,,,,,,0,40,40,46,,,,,,,,,,2,1,0.666402772913,,,,,,PLC_L_D1S1,P4,60.0225874582,01,A,2014_Dez_17_1654,Y,
stim/posf.jpg,stim/negf.jpg,stim/5.jpg,stim/1.jpg,stim/latef.jpg,CD,2,4,,,,,,,,,0,41,41,36,,,,,,,,,,4,1,0.54982676822,,,,,,PLC_L_D1S1,P4,60.0225874582,01,A,2014_Dez_17_1654,Y,
stim/posf.jpg,stim/negf.jpg,stim/2.jpg,stim/3.jpg,stim/latef.jpg,EF,2,4,,,,,,,,,0,42,42,51,,,,,,,,,,4,1,0.566469259629,,,,,,PLC_L_D1S1,P4,60.0225874582,01,A,2014_Dez_17_1654,Y,
stim/posf.jpg,stim/negf.jpg,stim/4.jpg,stim/6.jpg,stim/latef.jpg,AB,2,4,,,,,,,,,0,43,43,12,,,,,,,,,,4,1,0.549886710625,,,,,,PLC_L_D1S1,P4,60.0225874582,01,A,2014_Dez_17_1654,Y,
stim/posf.jpg,stim/negf.jpg,stim/5.jpg,stim/1.jpg,stim/latef.jpg,CD,2,4,,,,,,,,,0,44,44,31,,,,,,,,,,4,1,0.533157416863,,,,,,PLC_L_D1S1,P4,60.0225874582,01,A,2014_Dez_17_1654,Y,
stim/negf.jpg,stim/posf.jpg,stim/2.jpg,stim/3.jpg,stim/latef.jpg,EF,2,4,,,,,,,,,0,45,45,59,,,,,,,,,,4,1,0.533169500981,,,,,,PLC_L_D1S1,P4,60.0225874582,01,A,2014_Dez_17_1654,Y,
stim/posf.jpg,stim/negf.jpg,stim/6.jpg,stim/4.jpg,stim/latef.jpg,AB,1,2,,,,,,,,,0,46,46,0,,,,,,,,,,2,1,0.599819279552,,,,,,PLC_L_D1S1,P4,60.0225874582,01,A,2014_Dez_17_1654,Y,
stim/posf.jpg,stim/negf.jpg,stim/4.jpg,stim/6.jpg,stim/latef.jpg,AB,2,4,,,,,,,,,0,47,47,16,,,,,,,,,,4,1,0.832997478214,,,,,,PLC_L_D1S1,P4,60.0225874582,01,A,2014_Dez_17_1654,Y,
stim/posf.jpg,stim/negf.jpg,stim/3.jpg,stim/2.jpg,stim/latef.jpg,EF,1,2,,,,,,,,,0,48,48,44,,,,,,,,,,2,1,0.633090457966,,,,,,PLC_L_D1S1,P4,60.0225874582,01,A,2014_Dez_17_1654,Y,
stim/negf.jpg,stim/posf.jpg,stim/1.jpg,stim/5.jpg,stim/latef.jpg,CD,1,2,,,,,,,,,0,49,49,29,,,,,,,,,,2,1,0.633108996171,,,,,,PLC_L_D1S1,P4,60.0225874582,01,A,2014_Dez_17_1654,Y,
stim/posf.jpg,stim/negf.jpg,stim/5.jpg,stim/1.jpg,stim/latef.jpg,CD,2,4,,,,,,,,,0,50,50,30,,,,,,,,,,4,1,0.733080033984,,,,,,PLC_L_D1S1,P4,60.0225874582,01,A,2014_Dez_17_1654,Y,
stim/negf.jpg,stim/posf.jpg,stim/5.jpg,stim/1.jpg,stim/latef.jpg,CD,2,4,,,,,,,,,0,51,51,37,,,,,,,,,,4,1,0.516443019227,,,,,,PLC_L_D1S1,P4,60.0225874582,01,A,2014_Dez_17_1654,Y,
stim/posf.jpg,stim/negf.jpg,stim/6.jpg,stim/4.jpg,stim/latef.jpg,AB,1,2,,,,,,,,,0,52,52,4,,,,,,,,,,2,1,0.566538615498,,,,,,PLC_L_D1S1,P4,60.0225874582,01,A,2014_Dez_17_1654,Y,
stim/posf.jpg,stim/negf.jpg,stim/6.jpg,stim/4.jpg,stim/latef.jpg,AB,1,2,,,,,,,,,0,53,53,2,,,,,,,,,,2,1,0.699775613717,,,,,,PLC_L_D1S1,P4,60.0225874582,01,A,2014_Dez_17_1654,Y,
stim/posf.jpg,stim/negf.jpg,stim/6.jpg,stim/4.jpg,stim/latef.jpg,AB,1,2,,,,,,,,,0,54,54,6,,,,,,,,,,2,1,0.533132078705,,,,,,PLC_L_D1S1,P4,60.0225874582,01,A,2014_Dez_17_1654,Y,
stim/negf.jpg,stim/posf.jpg,stim/2.jpg,stim/3.jpg,stim/latef.jpg,EF,2,4,,,,,,,,,0,55,55,57,,,,,,,,,,4,1,0.683130583981,,,,,,PLC_L_D1S1,P4,60.0225874582,01,A,2014_Dez_17_1654,Y,
stim/negf.jpg,stim/posf.jpg,stim/3.jpg,stim/2.jpg,stim/latef.jpg,EF,1,2,,,,,,,,,0,56,56,47,,,,,,,,,,2,1,0.616437539567,,,,,,PLC_L_D1S1,P4,60.0225874582,01,A,2014_Dez_17_1654,Y,
stim/negf.jpg,stim/posf.jpg,stim/6.jpg,stim/4.jpg,stim/latef.jpg,AB,1,2,,,,,,,,,0,57,57,9,,,,,,,,,,2,1,0.549888024903,,,,,,PLC_L_D1S1,P4,60.0225874582,01,A,2014_Dez_17_1654,Y,
stim/posf.jpg,stim/negf.jpg,stim/4.jpg,stim/6.jpg,stim/latef.jpg,AB,2,4,,,,,,,,,0,58,58,17,,,,,,,,,,4,1,0.883037745582,,,,,,PLC_L_D1S1,P4,60.0225874582,01,A,2014_Dez_17_1654,Y,
stim/negf.jpg,stim/posf.jpg,stim/3.jpg,stim/2.jpg,stim/latef.jpg,EF,1,2,,,,,,,,,0,59,59,48,,,,,,,,,,2,1,0.633117164532,,,,,,PLC_L_D1S1,P4,60.0225874582,01,A,2014_Dez_17_1654,Y,
,,,,,,,,,,,,,,,,,,,,,,,,,,,,,,,,0.9984375,1.0,1,0,0,PLC_L_D1S1,P4,60.0225874582,01,A,2014_Dez_17_1654,Y,
stim/posf.jpg,stim/negf.jpg,stim/3.jpg,stim/2.jpg,stim/latef.jpg,EF,1,2,,,,,,,,,,,,,0,0,0,45,,,,,,2,1,0.683088644448,,,,,,PLC_L_D1S1,P4,60.0225874582,01,A,2014_Dez_17_1654,Y,
stim/posf.jpg,stim/negf.jpg,stim/5.jpg,stim/1.jpg,stim/latef.jpg,CD,2,4,,,,,,,,,,,,,0,1,1,31,,,,,,4,1,0.549813375841,,,,,,PLC_L_D1S1,P4,60.0225874582,01,A,2014_Dez_17_1654,Y,
stim/posf.jpg,stim/negf.jpg,stim/1.jpg,stim/5.jpg,stim/latef.jpg,CD,1,2,,,,,,,,,,,,,0,2,2,25,,,,,,2,1,0.566533977941,,,,,,PLC_L_D1S1,P4,60.0225874582,01,A,2014_Dez_17_1654,Y,
stim/posf.jpg,stim/negf.jpg,stim/6.jpg,stim/4.jpg,stim/latef.jpg,AB,1,2,,,,,,,,,,,,,0,3,3,1,,,,,,4,0,0.46651822167,,,,,,PLC_L_D1S1,P4,60.0225874582,01,A,2014_Dez_17_1654,Y,
stim/posf.jpg,stim/negf.jpg,stim/4.jpg,stim/6.jpg,stim/latef.jpg,AB,2,4,,,,,,,,,,,,,0,4,4,17,,,,,,4,1,0.599763818318,,,,,,PLC_L_D1S1,P4,60.0225874582,01,A,2014_Dez_17_1654,Y,
stim/posf.jpg,stim/negf.jpg,stim/6.jpg,stim/4.jpg,stim/latef.jpg,AB,1,2,,,,,,,,,,,,,0,5,5,5,,,,,,2,1,0.483172550583,,,,,,PLC_L_D1S1,P4,60.0225874582,01,A,2014_Dez_17_1654,Y,
stim/negf.jpg,stim/posf.jpg,stim/3.jpg,stim/2.jpg,stim/latef.jpg,EF,1,2,,,,,,,,,,,,,0,6,6,48,,,,,,2,1,0.649756627394,,,,,,PLC_L_D1S1,P4,60.0225874582,01,A,2014_Dez_17_1654,Y,
stim/posf.jpg,stim/negf.jpg,stim/1.jpg,stim/5.jpg,stim/latef.jpg,CD,1,2,,,,,,,,,,,,,0,7,7,24,,,,,,2,1,0.616464210045,,,,,,PLC_L_D1S1,P4,60.0225874582,01,A,2014_Dez_17_1654,Y,
stim/negf.jpg,stim/posf.jpg,stim/6.jpg,stim/4.jpg,stim/latef.jpg,AB,1,2,,,,,,,,,,,,,0,8,8,8,,,,,,2,1,0.583200541347,,,,,,PLC_L_D1S1,P4,60.0225874582,01,A,2014_Dez_17_1654,Y,
stim/negf.jpg,stim/posf.jpg,stim/1.jpg,stim/5.jpg,stim/latef.jpg,CD,1,2,,,,,,,,,,,,,0,9,9,28,,,,,,4,0,0.666447004158,,,,,,PLC_L_D1S1,P4,60.0225874582,01,A,2014_Dez_17_1654,Y,
stim/posf.jpg,stim/negf.jpg,stim/4.jpg,stim/6.jpg,stim/latef.jpg,AB,2,4,,,,,,,,,,,,,0,10,10,11,,,,,,2,0,0.533152986816,,,,,,PLC_L_D1S1,P4,60.0225874582,01,A,2014_Dez_17_1654,Y,
stim/posf.jpg,stim/negf.jpg,stim/5.jpg,stim/1.jpg,stim/latef.jpg,CD,2,4,,,,,,,,,,,,,0,11,11,34,,,,,,4,1,0.683031661414,,,,,,PLC_L_D1S1,P4,60.0225874582,01,A,2014_Dez_17_1654,Y,
stim/posf.jpg,stim/negf.jpg,stim/1.jpg,stim/5.jpg,stim/latef.jpg,CD,1,2,,,,,,,,,,,,,0,12,12,20,,,,,,2,1,0.583143468091,,,,,,PLC_L_D1S1,P4,60.0225874582,01,A,2014_Dez_17_1654,Y,
stim/posf.jpg,stim/negf.jpg,stim/2.jpg,stim/3.jpg,stim/latef.jpg,EF,2,4,,,,,,,,,,,,,0,13,13,55,,,,,,4,1,0.516492721108,,,,,,PLC_L_D1S1,P4,60.0225874582,01,A,2014_Dez_17_1654,Y,
stim/posf.jpg,stim/negf.jpg,stim/1.jpg,stim/5.jpg,stim/latef.jpg,CD,1,2,,,,,,,,,,,,,0,14,14,26,,,,,,2,1,0.549815748756,,,,,,PLC_L_D1S1,P4,60.0225874582,01,A,2014_Dez_17_1654,Y,
stim/negf.jpg,stim/posf.jpg,stim/1.jpg,stim/5.jpg,stim/latef.jpg,CD,1,2,,,,,,,,,,,,,0,15,15,27,,,,,,2,1,0.566398520314,,,,,,PLC_L_D1S1,P4,60.0225874582,01,A,2014_Dez_17_1654,Y,
stim/posf.jpg,stim/negf.jpg,stim/2.jpg,stim/3.jpg,stim/latef.jpg,EF,2,4,,,,,,,,,,,,,0,16,16,53,,,,,,4,1,0.683139164365,,,,,,PLC_L_D1S1,P4,60.0225874582,01,A,2014_Dez_17_1654,Y,
stim/posf.jpg,stim/negf.jpg,stim/6.jpg,stim/4.jpg,stim/latef.jpg,AB,1,2,,,,,,,,,,,,,0,17,17,0,,,,,,2,1,0.749762934112,,,,,,PLC_L_D1S1,P4,60.0225874582,01,A,2014_Dez_17_1654,Y,
stim/negf.jpg,stim/posf.jpg,stim/3.jpg,stim/2.jpg,stim/latef.jpg,EF,1,2,,,,,,,,,,,,,0,18,18,47,,,,,,4,0,0.449792257201,,,,,,PLC_L_D1S1,P4,60.0225874582,01,A,2014_Dez_17_1654,Y,
stim/negf.jpg,stim/posf.jpg,stim/2.jpg,stim/3.jpg,stim/latef.jpg,EF,2,4,,,,,,,,,,,,,0,19,19,59,,,,,,2,0,0.49980649168,,,,,,PLC_L_D1S1,P4,60.0225874582,01,A,2014_Dez_17_1654,Y,
stim/posf.jpg,stim/negf.jpg,stim/6.jpg,stim/4.jpg,stim/latef.jpg,AB,1,2,,,,,,,,,,,,,0,20,20,3,,,,,,2,1,0.616459867219,,,,,,PLC_L_D1S1,P4,60.0225874582,01,A,2014_Dez_17_1654,Y,
stim/posf.jpg,stim/negf.jpg,stim/4.jpg,stim/6.jpg,stim/latef.jpg,AB,2,4,,,,,,,,,,,,,0,21,21,10,,,,,,4,1,0.633127059195,,,,,,PLC_L_D1S1,P4,60.0225874582,01,A,2014_Dez_17_1654,Y,
stim/posf.jpg,stim/negf.jpg,stim/1.jpg,stim/5.jpg,stim/latef.jpg,CD,1,2,,,,,,,,,,,,,0,22,22,23,,,,,,2,1,0.566480074584,,,,,,PLC_L_D1S1,P4,60.0225874582,01,A,2014_Dez_17_1654,Y,
stim/negf.jpg,stim/posf.jpg,stim/4.jpg,stim/6.jpg,stim/latef.jpg,AB,2,4,,,,,,,,,,,,,0,23,23,18,,,,,,4,1,0.516557878513,,,,,,PLC_L_D1S1,P4,60.0225874582,01,A,2014_Dez_17_1654,Y,
stim/posf.jpg,stim/negf.jpg,stim/6.jpg,stim/4.jpg,stim/latef.jpg,AB,1,2,,,,,,,,,,,,,0,24,24,4,,,,,,2,1,0.449867267165,,,,,,PLC_L_D1S1,P4,60.0225874582,01,A,2014_Dez_17_1654,Y,
stim/posf.jpg,stim/negf.jpg,stim/6.jpg,stim/4.jpg,stim/latef.jpg,AB,1,2,,,,,,,,,,,,,0,25,25,6,,,,,,2,1,0.449814296131,,,,,,PLC_L_D1S1,P4,60.0225874582,01,A,2014_Dez_17_1654,Y,
stim/negf.jpg,stim/posf.jpg,stim/1.jpg,stim/5.jpg,stim/latef.jpg,CD,1,2,,,,,,,,,,,,,0,26,26,29,,,,,,2,1,1.3162366298,,,,,,PLC_L_D1S1,P4,60.0225874582,01,A,2014_Dez_17_1654,Y,
stim/posf.jpg,stim/negf.jpg,stim/4.jpg,stim/6.jpg,stim/latef.jpg,AB,2,4,,,,,,,,,,,,,0,27,27,15,,,,,,4,1,0.699762750657,,,,,,PLC_L_D1S1,P4,60.0225874582,01,A,2014_Dez_17_1654,Y,
stim/negf.jpg,stim/posf.jpg,stim/2.jpg,stim/3.jpg,stim/latef.jpg,EF,2,4,,,,,,,,,,,,,0,28,28,58,,,,,,4,1,0.633103477416,,,,,,PLC_L_D1S1,P4,60.0225874582,01,A,2014_Dez_17_1654,Y,
stim/posf.jpg,stim/negf.jpg,stim/3.jpg,stim/2.jpg,stim/latef.jpg,EF,1,2,,,,,,,,,,,,,0,29,29,43,,,,,,2,1,0.599860954426,,,,,,PLC_L_D1S1,P4,60.0225874582,01,A,2014_Dez_17_1654,Y,
stim/posf.jpg,stim/negf.jpg,stim/5.jpg,stim/1.jpg,stim/latef.jpg,CD,2,4,,,,,,,,,,,,,0,30,30,35,,,,,,4,1,0.533162289004,,,,,,PLC_L_D1S1,P4,60.0225874582,01,A,2014_Dez_17_1654,Y,
stim/posf.jpg,stim/negf.jpg,stim/4.jpg,stim/6.jpg,stim/latef.jpg,AB,2,4,,,,,,,,,,,,,0,31,31,16,,,,,,4,1,0.61647405057,,,,,,PLC_L_D1S1,P4,60.0225874582,01,A,2014_Dez_17_1654,Y,
stim/negf.jpg,stim/posf.jpg,stim/5.jpg,stim/1.jpg,stim/latef.jpg,CD,2,4,,,,,,,,,,,,,0,32,32,39,,,,,,4,1,0.483136944833,,,,,,PLC_L_D1S1,P4,60.0225874582,01,A,2014_Dez_17_1654,Y,
stim/negf.jpg,stim/posf.jpg,stim/6.jpg,stim/4.jpg,stim/latef.jpg,AB,1,2,,,,,,,,,,,,,0,33,33,9,,,,,,2,1,0.866385161014,,,,,,PLC_L_D1S1,P4,60.0225874582,01,A,2014_Dez_17_1654,Y,
stim/posf.jpg,stim/negf.jpg,stim/3.jpg,stim/2.jpg,stim/latef.jpg,EF,1,2,,,,,,,,,,,,,0,34,34,44,,,,,,4,0,0.433176902428,,,,,,PLC_L_D1S1,P4,60.0225874582,01,A,2014_Dez_17_1654,Y,
stim/posf.jpg,stim/negf.jpg,stim/4.jpg,stim/6.jpg,stim/latef.jpg,AB,2,4,,,,,,,,,,,,,0,35,35,14,,,,,,4,1,0.599805008984,,,,,,PLC_L_D1S1,P4,60.0225874582,01,A,2014_Dez_17_1654,Y,
stim/negf.jpg,stim/posf.jpg,stim/2.jpg,stim/3.jpg,stim/latef.jpg,EF,2,4,,,,,,,,,,,,,0,36,36,56,,,,,,4,1,0.649773234785,,,,,,PLC_L_D1S1,P4,60.0225874582,01,A,2014_Dez_17_1654,Y,
stim/posf.jpg,stim/negf.jpg,stim/5.jpg,stim/1.jpg,stim/latef.jpg,CD,2,4,,,,,,,,,,,,,0,37,37,30,,,,,,4,1,0.566471803973,,,,,,PLC_L_D1S1,P4,60.0225874582,01,A,2014_Dez_17_1654,Y,
stim/posf.jpg,stim/negf.jpg,stim/3.jpg,stim/2.jpg,stim/latef.jpg,EF,1,2,,,,,,,,,,,,,0,38,38,40,,,,,,4,0,0.583136063637,,,,,,PLC_L_D1S1,P4,60.0225874582,01,A,2014_Dez_17_1654,Y,
stim/posf.jpg,stim/negf.jpg,stim/2.jpg,stim/3.jpg,stim/latef.jpg,EF,2,4,,,,,,,,,,,,,0,39,39,52,,,,,,4,1,0.433220523155,,,,,,PLC_L_D1S1,P4,60.0225874582,01,A,2014_Dez_17_1654,Y,
stim/negf.jpg,stim/posf.jpg,stim/3.jpg,stim/2.jpg,stim/latef.jpg,EF,1,2,,,,,,,,,,,,,0,40,40,49,,,,,,2,1,0.466481683598,,,,,,PLC_L_D1S1,P4,60.0225874582,01,A,2014_Dez_17_1654,Y,
stim/posf.jpg,stim/negf.jpg,stim/6.jpg,stim/4.jpg,stim/latef.jpg,AB,1,2,,,,,,,,,,,,,0,41,41,2,,,,,,4,0,0.416514570567,,,,,,PLC_L_D1S1,P4,60.0225874582,01,A,2014_Dez_17_1654,Y,
stim/negf.jpg,stim/posf.jpg,stim/5.jpg,stim/1.jpg,stim/latef.jpg,CD,2,4,,,,,,,,,,,,,0,42,42,37,,,,,,4,1,0.649797971444,,,,,,PLC_L_D1S1,P4,60.0225874582,01,A,2014_Dez_17_1654,Y,
stim/negf.jpg,stim/posf.jpg,stim/4.jpg,stim/6.jpg,stim/latef.jpg,AB,2,4,,,,,,,,,,,,,0,43,43,19,,,,,,4,1,0.71641842994,,,,,,PLC_L_D1S1,P4,60.0225874582,01,A,2014_Dez_17_1654,Y,
stim/posf.jpg,stim/negf.jpg,stim/5.jpg,stim/1.jpg,stim/latef.jpg,CD,2,4,,,,,,,,,,,,,0,44,44,32,,,,,,4,1,1.0163444335,,,,,,PLC_L_D1S1,P4,60.0225874582,01,A,2014_Dez_17_1654,Y,
stim/posf.jpg,stim/negf.jpg,stim/6.jpg,stim/4.jpg,stim/latef.jpg,AB,1,2,,,,,,,,,,,,,0,45,45,7,,,,,,2,1,0.616449307901,,,,,,PLC_L_D1S1,P4,60.0225874582,01,A,2014_Dez_17_1654,Y,
stim/posf.jpg,stim/negf.jpg,stim/5.jpg,stim/1.jpg,stim/latef.jpg,CD,2,4,,,,,,,,,,,,,0,46,46,33,,,,,,4,1,0.649760305561,,,,,,PLC_L_D1S1,P4,60.0225874582,01,A,2014_Dez_17_1654,Y,
stim/posf.jpg,stim/negf.jpg,stim/4.jpg,stim/6.jpg,stim/latef.jpg,AB,2,4,,,,,,,,,,,,,0,47,47,13,,,,,,4,1,0.649777995652,,,,,,PLC_L_D1S1,P4,60.0225874582,01,A,2014_Dez_17_1654,Y,
stim/posf.jpg,stim/negf.jpg,stim/2.jpg,stim/3.jpg,stim/latef.jpg,EF,2,4,,,,,,,,,,,,,0,48,48,54,,,,,,4,1,0.683041050819,,,,,,PLC_L_D1S1,P4,60.0225874582,01,A,2014_Dez_17_1654,Y,
stim/posf.jpg,stim/negf.jpg,stim/1.jpg,stim/5.jpg,stim/latef.jpg,CD,1,2,,,,,,,,,,,,,0,49,49,22,,,,,,2,1,0.466512206676,,,,,,PLC_L_D1S1,P4,60.0225874582,01,A,2014_Dez_17_1654,Y,
stim/negf.jpg,stim/posf.jpg,stim/5.jpg,stim/1.jpg,stim/latef.jpg,CD,2,4,,,,,,,,,,,,,0,50,50,38,,,,,,4,1,0.549824678008,,,,,,PLC_L_D1S1,P4,60.0225874582,01,A,2014_Dez_17_1654,Y,
stim/posf.jpg,stim/negf.jpg,stim/3.jpg,stim/2.jpg,stim/latef.jpg,EF,1,2,,,,,,,,,,,,,0,51,51,42,,,,,,2,1,0.683179672331,,,,,,PLC_L_D1S1,P4,60.0225874582,01,A,2014_Dez_17_1654,Y,
stim/negf.jpg,stim/posf.jpg,stim/2.jpg,stim/3.jpg,stim/latef.jpg,EF,2,4,,,,,,,,,,,,,0,52,52,57,,,,,,4,1,0.416549048503,,,,,,PLC_L_D1S1,P4,60.0225874582,01,A,2014_Dez_17_1654,Y,
stim/posf.jpg,stim/negf.jpg,stim/1.jpg,stim/5.jpg,stim/latef.jpg,CD,1,2,,,,,,,,,,,,,0,53,53,21,,,,,,2,1,0.599800275184,,,,,,PLC_L_D1S1,P4,60.0225874582,01,A,2014_Dez_17_1654,Y,
stim/posf.jpg,stim/negf.jpg,stim/2.jpg,stim/3.jpg,stim/latef.jpg,EF,2,4,,,,,,,,,,,,,0,54,54,50,,,,,,4,1,0.49983435914,,,,,,PLC_L_D1S1,P4,60.0225874582,01,A,2014_Dez_17_1654,Y,
stim/posf.jpg,stim/negf.jpg,stim/5.jpg,stim/1.jpg,stim/latef.jpg,CD,2,4,,,,,,,,,,,,,0,55,55,36,,,,,,4,1,0.516502209757,,,,,,PLC_L_D1S1,P4,60.0225874582,01,A,2014_Dez_17_1654,Y,
stim/posf.jpg,stim/negf.jpg,stim/4.jpg,stim/6.jpg,stim/latef.jpg,AB,2,4,,,,,,,,,,,,,0,56,56,12,,,,,,4,1,0.58310758265,,,,,,PLC_L_D1S1,P4,60.0225874582,01,A,2014_Dez_17_1654,Y,
stim/posf.jpg,stim/negf.jpg,stim/3.jpg,stim/2.jpg,stim/latef.jpg,EF,1,2,,,,,,,,,,,,,0,57,57,41,,,,,,2,1,0.616438544072,,,,,,PLC_L_D1S1,P4,60.0225874582,01,A,2014_Dez_17_1654,Y,
stim/posf.jpg,stim/negf.jpg,stim/2.jpg,stim/3.jpg,stim/latef.jpg,EF,2,4,,,,,,,,,,,,,0,58,58,51,,,,,,4,1,0.533176679874,,,,,,PLC_L_D1S1,P4,60.0225874582,01,A,2014_Dez_17_1654,Y,
stim/negf.jpg,stim/posf.jpg,stim/3.jpg,stim/2.jpg,stim/latef.jpg,EF,1,2,,,,,,,,,,,,,0,59,59,46,,,,,,2,1,0.499821342695,,,,,,PLC_L_D1S1,P4,60.0225874582,01,A,2014_Dez_17_1654,Y,
