fb_corr,fb_incorr,symbol2,symbol1,fb_late,pair,position,correct,block_01.thisRepN,block_01.thisTrialN,block_01.thisN,block_01.thisIndex,block_02.thisRepN,block_02.thisTrialN,block_02.thisN,block_02.thisIndex,block_03.thisRepN,block_03.thisTrialN,block_03.thisN,block_03.thisIndex,block_04.thisRepN,block_04.thisTrialN,block_04.thisN,block_04.thisIndex,mouse.x,mouse.y,mouse.leftButton,mouse.midButton,mouse.rightButton,buttonBox_2.keys,buttonBox_2.corr,buttonBox_2.rt,mouse_2.x,mouse_2.y,mouse_2.leftButton,mouse_2.midButton,mouse_2.rightButton,date,Participant,expName,Group,frameRate,
,,,,,,,,,,,,,,,,,,,,,,,,0.9984375,1.0,1,0,0,,,,,,,,,2015_Nov_26_1452,P11,PLC_L_D2S1,NHG,60.0195638103,
stim/negf.jpg,stim/posf.jpg,stim/6.jpg,stim/2.jpg,stim/latef.jpg,EF,1,2,0,0,0,49,,,,,,,,,,,,,,,,,,4,0,0.883070314244,,,,,,2015_Nov_26_1452,P11,PLC_L_D2S1,NHG,60.0195638103,
stim/posf.jpg,stim/negf.jpg,stim/6.jpg,stim/2.jpg,stim/latef.jpg,EF,1,2,0,1,1,42,,,,,,,,,,,,,,,,,,4,0,0.883064485739,,,,,,2015_Nov_26_1452,P11,PLC_L_D2S1,NHG,60.0195638103,
stim/posf.jpg,stim/negf.jpg,stim/1.jpg,stim/5.jpg,stim/latef.jpg,AB,2,4,0,2,2,10,,,,,,,,,,,,,,,,,,4,1,0.783069902219,,,,,,2015_Nov_26_1452,P11,PLC_L_D2S1,NHG,60.0195638103,
stim/posf.jpg,stim/negf.jpg,stim/5.jpg,stim/1.jpg,stim/latef.jpg,AB,1,2,0,3,3,7,,,,,,,,,,,,,,,,,,2,1,0.666442134863,,,,,,2015_Nov_26_1452,P11,PLC_L_D2S1,NHG,60.0195638103,
stim/posf.jpg,stim/negf.jpg,stim/1.jpg,stim/5.jpg,stim/latef.jpg,AB,2,4,0,4,4,16,,,,,,,,,,,,,,,,,,4,1,0.749737090183,,,,,,2015_Nov_26_1452,P11,PLC_L_D2S1,NHG,60.0195638103,
stim/posf.jpg,stim/negf.jpg,stim/6.jpg,stim/2.jpg,stim/latef.jpg,EF,1,2,0,5,5,43,,,,,,,,,,,,,,,,,,4,0,0.833036668007,,,,,,2015_Nov_26_1452,P11,PLC_L_D2S1,NHG,60.0195638103,
stim/posf.jpg,stim/negf.jpg,stim/6.jpg,stim/2.jpg,stim/latef.jpg,EF,1,2,0,6,6,41,,,,,,,,,,,,,,,,,,2,1,0.683098356033,,,,,,2015_Nov_26_1452,P11,PLC_L_D2S1,NHG,60.0195638103,
stim/posf.jpg,stim/negf.jpg,stim/5.jpg,stim/1.jpg,stim/latef.jpg,AB,1,2,0,7,7,1,,,,,,,,,,,,,,,,,,2,1,0.949672871359,,,,,,2015_Nov_26_1452,P11,PLC_L_D2S1,NHG,60.0195638103,
stim/negf.jpg,stim/posf.jpg,stim/6.jpg,stim/2.jpg,stim/latef.jpg,EF,1,2,0,8,8,46,,,,,,,,,,,,,,,,,,2,1,0.649761375624,,,,,,2015_Nov_26_1452,P11,PLC_L_D2S1,NHG,60.0195638103,
stim/posf.jpg,stim/negf.jpg,stim/5.jpg,stim/1.jpg,stim/latef.jpg,AB,1,2,0,9,9,0,,,,,,,,,,,,,,,,,,2,1,0.616377806266,,,,,,2015_Nov_26_1452,P11,PLC_L_D2S1,NHG,60.0195638103,
stim/posf.jpg,stim/negf.jpg,stim/2.jpg,stim/6.jpg,stim/latef.jpg,EF,2,4,0,10,10,55,,,,,,,,,,,,,,,,,,4,1,0.699728574489,,,,,,2015_Nov_26_1452,P11,PLC_L_D2S1,NHG,60.0195638103,
stim/negf.jpg,stim/posf.jpg,stim/1.jpg,stim/5.jpg,stim/latef.jpg,AB,2,4,0,11,11,18,,,,,,,,,,,,,,,,,,4,1,0.883023965896,,,,,,2015_Nov_26_1452,P11,PLC_L_D2S1,NHG,60.0195638103,
stim/posf.jpg,stim/negf.jpg,stim/2.jpg,stim/6.jpg,stim/latef.jpg,EF,2,4,0,12,12,54,,,,,,,,,,,,,,,,,,4,1,0.766377693485,,,,,,2015_Nov_26_1452,P11,PLC_L_D2S1,NHG,60.0195638103,
stim/posf.jpg,stim/negf.jpg,stim/1.jpg,stim/5.jpg,stim/latef.jpg,AB,2,4,0,13,13,14,,,,,,,,,,,,,,,,,,4,1,0.633114107736,,,,,,2015_Nov_26_1452,P11,PLC_L_D2S1,NHG,60.0195638103,
stim/posf.jpg,stim/negf.jpg,stim/2.jpg,stim/6.jpg,stim/latef.jpg,EF,2,4,0,14,14,50,,,,,,,,,,,,,,,,,,4,1,0.633164284613,,,,,,2015_Nov_26_1452,P11,PLC_L_D2S1,NHG,60.0195638103,
stim/posf.jpg,stim/negf.jpg,stim/1.jpg,stim/5.jpg,stim/latef.jpg,AB,2,4,0,15,15,17,,,,,,,,,,,,,,,,,,4,1,0.716426386169,,,,,,2015_Nov_26_1452,P11,PLC_L_D2S1,NHG,60.0195638103,
stim/posf.jpg,stim/negf.jpg,stim/5.jpg,stim/1.jpg,stim/latef.jpg,AB,1,2,0,16,16,2,,,,,,,,,,,,,,,,,,2,1,0.799758610241,,,,,,2015_Nov_26_1452,P11,PLC_L_D2S1,NHG,60.0195638103,
stim/posf.jpg,stim/negf.jpg,stim/4.jpg,stim/3.jpg,stim/latef.jpg,CD,2,4,0,17,17,36,,,,,,,,,,,,,,,,,,4,1,1.0828963523,,,,,,2015_Nov_26_1452,P11,PLC_L_D2S1,NHG,60.0195638103,
stim/negf.jpg,stim/posf.jpg,stim/4.jpg,stim/3.jpg,stim/latef.jpg,CD,2,4,0,18,18,38,,,,,,,,,,,,,,,,,,4,1,0.749713297971,,,,,,2015_Nov_26_1452,P11,PLC_L_D2S1,NHG,60.0195638103,
stim/posf.jpg,stim/negf.jpg,stim/3.jpg,stim/4.jpg,stim/latef.jpg,CD,1,2,0,19,19,24,,,,,,,,,,,,,,,,,,2,1,0.716451381375,,,,,,2015_Nov_26_1452,P11,PLC_L_D2S1,NHG,60.0195638103,
stim/posf.jpg,stim/negf.jpg,stim/2.jpg,stim/6.jpg,stim/latef.jpg,EF,2,4,0,20,20,52,,,,,,,,,,,,,,,,,,4,1,0.83309884475,,,,,,2015_Nov_26_1452,P11,PLC_L_D2S1,NHG,60.0195638103,
stim/negf.jpg,stim/posf.jpg,stim/3.jpg,stim/4.jpg,stim/latef.jpg,CD,1,2,0,21,21,28,,,,,,,,,,,,,,,,,,2,1,0.699824588444,,,,,,2015_Nov_26_1452,P11,PLC_L_D2S1,NHG,60.0195638103,
stim/negf.jpg,stim/posf.jpg,stim/2.jpg,stim/6.jpg,stim/latef.jpg,EF,2,4,0,22,22,59,,,,,,,,,,,,,,,,,,4,1,0.749791212881,,,,,,2015_Nov_26_1452,P11,PLC_L_D2S1,NHG,60.0195638103,
stim/posf.jpg,stim/negf.jpg,stim/5.jpg,stim/1.jpg,stim/latef.jpg,AB,1,2,0,23,23,5,,,,,,,,,,,,,,,,,,2,1,0.683092569633,,,,,,2015_Nov_26_1452,P11,PLC_L_D2S1,NHG,60.0195638103,
stim/posf.jpg,stim/negf.jpg,stim/2.jpg,stim/6.jpg,stim/latef.jpg,EF,2,4,0,24,24,51,,,,,,,,,,,,,,,,,,4,1,0.733131788739,,,,,,2015_Nov_26_1452,P11,PLC_L_D2S1,NHG,60.0195638103,
stim/posf.jpg,stim/negf.jpg,stim/1.jpg,stim/5.jpg,stim/latef.jpg,AB,2,4,0,25,25,15,,,,,,,,,,,,,,,,,,4,1,0.649785194904,,,,,,2015_Nov_26_1452,P11,PLC_L_D2S1,NHG,60.0195638103,
stim/posf.jpg,stim/negf.jpg,stim/5.jpg,stim/1.jpg,stim/latef.jpg,AB,1,2,0,26,26,6,,,,,,,,,,,,,,,,,,4,0,0.616464127096,,,,,,2015_Nov_26_1452,P11,PLC_L_D2S1,NHG,60.0195638103,
stim/posf.jpg,stim/negf.jpg,stim/5.jpg,stim/1.jpg,stim/latef.jpg,AB,1,2,0,27,27,3,,,,,,,,,,,,,,,,,,2,1,0.833004902953,,,,,,2015_Nov_26_1452,P11,PLC_L_D2S1,NHG,60.0195638103,
stim/posf.jpg,stim/negf.jpg,stim/4.jpg,stim/3.jpg,stim/latef.jpg,CD,2,4,0,28,28,34,,,,,,,,,,,,,,,,,,2,0,1.01635674184,,,,,,2015_Nov_26_1452,P11,PLC_L_D2S1,NHG,60.0195638103,
stim/posf.jpg,stim/negf.jpg,stim/3.jpg,stim/4.jpg,stim/latef.jpg,CD,1,2,0,29,29,25,,,,,,,,,,,,,,,,,,2,1,1.18295684485,,,,,,2015_Nov_26_1452,P11,PLC_L_D2S1,NHG,60.0195638103,
stim/posf.jpg,stim/negf.jpg,stim/3.jpg,stim/4.jpg,stim/latef.jpg,CD,1,2,0,30,30,20,,,,,,,,,,,,,,,,,,2,1,0.916383087409,,,,,,2015_Nov_26_1452,P11,PLC_L_D2S1,NHG,60.0195638103,
stim/negf.jpg,stim/posf.jpg,stim/2.jpg,stim/6.jpg,stim/latef.jpg,EF,2,4,0,31,31,57,,,,,,,,,,,,,,,,,,4,1,0.849764629722,,,,,,2015_Nov_26_1452,P11,PLC_L_D2S1,NHG,60.0195638103,
stim/posf.jpg,stim/negf.jpg,stim/3.jpg,stim/4.jpg,stim/latef.jpg,CD,1,2,0,32,32,22,,,,,,,,,,,,,,,,,,2,1,0.899670018759,,,,,,2015_Nov_26_1452,P11,PLC_L_D2S1,NHG,60.0195638103,
stim/negf.jpg,stim/posf.jpg,stim/3.jpg,stim/4.jpg,stim/latef.jpg,CD,1,2,0,33,33,27,,,,,,,,,,,,,,,,,,2,1,0.699757344089,,,,,,2015_Nov_26_1452,P11,PLC_L_D2S1,NHG,60.0195638103,
stim/posf.jpg,stim/negf.jpg,stim/4.jpg,stim/3.jpg,stim/latef.jpg,CD,2,4,0,34,34,35,,,,,,,,,,,,,,,,,,2,0,0.666376114556,,,,,,2015_Nov_26_1452,P11,PLC_L_D2S1,NHG,60.0195638103,
stim/negf.jpg,stim/posf.jpg,stim/4.jpg,stim/3.jpg,stim/latef.jpg,CD,2,4,0,35,35,37,,,,,,,,,,,,,,,,,,4,1,0.716423492968,,,,,,2015_Nov_26_1452,P11,PLC_L_D2S1,NHG,60.0195638103,
stim/posf.jpg,stim/negf.jpg,stim/6.jpg,stim/2.jpg,stim/latef.jpg,EF,1,2,0,36,36,40,,,,,,,,,,,,,,,,,,2,1,0.849711168671,,,,,,2015_Nov_26_1452,P11,PLC_L_D2S1,NHG,60.0195638103,
stim/negf.jpg,stim/posf.jpg,stim/4.jpg,stim/3.jpg,stim/latef.jpg,CD,2,4,0,37,37,39,,,,,,,,,,,,,,,,,,4,1,1.23293067823,,,,,,2015_Nov_26_1452,P11,PLC_L_D2S1,NHG,60.0195638103,
stim/posf.jpg,stim/negf.jpg,stim/2.jpg,stim/6.jpg,stim/latef.jpg,EF,2,4,0,38,38,53,,,,,,,,,,,,,,,,,,4,1,0.849737896189,,,,,,2015_Nov_26_1452,P11,PLC_L_D2S1,NHG,60.0195638103,
stim/negf.jpg,stim/posf.jpg,stim/6.jpg,stim/2.jpg,stim/latef.jpg,EF,1,2,0,39,39,47,,,,,,,,,,,,,,,,,,2,1,0.616448019007,,,,,,2015_Nov_26_1452,P11,PLC_L_D2S1,NHG,60.0195638103,
stim/posf.jpg,stim/negf.jpg,stim/5.jpg,stim/1.jpg,stim/latef.jpg,AB,1,2,0,40,40,4,,,,,,,,,,,,,,,,,,2,1,0.816406723233,,,,,,2015_Nov_26_1452,P11,PLC_L_D2S1,NHG,60.0195638103,
stim/posf.jpg,stim/negf.jpg,stim/3.jpg,stim/4.jpg,stim/latef.jpg,CD,1,2,0,41,41,23,,,,,,,,,,,,,,,,,,2,1,0.883001033823,,,,,,2015_Nov_26_1452,P11,PLC_L_D2S1,NHG,60.0195638103,
stim/negf.jpg,stim/posf.jpg,stim/2.jpg,stim/6.jpg,stim/latef.jpg,EF,2,4,0,42,42,56,,,,,,,,,,,,,,,,,,4,1,0.79972323019,,,,,,2015_Nov_26_1452,P11,PLC_L_D2S1,NHG,60.0195638103,
stim/negf.jpg,stim/posf.jpg,stim/6.jpg,stim/2.jpg,stim/latef.jpg,EF,1,2,0,43,43,48,,,,,,,,,,,,,,,,,,2,1,0.649783760333,,,,,,2015_Nov_26_1452,P11,PLC_L_D2S1,NHG,60.0195638103,
stim/posf.jpg,stim/negf.jpg,stim/3.jpg,stim/4.jpg,stim/latef.jpg,CD,1,2,0,44,44,21,,,,,,,,,,,,,,,,,,2,1,0.799723344474,,,,,,2015_Nov_26_1452,P11,PLC_L_D2S1,NHG,60.0195638103,
stim/posf.jpg,stim/negf.jpg,stim/4.jpg,stim/3.jpg,stim/latef.jpg,CD,2,4,0,45,45,33,,,,,,,,,,,,,,,,,,4,1,1.0829704056,,,,,,2015_Nov_26_1452,P11,PLC_L_D2S1,NHG,60.0195638103,
stim/posf.jpg,stim/negf.jpg,stim/4.jpg,stim/3.jpg,stim/latef.jpg,CD,2,4,0,46,46,31,,,,,,,,,,,,,,,,,,4,1,0.733131283481,,,,,,2015_Nov_26_1452,P11,PLC_L_D2S1,NHG,60.0195638103,
stim/negf.jpg,stim/posf.jpg,stim/2.jpg,stim/6.jpg,stim/latef.jpg,EF,2,4,0,47,47,58,,,,,,,,,,,,,,,,,,2,0,0.766392914365,,,,,,2015_Nov_26_1452,P11,PLC_L_D2S1,NHG,60.0195638103,
stim/negf.jpg,stim/posf.jpg,stim/5.jpg,stim/1.jpg,stim/latef.jpg,AB,1,2,0,48,48,8,,,,,,,,,,,,,,,,,,2,1,0.749699162791,,,,,,2015_Nov_26_1452,P11,PLC_L_D2S1,NHG,60.0195638103,
stim/negf.jpg,stim/posf.jpg,stim/5.jpg,stim/1.jpg,stim/latef.jpg,AB,1,2,0,49,49,9,,,,,,,,,,,,,,,,,,2,1,0.683010883336,,,,,,2015_Nov_26_1452,P11,PLC_L_D2S1,NHG,60.0195638103,
stim/posf.jpg,stim/negf.jpg,stim/1.jpg,stim/5.jpg,stim/latef.jpg,AB,2,4,0,50,50,12,,,,,,,,,,,,,,,,,,4,1,0.633086604286,,,,,,2015_Nov_26_1452,P11,PLC_L_D2S1,NHG,60.0195638103,
stim/posf.jpg,stim/negf.jpg,stim/3.jpg,stim/4.jpg,stim/latef.jpg,CD,1,2,0,51,51,26,,,,,,,,,,,,,,,,,,2,1,0.649763989128,,,,,,2015_Nov_26_1452,P11,PLC_L_D2S1,NHG,60.0195638103,
stim/posf.jpg,stim/negf.jpg,stim/4.jpg,stim/3.jpg,stim/latef.jpg,CD,2,4,0,52,52,30,,,,,,,,,,,,,,,,,,4,1,0.866381537051,,,,,,2015_Nov_26_1452,P11,PLC_L_D2S1,NHG,60.0195638103,
stim/negf.jpg,stim/posf.jpg,stim/1.jpg,stim/5.jpg,stim/latef.jpg,AB,2,4,0,53,53,19,,,,,,,,,,,,,,,,,,4,1,0.649794100066,,,,,,2015_Nov_26_1452,P11,PLC_L_D2S1,NHG,60.0195638103,
stim/posf.jpg,stim/negf.jpg,stim/4.jpg,stim/3.jpg,stim/latef.jpg,CD,2,4,0,54,54,32,,,,,,,,,,,,,,,,,,4,1,0.716429336511,,,,,,2015_Nov_26_1452,P11,PLC_L_D2S1,NHG,60.0195638103,
stim/posf.jpg,stim/negf.jpg,stim/1.jpg,stim/5.jpg,stim/latef.jpg,AB,2,4,0,55,55,13,,,,,,,,,,,,,,,,,,4,1,0.566433491351,,,,,,2015_Nov_26_1452,P11,PLC_L_D2S1,NHG,60.0195638103,
stim/posf.jpg,stim/negf.jpg,stim/1.jpg,stim/5.jpg,stim/latef.jpg,AB,2,4,0,56,56,11,,,,,,,,,,,,,,,,,,4,1,0.633158401973,,,,,,2015_Nov_26_1452,P11,PLC_L_D2S1,NHG,60.0195638103,
stim/posf.jpg,stim/negf.jpg,stim/6.jpg,stim/2.jpg,stim/latef.jpg,EF,1,2,0,57,57,45,,,,,,,,,,,,,,,,,,2,1,0.699768871779,,,,,,2015_Nov_26_1452,P11,PLC_L_D2S1,NHG,60.0195638103,
stim/negf.jpg,stim/posf.jpg,stim/3.jpg,stim/4.jpg,stim/latef.jpg,CD,1,2,0,58,58,29,,,,,,,,,,,,,,,,,,2,1,0.899707522096,,,,,,2015_Nov_26_1452,P11,PLC_L_D2S1,NHG,60.0195638103,
stim/posf.jpg,stim/negf.jpg,stim/6.jpg,stim/2.jpg,stim/latef.jpg,EF,1,2,0,59,59,44,,,,,,,,,,,,,,,,,,2,1,1.14960895028,,,,,,2015_Nov_26_1452,P11,PLC_L_D2S1,NHG,60.0195638103,
,,,,,,,,,,,,,,,,,,,,,,,,,,,,,,,,0.9984375,1.0,1,0,0,2015_Nov_26_1452,P11,PLC_L_D2S1,NHG,60.0195638103,
stim/posf.jpg,stim/negf.jpg,stim/6.jpg,stim/2.jpg,stim/latef.jpg,EF,1,2,,,,,0,0,0,42,,,,,,,,,,,,,,2,1,0.683051628742,,,,,,2015_Nov_26_1452,P11,PLC_L_D2S1,NHG,60.0195638103,
stim/posf.jpg,stim/negf.jpg,stim/4.jpg,stim/3.jpg,stim/latef.jpg,CD,2,4,,,,,0,1,1,30,,,,,,,,,,,,,,4,1,0.716472139036,,,,,,2015_Nov_26_1452,P11,PLC_L_D2S1,NHG,60.0195638103,
stim/posf.jpg,stim/negf.jpg,stim/5.jpg,stim/1.jpg,stim/latef.jpg,AB,1,2,,,,,0,2,2,4,,,,,,,,,,,,,,2,1,0.63312680233,,,,,,2015_Nov_26_1452,P11,PLC_L_D2S1,NHG,60.0195638103,
stim/posf.jpg,stim/negf.jpg,stim/1.jpg,stim/5.jpg,stim/latef.jpg,AB,2,4,,,,,0,3,3,12,,,,,,,,,,,,,,4,1,0.616450437024,,,,,,2015_Nov_26_1452,P11,PLC_L_D2S1,NHG,60.0195638103,
stim/posf.jpg,stim/negf.jpg,stim/4.jpg,stim/3.jpg,stim/latef.jpg,CD,2,4,,,,,0,4,4,31,,,,,,,,,,,,,,2,0,0.583132527076,,,,,,2015_Nov_26_1452,P11,PLC_L_D2S1,NHG,60.0195638103,
stim/posf.jpg,stim/negf.jpg,stim/1.jpg,stim/5.jpg,stim/latef.jpg,AB,2,4,,,,,0,5,5,13,,,,,,,,,,,,,,4,1,0.983008787119,,,,,,2015_Nov_26_1452,P11,PLC_L_D2S1,NHG,60.0195638103,
stim/negf.jpg,stim/posf.jpg,stim/6.jpg,stim/2.jpg,stim/latef.jpg,EF,1,2,,,,,0,6,6,48,,,,,,,,,,,,,,2,1,1.04965190618,,,,,,2015_Nov_26_1452,P11,PLC_L_D2S1,NHG,60.0195638103,
stim/negf.jpg,stim/posf.jpg,stim/6.jpg,stim/2.jpg,stim/latef.jpg,EF,1,2,,,,,0,7,7,46,,,,,,,,,,,,,,2,1,0.733098886854,,,,,,2015_Nov_26_1452,P11,PLC_L_D2S1,NHG,60.0195638103,
stim/posf.jpg,stim/negf.jpg,stim/1.jpg,stim/5.jpg,stim/latef.jpg,AB,2,4,,,,,0,8,8,10,,,,,,,,,,,,,,4,1,0.633108378476,,,,,,2015_Nov_26_1452,P11,PLC_L_D2S1,NHG,60.0195638103,
stim/posf.jpg,stim/negf.jpg,stim/2.jpg,stim/6.jpg,stim/latef.jpg,EF,2,4,,,,,0,9,9,52,,,,,,,,,,,,,,4,1,0.866393296316,,,,,,2015_Nov_26_1452,P11,PLC_L_D2S1,NHG,60.0195638103,
stim/posf.jpg,stim/negf.jpg,stim/1.jpg,stim/5.jpg,stim/latef.jpg,AB,2,4,,,,,0,10,10,15,,,,,,,,,,,,,,4,1,0.633114898705,,,,,,2015_Nov_26_1452,P11,PLC_L_D2S1,NHG,60.0195638103,
stim/posf.jpg,stim/negf.jpg,stim/3.jpg,stim/4.jpg,stim/latef.jpg,CD,1,2,,,,,0,11,11,26,,,,,,,,,,,,,,2,1,0.799679008132,,,,,,2015_Nov_26_1452,P11,PLC_L_D2S1,NHG,60.0195638103,
stim/posf.jpg,stim/negf.jpg,stim/2.jpg,stim/6.jpg,stim/latef.jpg,EF,2,4,,,,,0,12,12,51,,,,,,,,,,,,,,4,1,0.683107053679,,,,,,2015_Nov_26_1452,P11,PLC_L_D2S1,NHG,60.0195638103,
stim/posf.jpg,stim/negf.jpg,stim/2.jpg,stim/6.jpg,stim/latef.jpg,EF,2,4,,,,,0,13,13,53,,,,,,,,,,,,,,4,1,0.649820523829,,,,,,2015_Nov_26_1452,P11,PLC_L_D2S1,NHG,60.0195638103,
stim/posf.jpg,stim/negf.jpg,stim/3.jpg,stim/4.jpg,stim/latef.jpg,CD,1,2,,,,,0,14,14,24,,,,,,,,,,,,,,2,1,0.666442219072,,,,,,2015_Nov_26_1452,P11,PLC_L_D2S1,NHG,60.0195638103,
stim/posf.jpg,stim/negf.jpg,stim/6.jpg,stim/2.jpg,stim/latef.jpg,EF,1,2,,,,,0,15,15,40,,,,,,,,,,,,,,2,1,0.599847992692,,,,,,2015_Nov_26_1452,P11,PLC_L_D2S1,NHG,60.0195638103,
stim/posf.jpg,stim/negf.jpg,stim/1.jpg,stim/5.jpg,stim/latef.jpg,AB,2,4,,,,,0,16,16,11,,,,,,,,,,,,,,4,1,0.849692952334,,,,,,2015_Nov_26_1452,P11,PLC_L_D2S1,NHG,60.0195638103,
stim/posf.jpg,stim/negf.jpg,stim/3.jpg,stim/4.jpg,stim/latef.jpg,CD,1,2,,,,,0,17,17,21,,,,,,,,,,,,,,2,1,0.766409846505,,,,,,2015_Nov_26_1452,P11,PLC_L_D2S1,NHG,60.0195638103,
stim/posf.jpg,stim/negf.jpg,stim/6.jpg,stim/2.jpg,stim/latef.jpg,EF,1,2,,,,,0,18,18,41,,,,,,,,,,,,,,2,1,0.799656773796,,,,,,2015_Nov_26_1452,P11,PLC_L_D2S1,NHG,60.0195638103,
stim/posf.jpg,stim/negf.jpg,stim/6.jpg,stim/2.jpg,stim/latef.jpg,EF,1,2,,,,,0,19,19,44,,,,,,,,,,,,,,2,1,0.966374391266,,,,,,2015_Nov_26_1452,P11,PLC_L_D2S1,NHG,60.0195638103,
stim/posf.jpg,stim/negf.jpg,stim/5.jpg,stim/1.jpg,stim/latef.jpg,AB,1,2,,,,,0,20,20,2,,,,,,,,,,,,,,2,1,0.633137773634,,,,,,2015_Nov_26_1452,P11,PLC_L_D2S1,NHG,60.0195638103,
stim/negf.jpg,stim/posf.jpg,stim/2.jpg,stim/6.jpg,stim/latef.jpg,EF,2,4,,,,,0,21,21,56,,,,,,,,,,,,,,4,1,0.683110813035,,,,,,2015_Nov_26_1452,P11,PLC_L_D2S1,NHG,60.0195638103,
stim/posf.jpg,stim/negf.jpg,stim/4.jpg,stim/3.jpg,stim/latef.jpg,CD,2,4,,,,,0,22,22,32,,,,,,,,,,,,,,2,0,0.899714144578,,,,,,2015_Nov_26_1452,P11,PLC_L_D2S1,NHG,60.0195638103,
stim/posf.jpg,stim/negf.jpg,stim/1.jpg,stim/5.jpg,stim/latef.jpg,AB,2,4,,,,,0,23,23,16,,,,,,,,,,,,,,4,1,0.599786697142,,,,,,2015_Nov_26_1452,P11,PLC_L_D2S1,NHG,60.0195638103,
stim/posf.jpg,stim/negf.jpg,stim/3.jpg,stim/4.jpg,stim/latef.jpg,CD,1,2,,,,,0,24,24,23,,,,,,,,,,,,,,2,1,0.933041870956,,,,,,2015_Nov_26_1452,P11,PLC_L_D2S1,NHG,60.0195638103,
stim/posf.jpg,stim/negf.jpg,stim/5.jpg,stim/1.jpg,stim/latef.jpg,AB,1,2,,,,,0,25,25,0,,,,,,,,,,,,,,2,1,0.666426640301,,,,,,2015_Nov_26_1452,P11,PLC_L_D2S1,NHG,60.0195638103,
stim/negf.jpg,stim/posf.jpg,stim/6.jpg,stim/2.jpg,stim/latef.jpg,EF,1,2,,,,,0,26,26,49,,,,,,,,,,,,,,2,1,0.699786480604,,,,,,2015_Nov_26_1452,P11,PLC_L_D2S1,NHG,60.0195638103,
stim/posf.jpg,stim/negf.jpg,stim/6.jpg,stim/2.jpg,stim/latef.jpg,EF,1,2,,,,,0,27,27,43,,,,,,,,,,,,,,2,1,0.499833550749,,,,,,2015_Nov_26_1452,P11,PLC_L_D2S1,NHG,60.0195638103,
stim/negf.jpg,stim/posf.jpg,stim/2.jpg,stim/6.jpg,stim/latef.jpg,EF,2,4,,,,,0,28,28,58,,,,,,,,,,,,,,4,1,0.649728230132,,,,,,2015_Nov_26_1452,P11,PLC_L_D2S1,NHG,60.0195638103,
stim/posf.jpg,stim/negf.jpg,stim/2.jpg,stim/6.jpg,stim/latef.jpg,EF,2,4,,,,,0,29,29,50,,,,,,,,,,,,,,4,1,0.783077514164,,,,,,2015_Nov_26_1452,P11,PLC_L_D2S1,NHG,60.0195638103,
stim/posf.jpg,stim/negf.jpg,stim/4.jpg,stim/3.jpg,stim/latef.jpg,CD,2,4,,,,,0,30,30,36,,,,,,,,,,,,,,4,1,0.683147155483,,,,,,2015_Nov_26_1452,P11,PLC_L_D2S1,NHG,60.0195638103,
stim/negf.jpg,stim/posf.jpg,stim/2.jpg,stim/6.jpg,stim/latef.jpg,EF,2,4,,,,,0,31,31,59,,,,,,,,,,,,,,2,0,0.549827801942,,,,,,2015_Nov_26_1452,P11,PLC_L_D2S1,NHG,60.0195638103,
stim/negf.jpg,stim/posf.jpg,stim/2.jpg,stim/6.jpg,stim/latef.jpg,EF,2,4,,,,,0,32,32,57,,,,,,,,,,,,,,2,0,0.599800462401,,,,,,2015_Nov_26_1452,P11,PLC_L_D2S1,NHG,60.0195638103,
stim/posf.jpg,stim/negf.jpg,stim/6.jpg,stim/2.jpg,stim/latef.jpg,EF,1,2,,,,,0,33,33,45,,,,,,,,,,,,,,2,1,0.733127160221,,,,,,2015_Nov_26_1452,P11,PLC_L_D2S1,NHG,60.0195638103,
stim/posf.jpg,stim/negf.jpg,stim/5.jpg,stim/1.jpg,stim/latef.jpg,AB,1,2,,,,,0,34,34,6,,,,,,,,,,,,,,2,1,0.749739411962,,,,,,2015_Nov_26_1452,P11,PLC_L_D2S1,NHG,60.0195638103,
stim/negf.jpg,stim/posf.jpg,stim/4.jpg,stim/3.jpg,stim/latef.jpg,CD,2,4,,,,,0,35,35,38,,,,,,,,,,,,,,4,1,0.733049422751,,,,,,2015_Nov_26_1452,P11,PLC_L_D2S1,NHG,60.0195638103,
stim/posf.jpg,stim/negf.jpg,stim/1.jpg,stim/5.jpg,stim/latef.jpg,AB,2,4,,,,,0,36,36,17,,,,,,,,,,,,,,4,1,0.683098524452,,,,,,2015_Nov_26_1452,P11,PLC_L_D2S1,NHG,60.0195638103,
stim/posf.jpg,stim/negf.jpg,stim/1.jpg,stim/5.jpg,stim/latef.jpg,AB,2,4,,,,,0,37,37,14,,,,,,,,,,,,,,4,1,0.666472940531,,,,,,2015_Nov_26_1452,P11,PLC_L_D2S1,NHG,60.0195638103,
stim/posf.jpg,stim/negf.jpg,stim/2.jpg,stim/6.jpg,stim/latef.jpg,EF,2,4,,,,,0,38,38,54,,,,,,,,,,,,,,2,0,0.616478235208,,,,,,2015_Nov_26_1452,P11,PLC_L_D2S1,NHG,60.0195638103,
stim/posf.jpg,stim/negf.jpg,stim/3.jpg,stim/4.jpg,stim/latef.jpg,CD,1,2,,,,,0,39,39,20,,,,,,,,,,,,,,2,1,0.799725416631,,,,,,2015_Nov_26_1452,P11,PLC_L_D2S1,NHG,60.0195638103,
stim/posf.jpg,stim/negf.jpg,stim/3.jpg,stim/4.jpg,stim/latef.jpg,CD,1,2,,,,,0,40,40,25,,,,,,,,,,,,,,2,1,0.71644557693,,,,,,2015_Nov_26_1452,P11,PLC_L_D2S1,NHG,60.0195638103,
stim/posf.jpg,stim/negf.jpg,stim/2.jpg,stim/6.jpg,stim/latef.jpg,EF,2,4,,,,,0,41,41,55,,,,,,,,,,,,,,4,1,0.599789662523,,,,,,2015_Nov_26_1452,P11,PLC_L_D2S1,NHG,60.0195638103,
stim/negf.jpg,stim/posf.jpg,stim/3.jpg,stim/4.jpg,stim/latef.jpg,CD,1,2,,,,,0,42,42,27,,,,,,,,,,,,,,2,1,0.583136942065,,,,,,2015_Nov_26_1452,P11,PLC_L_D2S1,NHG,60.0195638103,
stim/posf.jpg,stim/negf.jpg,stim/5.jpg,stim/1.jpg,stim/latef.jpg,AB,1,2,,,,,0,43,43,3,,,,,,,,,,,,,,2,1,0.766431557539,,,,,,2015_Nov_26_1452,P11,PLC_L_D2S1,NHG,60.0195638103,
stim/negf.jpg,stim/posf.jpg,stim/6.jpg,stim/2.jpg,stim/latef.jpg,EF,1,2,,,,,0,44,44,47,,,,,,,,,,,,,,2,1,0.766407214956,,,,,,2015_Nov_26_1452,P11,PLC_L_D2S1,NHG,60.0195638103,
stim/negf.jpg,stim/posf.jpg,stim/1.jpg,stim/5.jpg,stim/latef.jpg,AB,2,4,,,,,0,45,45,19,,,,,,,,,,,,,,4,1,0.583131513554,,,,,,2015_Nov_26_1452,P11,PLC_L_D2S1,NHG,60.0195638103,
stim/posf.jpg,stim/negf.jpg,stim/4.jpg,stim/3.jpg,stim/latef.jpg,CD,2,4,,,,,0,46,46,33,,,,,,,,,,,,,,4,1,0.73305264076,,,,,,2015_Nov_26_1452,P11,PLC_L_D2S1,NHG,60.0195638103,
stim/negf.jpg,stim/posf.jpg,stim/1.jpg,stim/5.jpg,stim/latef.jpg,AB,2,4,,,,,0,47,47,18,,,,,,,,,,,,,,4,1,0.566467674425,,,,,,2015_Nov_26_1452,P11,PLC_L_D2S1,NHG,60.0195638103,
stim/posf.jpg,stim/negf.jpg,stim/3.jpg,stim/4.jpg,stim/latef.jpg,CD,1,2,,,,,0,48,48,22,,,,,,,,,,,,,,2,1,0.63315252234,,,,,,2015_Nov_26_1452,P11,PLC_L_D2S1,NHG,60.0195638103,
stim/posf.jpg,stim/negf.jpg,stim/4.jpg,stim/3.jpg,stim/latef.jpg,CD,2,4,,,,,0,49,49,34,,,,,,,,,,,,,,4,1,0.666457238452,,,,,,2015_Nov_26_1452,P11,PLC_L_D2S1,NHG,60.0195638103,
stim/negf.jpg,stim/posf.jpg,stim/5.jpg,stim/1.jpg,stim/latef.jpg,AB,1,2,,,,,0,50,50,9,,,,,,,,,,,,,,2,1,0.549818078744,,,,,,2015_Nov_26_1452,P11,PLC_L_D2S1,NHG,60.0195638103,
stim/posf.jpg,stim/negf.jpg,stim/4.jpg,stim/3.jpg,stim/latef.jpg,CD,2,4,,,,,0,51,51,35,,,,,,,,,,,,,,4,1,0.583192688805,,,,,,2015_Nov_26_1452,P11,PLC_L_D2S1,NHG,60.0195638103,
stim/posf.jpg,stim/negf.jpg,stim/5.jpg,stim/1.jpg,stim/latef.jpg,AB,1,2,,,,,0,52,52,1,,,,,,,,,,,,,,2,1,0.549820108796,,,,,,2015_Nov_26_1452,P11,PLC_L_D2S1,NHG,60.0195638103,
stim/posf.jpg,stim/negf.jpg,stim/5.jpg,stim/1.jpg,stim/latef.jpg,AB,1,2,,,,,0,53,53,5,,,,,,,,,,,,,,2,1,0.666392276778,,,,,,2015_Nov_26_1452,P11,PLC_L_D2S1,NHG,60.0195638103,
stim/negf.jpg,stim/posf.jpg,stim/4.jpg,stim/3.jpg,stim/latef.jpg,CD,2,4,,,,,0,54,54,39,,,,,,,,,,,,,,4,1,0.583127660966,,,,,,2015_Nov_26_1452,P11,PLC_L_D2S1,NHG,60.0195638103,
stim/posf.jpg,stim/negf.jpg,stim/5.jpg,stim/1.jpg,stim/latef.jpg,AB,1,2,,,,,0,55,55,7,,,,,,,,,,,,,,2,1,0.583086744135,,,,,,2015_Nov_26_1452,P11,PLC_L_D2S1,NHG,60.0195638103,
stim/negf.jpg,stim/posf.jpg,stim/3.jpg,stim/4.jpg,stim/latef.jpg,CD,1,2,,,,,0,56,56,28,,,,,,,,,,,,,,2,1,1.04961156378,,,,,,2015_Nov_26_1452,P11,PLC_L_D2S1,NHG,60.0195638103,
stim/negf.jpg,stim/posf.jpg,stim/4.jpg,stim/3.jpg,stim/latef.jpg,CD,2,4,,,,,0,57,57,37,,,,,,,,,,,,,,4,1,1.21626724811,,,,,,2015_Nov_26_1452,P11,PLC_L_D2S1,NHG,60.0195638103,
stim/negf.jpg,stim/posf.jpg,stim/5.jpg,stim/1.jpg,stim/latef.jpg,AB,1,2,,,,,0,58,58,8,,,,,,,,,,,,,,2,1,0.566480600594,,,,,,2015_Nov_26_1452,P11,PLC_L_D2S1,NHG,60.0195638103,
stim/negf.jpg,stim/posf.jpg,stim/3.jpg,stim/4.jpg,stim/latef.jpg,CD,1,2,,,,,0,59,59,29,,,,,,,,,,,,,,2,1,0.76646172562,,,,,,2015_Nov_26_1452,P11,PLC_L_D2S1,NHG,60.0195638103,
,,,,,,,,,,,,,,,,,,,,,,,,,,,,,,,,0.9984375,1.0,1,0,0,2015_Nov_26_1452,P11,PLC_L_D2S1,NHG,60.0195638103,
stim/negf.jpg,stim/posf.jpg,stim/3.jpg,stim/4.jpg,stim/latef.jpg,CD,1,2,,,,,,,,,0,0,0,27,,,,,,,,,,2,1,0.733076294628,,,,,,2015_Nov_26_1452,P11,PLC_L_D2S1,NHG,60.0195638103,
stim/posf.jpg,stim/negf.jpg,stim/3.jpg,stim/4.jpg,stim/latef.jpg,CD,1,2,,,,,,,,,0,1,1,21,,,,,,,,,,2,1,0.616421273445,,,,,,2015_Nov_26_1452,P11,PLC_L_D2S1,NHG,60.0195638103,
stim/negf.jpg,stim/posf.jpg,stim/2.jpg,stim/6.jpg,stim/latef.jpg,EF,2,4,,,,,,,,,0,2,2,59,,,,,,,,,,4,1,0.783066314289,,,,,,2015_Nov_26_1452,P11,PLC_L_D2S1,NHG,60.0195638103,
stim/negf.jpg,stim/posf.jpg,stim/2.jpg,stim/6.jpg,stim/latef.jpg,EF,2,4,,,,,,,,,0,3,3,58,,,,,,,,,,4,1,0.73310041165,,,,,,2015_Nov_26_1452,P11,PLC_L_D2S1,NHG,60.0195638103,
stim/negf.jpg,stim/posf.jpg,stim/4.jpg,stim/3.jpg,stim/latef.jpg,CD,2,4,,,,,,,,,0,4,4,38,,,,,,,,,,4,1,0.716394675248,,,,,,2015_Nov_26_1452,P11,PLC_L_D2S1,NHG,60.0195638103,
stim/posf.jpg,stim/negf.jpg,stim/3.jpg,stim/4.jpg,stim/latef.jpg,CD,1,2,,,,,,,,,0,5,5,25,,,,,,,,,,2,1,0.599786498648,,,,,,2015_Nov_26_1452,P11,PLC_L_D2S1,NHG,60.0195638103,
stim/negf.jpg,stim/posf.jpg,stim/2.jpg,stim/6.jpg,stim/latef.jpg,EF,2,4,,,,,,,,,0,6,6,57,,,,,,,,,,4,1,0.64977712883,,,,,,2015_Nov_26_1452,P11,PLC_L_D2S1,NHG,60.0195638103,
stim/posf.jpg,stim/negf.jpg,stim/1.jpg,stim/5.jpg,stim/latef.jpg,AB,2,4,,,,,,,,,0,7,7,11,,,,,,,,,,4,1,0.63311513028,,,,,,2015_Nov_26_1452,P11,PLC_L_D2S1,NHG,60.0195638103,
stim/posf.jpg,stim/negf.jpg,stim/6.jpg,stim/2.jpg,stim/latef.jpg,EF,1,2,,,,,,,,,0,8,8,43,,,,,,,,,,2,1,0.866389341474,,,,,,2015_Nov_26_1452,P11,PLC_L_D2S1,NHG,60.0195638103,
stim/posf.jpg,stim/negf.jpg,stim/2.jpg,stim/6.jpg,stim/latef.jpg,EF,2,4,,,,,,,,,0,9,9,55,,,,,,,,,,4,1,0.783025189942,,,,,,2015_Nov_26_1452,P11,PLC_L_D2S1,NHG,60.0195638103,
stim/posf.jpg,stim/negf.jpg,stim/1.jpg,stim/5.jpg,stim/latef.jpg,AB,2,4,,,,,,,,,0,10,10,10,,,,,,,,,,4,1,0.733132811284,,,,,,2015_Nov_26_1452,P11,PLC_L_D2S1,NHG,60.0195638103,
stim/posf.jpg,stim/negf.jpg,stim/4.jpg,stim/3.jpg,stim/latef.jpg,CD,2,4,,,,,,,,,0,11,11,32,,,,,,,,,,4,1,0.91634501265,,,,,,2015_Nov_26_1452,P11,PLC_L_D2S1,NHG,60.0195638103,
stim/posf.jpg,stim/negf.jpg,stim/5.jpg,stim/1.jpg,stim/latef.jpg,AB,1,2,,,,,,,,,0,12,12,6,,,,,,,,,,2,1,0.783064621076,,,,,,2015_Nov_26_1452,P11,PLC_L_D2S1,NHG,60.0195638103,
stim/posf.jpg,stim/negf.jpg,stim/2.jpg,stim/6.jpg,stim/latef.jpg,EF,2,4,,,,,,,,,0,13,13,50,,,,,,,,,,4,1,0.633138038293,,,,,,2015_Nov_26_1452,P11,PLC_L_D2S1,NHG,60.0195638103,
stim/posf.jpg,stim/negf.jpg,stim/3.jpg,stim/4.jpg,stim/latef.jpg,CD,1,2,,,,,,,,,0,14,14,26,,,,,,,,,,2,1,1.13295274715,,,,,,2015_Nov_26_1452,P11,PLC_L_D2S1,NHG,60.0195638103,
stim/negf.jpg,stim/posf.jpg,stim/5.jpg,stim/1.jpg,stim/latef.jpg,AB,1,2,,,,,,,,,0,15,15,8,,,,,,,,,,2,1,0.566455485089,,,,,,2015_Nov_26_1452,P11,PLC_L_D2S1,NHG,60.0195638103,
stim/posf.jpg,stim/negf.jpg,stim/1.jpg,stim/5.jpg,stim/latef.jpg,AB,2,4,,,,,,,,,0,16,16,15,,,,,,,,,,4,1,0.549813744959,,,,,,2015_Nov_26_1452,P11,PLC_L_D2S1,NHG,60.0195638103,
stim/negf.jpg,stim/posf.jpg,stim/6.jpg,stim/2.jpg,stim/latef.jpg,EF,1,2,,,,,,,,,0,17,17,48,,,,,,,,,,2,1,0.633161078634,,,,,,2015_Nov_26_1452,P11,PLC_L_D2S1,NHG,60.0195638103,
stim/posf.jpg,stim/negf.jpg,stim/4.jpg,stim/3.jpg,stim/latef.jpg,CD,2,4,,,,,,,,,0,18,18,33,,,,,,,,,,4,1,0.766397494765,,,,,,2015_Nov_26_1452,P11,PLC_L_D2S1,NHG,60.0195638103,
stim/posf.jpg,stim/negf.jpg,stim/4.jpg,stim/3.jpg,stim/latef.jpg,CD,2,4,,,,,,,,,0,19,19,35,,,,,,,,,,4,1,0.949702233434,,,,,,2015_Nov_26_1452,P11,PLC_L_D2S1,NHG,60.0195638103,
stim/negf.jpg,stim/posf.jpg,stim/3.jpg,stim/4.jpg,stim/latef.jpg,CD,1,2,,,,,,,,,0,20,20,29,,,,,,,,,,2,1,0.616463706048,,,,,,2015_Nov_26_1452,P11,PLC_L_D2S1,NHG,60.0195638103,
stim/negf.jpg,stim/posf.jpg,stim/2.jpg,stim/6.jpg,stim/latef.jpg,EF,2,4,,,,,,,,,0,21,21,56,,,,,,,,,,4,1,0.683168752232,,,,,,2015_Nov_26_1452,P11,PLC_L_D2S1,NHG,60.0195638103,
stim/posf.jpg,stim/negf.jpg,stim/5.jpg,stim/1.jpg,stim/latef.jpg,AB,1,2,,,,,,,,,0,22,22,5,,,,,,,,,,2,1,0.799724132435,,,,,,2015_Nov_26_1452,P11,PLC_L_D2S1,NHG,60.0195638103,
stim/posf.jpg,stim/negf.jpg,stim/2.jpg,stim/6.jpg,stim/latef.jpg,EF,2,4,,,,,,,,,0,23,23,52,,,,,,,,,,4,1,0.849745132198,,,,,,2015_Nov_26_1452,P11,PLC_L_D2S1,NHG,60.0195638103,
stim/posf.jpg,stim/negf.jpg,stim/2.jpg,stim/6.jpg,stim/latef.jpg,EF,2,4,,,,,,,,,0,24,24,54,,,,,,,,,,4,1,0.799739251062,,,,,,2015_Nov_26_1452,P11,PLC_L_D2S1,NHG,60.0195638103,
stim/negf.jpg,stim/posf.jpg,stim/1.jpg,stim/5.jpg,stim/latef.jpg,AB,2,4,,,,,,,,,0,25,25,18,,,,,,,,,,4,1,0.599771542426,,,,,,2015_Nov_26_1452,P11,PLC_L_D2S1,NHG,60.0195638103,
stim/posf.jpg,stim/negf.jpg,stim/6.jpg,stim/2.jpg,stim/latef.jpg,EF,1,2,,,,,,,,,0,26,26,45,,,,,,,,,,2,1,0.583156884696,,,,,,2015_Nov_26_1452,P11,PLC_L_D2S1,NHG,60.0195638103,
stim/negf.jpg,stim/posf.jpg,stim/6.jpg,stim/2.jpg,stim/latef.jpg,EF,1,2,,,,,,,,,0,27,27,47,,,,,,,,,,2,1,0.516543422443,,,,,,2015_Nov_26_1452,P11,PLC_L_D2S1,NHG,60.0195638103,
stim/posf.jpg,stim/negf.jpg,stim/4.jpg,stim/3.jpg,stim/latef.jpg,CD,2,4,,,,,,,,,0,28,28,34,,,,,,,,,,4,1,1.0996208133,,,,,,2015_Nov_26_1452,P11,PLC_L_D2S1,NHG,60.0195638103,
stim/posf.jpg,stim/negf.jpg,stim/1.jpg,stim/5.jpg,stim/latef.jpg,AB,2,4,,,,,,,,,0,29,29,17,,,,,,,,,,4,1,0.483185365579,,,,,,2015_Nov_26_1452,P11,PLC_L_D2S1,NHG,60.0195638103,
stim/posf.jpg,stim/negf.jpg,stim/3.jpg,stim/4.jpg,stim/latef.jpg,CD,1,2,,,,,,,,,0,30,30,22,,,,,,,,,,2,1,0.699776531844,,,,,,2015_Nov_26_1452,P11,PLC_L_D2S1,NHG,60.0195638103,
stim/posf.jpg,stim/negf.jpg,stim/3.jpg,stim/4.jpg,stim/latef.jpg,CD,1,2,,,,,,,,,0,31,31,23,,,,,,,,,,2,1,0.666501782311,,,,,,2015_Nov_26_1452,P11,PLC_L_D2S1,NHG,60.0195638103,
stim/posf.jpg,stim/negf.jpg,stim/1.jpg,stim/5.jpg,stim/latef.jpg,AB,2,4,,,,,,,,,0,32,32,16,,,,,,,,,,4,1,0.599781834039,,,,,,2015_Nov_26_1452,P11,PLC_L_D2S1,NHG,60.0195638103,
stim/posf.jpg,stim/negf.jpg,stim/5.jpg,stim/1.jpg,stim/latef.jpg,AB,1,2,,,,,,,,,0,33,33,2,,,,,,,,,,2,1,0.566402995455,,,,,,2015_Nov_26_1452,P11,PLC_L_D2S1,NHG,60.0195638103,
stim/posf.jpg,stim/negf.jpg,stim/5.jpg,stim/1.jpg,stim/latef.jpg,AB,1,2,,,,,,,,,0,34,34,3,,,,,,,,,,2,1,0.699758938057,,,,,,2015_Nov_26_1452,P11,PLC_L_D2S1,NHG,60.0195638103,
stim/negf.jpg,stim/posf.jpg,stim/4.jpg,stim/3.jpg,stim/latef.jpg,CD,2,4,,,,,,,,,0,35,35,39,,,,,,,,,,4,1,0.783089492976,,,,,,2015_Nov_26_1452,P11,PLC_L_D2S1,NHG,60.0195638103,
stim/posf.jpg,stim/negf.jpg,stim/5.jpg,stim/1.jpg,stim/latef.jpg,AB,1,2,,,,,,,,,0,36,36,0,,,,,,,,,,2,1,0.566501295099,,,,,,2015_Nov_26_1452,P11,PLC_L_D2S1,NHG,60.0195638103,
stim/negf.jpg,stim/posf.jpg,stim/6.jpg,stim/2.jpg,stim/latef.jpg,EF,1,2,,,,,,,,,0,37,37,46,,,,,,,,,,2,1,0.716419896016,,,,,,2015_Nov_26_1452,P11,PLC_L_D2S1,NHG,60.0195638103,
stim/posf.jpg,stim/negf.jpg,stim/4.jpg,stim/3.jpg,stim/latef.jpg,CD,2,4,,,,,,,,,0,38,38,30,,,,,,,,,,4,1,0.799745966775,,,,,,2015_Nov_26_1452,P11,PLC_L_D2S1,NHG,60.0195638103,
stim/negf.jpg,stim/posf.jpg,stim/6.jpg,stim/2.jpg,stim/latef.jpg,EF,1,2,,,,,,,,,0,39,39,49,,,,,,,,,,2,1,0.699754189238,,,,,,2015_Nov_26_1452,P11,PLC_L_D2S1,NHG,60.0195638103,
stim/posf.jpg,stim/negf.jpg,stim/3.jpg,stim/4.jpg,stim/latef.jpg,CD,1,2,,,,,,,,,0,40,40,20,,,,,,,,,,2,1,1.04965774973,,,,,,2015_Nov_26_1452,P11,PLC_L_D2S1,NHG,60.0195638103,
stim/posf.jpg,stim/negf.jpg,stim/5.jpg,stim/1.jpg,stim/latef.jpg,AB,1,2,,,,,,,,,0,41,41,7,,,,,,,,,,2,1,0.633124955733,,,,,,2015_Nov_26_1452,P11,PLC_L_D2S1,NHG,60.0195638103,
stim/posf.jpg,stim/negf.jpg,stim/5.jpg,stim/1.jpg,stim/latef.jpg,AB,1,2,,,,,,,,,0,42,42,4,,,,,,,,,,2,1,0.649768551482,,,,,,2015_Nov_26_1452,P11,PLC_L_D2S1,NHG,60.0195638103,
stim/posf.jpg,stim/negf.jpg,stim/6.jpg,stim/2.jpg,stim/latef.jpg,EF,1,2,,,,,,,,,0,43,43,44,,,,,,,,,,2,1,0.866392096329,,,,,,2015_Nov_26_1452,P11,PLC_L_D2S1,NHG,60.0195638103,
stim/posf.jpg,stim/negf.jpg,stim/6.jpg,stim/2.jpg,stim/latef.jpg,EF,1,2,,,,,,,,,0,44,44,40,,,,,,,,,,2,1,0.716424211757,,,,,,2015_Nov_26_1452,P11,PLC_L_D2S1,NHG,60.0195638103,
stim/posf.jpg,stim/negf.jpg,stim/6.jpg,stim/2.jpg,stim/latef.jpg,EF,1,2,,,,,,,,,0,45,45,41,,,,,,,,,,2,1,0.516486590001,,,,,,2015_Nov_26_1452,P11,PLC_L_D2S1,NHG,60.0195638103,
stim/posf.jpg,stim/negf.jpg,stim/5.jpg,stim/1.jpg,stim/latef.jpg,AB,1,2,,,,,,,,,0,46,46,1,,,,,,,,,,2,1,0.566443903264,,,,,,2015_Nov_26_1452,P11,PLC_L_D2S1,NHG,60.0195638103,
stim/posf.jpg,stim/negf.jpg,stim/3.jpg,stim/4.jpg,stim/latef.jpg,CD,1,2,,,,,,,,,0,47,47,24,,,,,,,,,,2,1,0.699735061635,,,,,,2015_Nov_26_1452,P11,PLC_L_D2S1,NHG,60.0195638103,
stim/negf.jpg,stim/posf.jpg,stim/4.jpg,stim/3.jpg,stim/latef.jpg,CD,2,4,,,,,,,,,0,48,48,37,,,,,,,,,,4,1,0.966366929696,,,,,,2015_Nov_26_1452,P11,PLC_L_D2S1,NHG,60.0195638103,
stim/posf.jpg,stim/negf.jpg,stim/2.jpg,stim/6.jpg,stim/latef.jpg,EF,2,4,,,,,,,,,0,49,49,53,,,,,,,,,,4,1,0.882999884963,,,,,,2015_Nov_26_1452,P11,PLC_L_D2S1,NHG,60.0195638103,
stim/negf.jpg,stim/posf.jpg,stim/1.jpg,stim/5.jpg,stim/latef.jpg,AB,2,4,,,,,,,,,0,50,50,19,,,,,,,,,,4,1,0.79973906159,,,,,,2015_Nov_26_1452,P11,PLC_L_D2S1,NHG,60.0195638103,
stim/posf.jpg,stim/negf.jpg,stim/1.jpg,stim/5.jpg,stim/latef.jpg,AB,2,4,,,,,,,,,0,51,51,12,,,,,,,,,,4,1,0.66644642053,,,,,,2015_Nov_26_1452,P11,PLC_L_D2S1,NHG,60.0195638103,
stim/negf.jpg,stim/posf.jpg,stim/3.jpg,stim/4.jpg,stim/latef.jpg,CD,1,2,,,,,,,,,0,52,52,28,,,,,,,,,,2,1,0.683105306332,,,,,,2015_Nov_26_1452,P11,PLC_L_D2S1,NHG,60.0195638103,
stim/posf.jpg,stim/negf.jpg,stim/6.jpg,stim/2.jpg,stim/latef.jpg,EF,1,2,,,,,,,,,0,53,53,42,,,,,,,,,,2,1,0.633124402356,,,,,,2015_Nov_26_1452,P11,PLC_L_D2S1,NHG,60.0195638103,
stim/posf.jpg,stim/negf.jpg,stim/4.jpg,stim/3.jpg,stim/latef.jpg,CD,2,4,,,,,,,,,0,54,54,36,,,,,,,,,,4,1,0.66642433356,,,,,,2015_Nov_26_1452,P11,PLC_L_D2S1,NHG,60.0195638103,
stim/posf.jpg,stim/negf.jpg,stim/4.jpg,stim/3.jpg,stim/latef.jpg,CD,2,4,,,,,,,,,0,55,55,31,,,,,,,,,,4,1,0.583151191528,,,,,,2015_Nov_26_1452,P11,PLC_L_D2S1,NHG,60.0195638103,
stim/posf.jpg,stim/negf.jpg,stim/2.jpg,stim/6.jpg,stim/latef.jpg,EF,2,4,,,,,,,,,0,56,56,51,,,,,,,,,,4,1,0.683108605542,,,,,,2015_Nov_26_1452,P11,PLC_L_D2S1,NHG,60.0195638103,
stim/posf.jpg,stim/negf.jpg,stim/1.jpg,stim/5.jpg,stim/latef.jpg,AB,2,4,,,,,,,,,0,57,57,13,,,,,,,,,,4,1,0.599764153036,,,,,,2015_Nov_26_1452,P11,PLC_L_D2S1,NHG,60.0195638103,
stim/negf.jpg,stim/posf.jpg,stim/5.jpg,stim/1.jpg,stim/latef.jpg,AB,1,2,,,,,,,,,0,58,58,9,,,,,,,,,,2,1,0.666436516882,,,,,,2015_Nov_26_1452,P11,PLC_L_D2S1,NHG,60.0195638103,
stim/posf.jpg,stim/negf.jpg,stim/1.jpg,stim/5.jpg,stim/latef.jpg,AB,2,4,,,,,,,,,0,59,59,14,,,,,,,,,,4,1,0.849710732586,,,,,,2015_Nov_26_1452,P11,PLC_L_D2S1,NHG,60.0195638103,
,,,,,,,,,,,,,,,,,,,,,,,,,,,,,,,,0.9984375,1.0,1,0,0,2015_Nov_26_1452,P11,PLC_L_D2S1,NHG,60.0195638103,
stim/posf.jpg,stim/negf.jpg,stim/6.jpg,stim/2.jpg,stim/latef.jpg,EF,1,2,,,,,,,,,,,,,0,0,0,42,,,,,,2,1,0.749754401266,,,,,,2015_Nov_26_1452,P11,PLC_L_D2S1,NHG,60.0195638103,
stim/posf.jpg,stim/negf.jpg,stim/2.jpg,stim/6.jpg,stim/latef.jpg,EF,2,4,,,,,,,,,,,,,0,1,1,50,,,,,,4,1,0.933082950192,,,,,,2015_Nov_26_1452,P11,PLC_L_D2S1,NHG,60.0195638103,
stim/negf.jpg,stim/posf.jpg,stim/3.jpg,stim/4.jpg,stim/latef.jpg,CD,1,2,,,,,,,,,,,,,0,2,2,27,,,,,,2,1,0.716431471826,,,,,,2015_Nov_26_1452,P11,PLC_L_D2S1,NHG,60.0195638103,
stim/posf.jpg,stim/negf.jpg,stim/2.jpg,stim/6.jpg,stim/latef.jpg,EF,2,4,,,,,,,,,,,,,0,3,3,51,,,,,,4,1,0.716419291512,,,,,,2015_Nov_26_1452,P11,PLC_L_D2S1,NHG,60.0195638103,
stim/posf.jpg,stim/negf.jpg,stim/2.jpg,stim/6.jpg,stim/latef.jpg,EF,2,4,,,,,,,,,,,,,0,4,4,54,,,,,,4,1,0.566449737785,,,,,,2015_Nov_26_1452,P11,PLC_L_D2S1,NHG,60.0195638103,
stim/posf.jpg,stim/negf.jpg,stim/4.jpg,stim/3.jpg,stim/latef.jpg,CD,2,4,,,,,,,,,,,,,0,5,5,31,,,,,,4,1,0.73308990049,,,,,,2015_Nov_26_1452,P11,PLC_L_D2S1,NHG,60.0195638103,
stim/negf.jpg,stim/posf.jpg,stim/4.jpg,stim/3.jpg,stim/latef.jpg,CD,2,4,,,,,,,,,,,,,0,6,6,38,,,,,,4,1,0.616482039676,,,,,,2015_Nov_26_1452,P11,PLC_L_D2S1,NHG,60.0195638103,
stim/posf.jpg,stim/negf.jpg,stim/1.jpg,stim/5.jpg,stim/latef.jpg,AB,2,4,,,,,,,,,,,,,0,7,7,12,,,,,,4,1,0.583112719782,,,,,,2015_Nov_26_1452,P11,PLC_L_D2S1,NHG,60.0195638103,
stim/posf.jpg,stim/negf.jpg,stim/1.jpg,stim/5.jpg,stim/latef.jpg,AB,2,4,,,,,,,,,,,,,0,8,8,11,,,,,,4,1,0.5331551178,,,,,,2015_Nov_26_1452,P11,PLC_L_D2S1,NHG,60.0195638103,
stim/posf.jpg,stim/negf.jpg,stim/6.jpg,stim/2.jpg,stim/latef.jpg,EF,1,2,,,,,,,,,,,,,0,9,9,40,,,,,,2,1,0.599833695109,,,,,,2015_Nov_26_1452,P11,PLC_L_D2S1,NHG,60.0195638103,
stim/posf.jpg,stim/negf.jpg,stim/2.jpg,stim/6.jpg,stim/latef.jpg,EF,2,4,,,,,,,,,,,,,0,10,10,52,,,,,,4,1,0.549805711966,,,,,,2015_Nov_26_1452,P11,PLC_L_D2S1,NHG,60.0195638103,
stim/negf.jpg,stim/posf.jpg,stim/2.jpg,stim/6.jpg,stim/latef.jpg,EF,2,4,,,,,,,,,,,,,0,11,11,57,,,,,,4,1,0.583075673582,,,,,,2015_Nov_26_1452,P11,PLC_L_D2S1,NHG,60.0195638103,
stim/negf.jpg,stim/posf.jpg,stim/5.jpg,stim/1.jpg,stim/latef.jpg,AB,1,2,,,,,,,,,,,,,0,12,12,8,,,,,,2,1,0.516471841294,,,,,,2015_Nov_26_1452,P11,PLC_L_D2S1,NHG,60.0195638103,
stim/posf.jpg,stim/negf.jpg,stim/4.jpg,stim/3.jpg,stim/latef.jpg,CD,2,4,,,,,,,,,,,,,0,13,13,34,,,,,,4,1,0.533145553997,,,,,,2015_Nov_26_1452,P11,PLC_L_D2S1,NHG,60.0195638103,
stim/posf.jpg,stim/negf.jpg,stim/1.jpg,stim/5.jpg,stim/latef.jpg,AB,2,4,,,,,,,,,,,,,0,14,14,16,,,,,,4,1,0.533157496719,,,,,,2015_Nov_26_1452,P11,PLC_L_D2S1,NHG,60.0195638103,
stim/negf.jpg,stim/posf.jpg,stim/3.jpg,stim/4.jpg,stim/latef.jpg,CD,1,2,,,,,,,,,,,,,0,15,15,29,,,,,,2,1,0.616457375292,,,,,,2015_Nov_26_1452,P11,PLC_L_D2S1,NHG,60.0195638103,
stim/negf.jpg,stim/posf.jpg,stim/2.jpg,stim/6.jpg,stim/latef.jpg,EF,2,4,,,,,,,,,,,,,0,16,16,58,,,,,,4,1,0.916367394352,,,,,,2015_Nov_26_1452,P11,PLC_L_D2S1,NHG,60.0195638103,
stim/posf.jpg,stim/negf.jpg,stim/4.jpg,stim/3.jpg,stim/latef.jpg,CD,2,4,,,,,,,,,,,,,0,17,17,30,,,,,,4,1,0.76641182543,,,,,,2015_Nov_26_1452,P11,PLC_L_D2S1,NHG,60.0195638103,
stim/posf.jpg,stim/negf.jpg,stim/4.jpg,stim/3.jpg,stim/latef.jpg,CD,2,4,,,,,,,,,,,,,0,18,18,32,,,,,,4,1,0.616447095709,,,,,,2015_Nov_26_1452,P11,PLC_L_D2S1,NHG,60.0195638103,
stim/negf.jpg,stim/posf.jpg,stim/5.jpg,stim/1.jpg,stim/latef.jpg,AB,1,2,,,,,,,,,,,,,0,19,19,9,,,,,,2,1,0.533154459161,,,,,,2015_Nov_26_1452,P11,PLC_L_D2S1,NHG,60.0195638103,
stim/posf.jpg,stim/negf.jpg,stim/4.jpg,stim/3.jpg,stim/latef.jpg,CD,2,4,,,,,,,,,,,,,0,20,20,36,,,,,,4,1,0.599816931388,,,,,,2015_Nov_26_1452,P11,PLC_L_D2S1,NHG,60.0195638103,
stim/posf.jpg,stim/negf.jpg,stim/1.jpg,stim/5.jpg,stim/latef.jpg,AB,2,4,,,,,,,,,,,,,0,21,21,17,,,,,,4,1,0.533142215689,,,,,,2015_Nov_26_1452,P11,PLC_L_D2S1,NHG,60.0195638103,
stim/posf.jpg,stim/negf.jpg,stim/2.jpg,stim/6.jpg,stim/latef.jpg,EF,2,4,,,,,,,,,,,,,0,22,22,55,,,,,,4,1,0.783063102296,,,,,,2015_Nov_26_1452,P11,PLC_L_D2S1,NHG,60.0195638103,
stim/posf.jpg,stim/negf.jpg,stim/1.jpg,stim/5.jpg,stim/latef.jpg,AB,2,4,,,,,,,,,,,,,0,23,23,13,,,,,,4,1,0.516480235186,,,,,,2015_Nov_26_1452,P11,PLC_L_D2S1,NHG,60.0195638103,
stim/negf.jpg,stim/posf.jpg,stim/4.jpg,stim/3.jpg,stim/latef.jpg,CD,2,4,,,,,,,,,,,,,0,24,24,37,,,,,,4,1,0.899702325162,,,,,,2015_Nov_26_1452,P11,PLC_L_D2S1,NHG,60.0195638103,
stim/posf.jpg,stim/negf.jpg,stim/6.jpg,stim/2.jpg,stim/latef.jpg,EF,1,2,,,,,,,,,,,,,0,25,25,43,,,,,,2,1,1.14958764525,,,,,,2015_Nov_26_1452,P11,PLC_L_D2S1,NHG,60.0195638103,
stim/negf.jpg,stim/posf.jpg,stim/1.jpg,stim/5.jpg,stim/latef.jpg,AB,2,4,,,,,,,,,,,,,0,26,26,18,,,,,,4,1,0.566413783304,,,,,,2015_Nov_26_1452,P11,PLC_L_D2S1,NHG,60.0195638103,
stim/negf.jpg,stim/posf.jpg,stim/4.jpg,stim/3.jpg,stim/latef.jpg,CD,2,4,,,,,,,,,,,,,0,27,27,39,,,,,,4,1,0.599804901448,,,,,,2015_Nov_26_1452,P11,PLC_L_D2S1,NHG,60.0195638103,
stim/posf.jpg,stim/negf.jpg,stim/3.jpg,stim/4.jpg,stim/latef.jpg,CD,1,2,,,,,,,,,,,,,0,28,28,20,,,,,,2,1,0.833094901937,,,,,,2015_Nov_26_1452,P11,PLC_L_D2S1,NHG,60.0195638103,
stim/posf.jpg,stim/negf.jpg,stim/6.jpg,stim/2.jpg,stim/latef.jpg,EF,1,2,,,,,,,,,,,,,0,29,29,45,,,,,,2,1,1.16630428379,,,,,,2015_Nov_26_1452,P11,PLC_L_D2S1,NHG,60.0195638103,
stim/posf.jpg,stim/negf.jpg,stim/5.jpg,stim/1.jpg,stim/latef.jpg,AB,1,2,,,,,,,,,,,,,0,30,30,2,,,,,,2,1,0.849735559374,,,,,,2015_Nov_26_1452,P11,PLC_L_D2S1,NHG,60.0195638103,
stim/posf.jpg,stim/negf.jpg,stim/3.jpg,stim/4.jpg,stim/latef.jpg,CD,1,2,,,,,,,,,,,,,0,31,31,26,,,,,,2,1,0.966357468149,,,,,,2015_Nov_26_1452,P11,PLC_L_D2S1,NHG,60.0195638103,
stim/posf.jpg,stim/negf.jpg,stim/3.jpg,stim/4.jpg,stim/latef.jpg,CD,1,2,,,,,,,,,,,,,0,32,32,23,,,,,,2,1,0.949682690797,,,,,,2015_Nov_26_1452,P11,PLC_L_D2S1,NHG,60.0195638103,
stim/posf.jpg,stim/negf.jpg,stim/5.jpg,stim/1.jpg,stim/latef.jpg,AB,1,2,,,,,,,,,,,,,0,33,33,1,,,,,,2,1,0.966326184291,,,,,,2015_Nov_26_1452,P11,PLC_L_D2S1,NHG,60.0195638103,
stim/posf.jpg,stim/negf.jpg,stim/4.jpg,stim/3.jpg,stim/latef.jpg,CD,2,4,,,,,,,,,,,,,0,34,34,35,,,,,,4,1,0.666451115213,,,,,,2015_Nov_26_1452,P11,PLC_L_D2S1,NHG,60.0195638103,
stim/posf.jpg,stim/negf.jpg,stim/1.jpg,stim/5.jpg,stim/latef.jpg,AB,2,4,,,,,,,,,,,,,0,35,35,10,,,,,,4,1,0.533163084627,,,,,,2015_Nov_26_1452,P11,PLC_L_D2S1,NHG,60.0195638103,
stim/negf.jpg,stim/posf.jpg,stim/6.jpg,stim/2.jpg,stim/latef.jpg,EF,1,2,,,,,,,,,,,,,0,36,36,48,,,,,,2,1,0.499825355353,,,,,,2015_Nov_26_1452,P11,PLC_L_D2S1,NHG,60.0195638103,
stim/negf.jpg,stim/posf.jpg,stim/6.jpg,stim/2.jpg,stim/latef.jpg,EF,1,2,,,,,,,,,,,,,0,37,37,49,,,,,,2,1,0.63312261591,,,,,,2015_Nov_26_1452,P11,PLC_L_D2S1,NHG,60.0195638103,
stim/posf.jpg,stim/negf.jpg,stim/5.jpg,stim/1.jpg,stim/latef.jpg,AB,1,2,,,,,,,,,,,,,0,38,38,7,,,,,,2,1,0.616467802242,,,,,,2015_Nov_26_1452,P11,PLC_L_D2S1,NHG,60.0195638103,
stim/posf.jpg,stim/negf.jpg,stim/4.jpg,stim/3.jpg,stim/latef.jpg,CD,2,4,,,,,,,,,,,,,0,39,39,33,,,,,,4,1,0.783071228519,,,,,,2015_Nov_26_1452,P11,PLC_L_D2S1,NHG,60.0195638103,
stim/negf.jpg,stim/posf.jpg,stim/6.jpg,stim/2.jpg,stim/latef.jpg,EF,1,2,,,,,,,,,,,,,0,40,40,47,,,,,,2,1,0.866409172829,,,,,,2015_Nov_26_1452,P11,PLC_L_D2S1,NHG,60.0195638103,
stim/posf.jpg,stim/negf.jpg,stim/1.jpg,stim/5.jpg,stim/latef.jpg,AB,2,4,,,,,,,,,,,,,0,41,41,15,,,,,,4,1,0.849766343989,,,,,,2015_Nov_26_1452,P11,PLC_L_D2S1,NHG,60.0195638103,
stim/negf.jpg,stim/posf.jpg,stim/2.jpg,stim/6.jpg,stim/latef.jpg,EF,2,4,,,,,,,,,,,,,0,42,42,56,,,,,,4,1,1.01633702477,,,,,,2015_Nov_26_1452,P11,PLC_L_D2S1,NHG,60.0195638103,
stim/posf.jpg,stim/negf.jpg,stim/5.jpg,stim/1.jpg,stim/latef.jpg,AB,1,2,,,,,,,,,,,,,0,43,43,5,,,,,,2,1,0.733074303674,,,,,,2015_Nov_26_1452,P11,PLC_L_D2S1,NHG,60.0195638103,
stim/posf.jpg,stim/negf.jpg,stim/5.jpg,stim/1.jpg,stim/latef.jpg,AB,1,2,,,,,,,,,,,,,0,44,44,6,,,,,,2,1,0.583130827848,,,,,,2015_Nov_26_1452,P11,PLC_L_D2S1,NHG,60.0195638103,
stim/posf.jpg,stim/negf.jpg,stim/3.jpg,stim/4.jpg,stim/latef.jpg,CD,1,2,,,,,,,,,,,,,0,45,45,24,,,,,,2,1,0.916366603385,,,,,,2015_Nov_26_1452,P11,PLC_L_D2S1,NHG,60.0195638103,
stim/posf.jpg,stim/negf.jpg,stim/3.jpg,stim/4.jpg,stim/latef.jpg,CD,1,2,,,,,,,,,,,,,0,46,46,22,,,,,,2,1,0.616430885366,,,,,,2015_Nov_26_1452,P11,PLC_L_D2S1,NHG,60.0195638103,
stim/negf.jpg,stim/posf.jpg,stim/6.jpg,stim/2.jpg,stim/latef.jpg,EF,1,2,,,,,,,,,,,,,0,47,47,46,,,,,,2,1,0.54979957369,,,,,,2015_Nov_26_1452,P11,PLC_L_D2S1,NHG,60.0195638103,
stim/posf.jpg,stim/negf.jpg,stim/2.jpg,stim/6.jpg,stim/latef.jpg,EF,2,4,,,,,,,,,,,,,0,48,48,53,,,,,,4,1,0.799726718872,,,,,,2015_Nov_26_1452,P11,PLC_L_D2S1,NHG,60.0195638103,
stim/posf.jpg,stim/negf.jpg,stim/3.jpg,stim/4.jpg,stim/latef.jpg,CD,1,2,,,,,,,,,,,,,0,49,49,25,,,,,,2,1,0.566466600752,,,,,,2015_Nov_26_1452,P11,PLC_L_D2S1,NHG,60.0195638103,
stim/posf.jpg,stim/negf.jpg,stim/5.jpg,stim/1.jpg,stim/latef.jpg,AB,1,2,,,,,,,,,,,,,0,50,50,0,,,,,,2,1,0.51653753078,,,,,,2015_Nov_26_1452,P11,PLC_L_D2S1,NHG,60.0195638103,
stim/negf.jpg,stim/posf.jpg,stim/3.jpg,stim/4.jpg,stim/latef.jpg,CD,1,2,,,,,,,,,,,,,0,51,51,28,,,,,,2,1,0.666465166182,,,,,,2015_Nov_26_1452,P11,PLC_L_D2S1,NHG,60.0195638103,
stim/posf.jpg,stim/negf.jpg,stim/5.jpg,stim/1.jpg,stim/latef.jpg,AB,1,2,,,,,,,,,,,,,0,52,52,4,,,,,,2,1,1.09962795006,,,,,,2015_Nov_26_1452,P11,PLC_L_D2S1,NHG,60.0195638103,
stim/posf.jpg,stim/negf.jpg,stim/3.jpg,stim/4.jpg,stim/latef.jpg,CD,1,2,,,,,,,,,,,,,0,53,53,21,,,,,,2,1,0.833026328274,,,,,,2015_Nov_26_1452,P11,PLC_L_D2S1,NHG,60.0195638103,
stim/posf.jpg,stim/negf.jpg,stim/6.jpg,stim/2.jpg,stim/latef.jpg,EF,1,2,,,,,,,,,,,,,0,54,54,44,,,,,,2,1,0.73305901362,,,,,,2015_Nov_26_1452,P11,PLC_L_D2S1,NHG,60.0195638103,
stim/posf.jpg,stim/negf.jpg,stim/5.jpg,stim/1.jpg,stim/latef.jpg,AB,1,2,,,,,,,,,,,,,0,55,55,3,,,,,,2,1,0.633135142085,,,,,,2015_Nov_26_1452,P11,PLC_L_D2S1,NHG,60.0195638103,
stim/negf.jpg,stim/posf.jpg,stim/1.jpg,stim/5.jpg,stim/latef.jpg,AB,2,4,,,,,,,,,,,,,0,56,56,19,,,,,,4,1,0.583102864253,,,,,,2015_Nov_26_1452,P11,PLC_L_D2S1,NHG,60.0195638103,
stim/negf.jpg,stim/posf.jpg,stim/2.jpg,stim/6.jpg,stim/latef.jpg,EF,2,4,,,,,,,,,,,,,0,57,57,59,,,,,,4,1,1.04965266407,,,,,,2015_Nov_26_1452,P11,PLC_L_D2S1,NHG,60.0195638103,
stim/posf.jpg,stim/negf.jpg,stim/1.jpg,stim/5.jpg,stim/latef.jpg,AB,2,4,,,,,,,,,,,,,0,58,58,14,,,,,,4,1,0.766411963775,,,,,,2015_Nov_26_1452,P11,PLC_L_D2S1,NHG,60.0195638103,
stim/posf.jpg,stim/negf.jpg,stim/6.jpg,stim/2.jpg,stim/latef.jpg,EF,1,2,,,,,,,,,,,,,0,59,59,41,,,,,,2,1,0.683063869204,,,,,,2015_Nov_26_1452,P11,PLC_L_D2S1,NHG,60.0195638103,
