fb_corr,fb_incorr,symbol2,symbol1,fb_late,pair,position,correct,block_01.thisRepN,block_01.thisTrialN,block_01.thisN,block_01.thisIndex,block_02.thisRepN,block_02.thisTrialN,block_02.thisN,block_02.thisIndex,block_03.thisRepN,block_03.thisTrialN,block_03.thisN,block_03.thisIndex,block_04.thisRepN,block_04.thisTrialN,block_04.thisN,block_04.thisIndex,mouse.x,mouse.y,mouse.leftButton,mouse.midButton,mouse.rightButton,buttonBox_2.keys,buttonBox_2.corr,buttonBox_2.rt,mouse_2.x,mouse_2.y,mouse_2.leftButton,mouse_2.midButton,mouse_2.rightButton,date,Participant,expName,Group,frameRate,
,,,,,,,,,,,,,,,,,,,,,,,,0.9984375,1.0,1,0,0,,,,,,,,,2015_Dez_02_1431,P12,PLC_L_D2S1,NHG,60.0185375562,
stim/negf.jpg,stim/posf.jpg,stim/6.jpg,stim/4.jpg,stim/latef.jpg,CD,1,2,0,0,0,27,,,,,,,,,,,,,,,,,,4,0,0.999723135916,,,,,,2015_Dez_02_1431,P12,PLC_L_D2S1,NHG,60.0185375562,
stim/negf.jpg,stim/posf.jpg,stim/1.jpg,stim/5.jpg,stim/latef.jpg,EF,1,2,0,1,1,47,,,,,,,,,,,,,,,,,,2,1,1.24960330223,,,,,,2015_Dez_02_1431,P12,PLC_L_D2S1,NHG,60.0185375562,
stim/posf.jpg,stim/negf.jpg,stim/2.jpg,stim/3.jpg,stim/latef.jpg,AB,1,2,0,2,2,0,,,,,,,,,,,,,,,,,,4,0,1.1162988579,,,,,,2015_Dez_02_1431,P12,PLC_L_D2S1,NHG,60.0185375562,
stim/posf.jpg,stim/negf.jpg,stim/3.jpg,stim/2.jpg,stim/latef.jpg,AB,2,4,0,3,3,15,,,,,,,,,,,,,,,,,,2,0,0.883036825287,,,,,,2015_Dez_02_1431,P12,PLC_L_D2S1,NHG,60.0185375562,
stim/posf.jpg,stim/negf.jpg,stim/1.jpg,stim/5.jpg,stim/latef.jpg,EF,1,2,0,4,4,45,,,,,,,,,,,,,,,,,,4,0,0.933011781866,,,,,,2015_Dez_02_1431,P12,PLC_L_D2S1,NHG,60.0185375562,
stim/negf.jpg,stim/posf.jpg,stim/6.jpg,stim/4.jpg,stim/latef.jpg,CD,1,2,0,5,5,28,,,,,,,,,,,,,,,,,,4,0,0.933012648025,,,,,,2015_Dez_02_1431,P12,PLC_L_D2S1,NHG,60.0185375562,
stim/posf.jpg,stim/negf.jpg,stim/6.jpg,stim/4.jpg,stim/latef.jpg,CD,1,2,0,6,6,22,,,,,,,,,,,,,,,,,,4,0,1.03298128586,,,,,,2015_Dez_02_1431,P12,PLC_L_D2S1,NHG,60.0185375562,
stim/posf.jpg,stim/negf.jpg,stim/1.jpg,stim/5.jpg,stim/latef.jpg,EF,1,2,0,7,7,41,,,,,,,,,,,,,,,,,,4,0,1.09962624642,,,,,,2015_Dez_02_1431,P12,PLC_L_D2S1,NHG,60.0185375562,
stim/negf.jpg,stim/posf.jpg,stim/4.jpg,stim/6.jpg,stim/latef.jpg,CD,2,4,0,8,8,37,,,,,,,,,,,,,,,,,,2,0,1.36622225698,,,,,,2015_Dez_02_1431,P12,PLC_L_D2S1,NHG,60.0185375562,
stim/posf.jpg,stim/negf.jpg,stim/6.jpg,stim/4.jpg,stim/latef.jpg,CD,1,2,0,9,9,21,,,,,,,,,,,,,,,,,,4,0,1.03303928542,,,,,,2015_Dez_02_1431,P12,PLC_L_D2S1,NHG,60.0185375562,
stim/posf.jpg,stim/negf.jpg,stim/4.jpg,stim/6.jpg,stim/latef.jpg,CD,2,4,0,10,10,31,,,,,,,,,,,,,,,,,,4,1,0.81637065586,,,,,,2015_Dez_02_1431,P12,PLC_L_D2S1,NHG,60.0185375562,
stim/posf.jpg,stim/negf.jpg,stim/4.jpg,stim/6.jpg,stim/latef.jpg,CD,2,4,0,11,11,33,,,,,,,,,,,,,,,,,,4,1,0.882967920542,,,,,,2015_Dez_02_1431,P12,PLC_L_D2S1,NHG,60.0185375562,
stim/negf.jpg,stim/posf.jpg,stim/2.jpg,stim/3.jpg,stim/latef.jpg,AB,1,2,0,12,12,8,,,,,,,,,,,,,,,,,,2,1,1.51618606777,,,,,,2015_Dez_02_1431,P12,PLC_L_D2S1,NHG,60.0185375562,
stim/posf.jpg,stim/negf.jpg,stim/3.jpg,stim/2.jpg,stim/latef.jpg,AB,2,4,0,13,13,10,,,,,,,,,,,,,,,,,,4,1,1.21625425373,,,,,,2015_Dez_02_1431,P12,PLC_L_D2S1,NHG,60.0185375562,
stim/posf.jpg,stim/negf.jpg,stim/4.jpg,stim/6.jpg,stim/latef.jpg,CD,2,4,0,14,14,36,,,,,,,,,,,,,,,,,,4,1,1.13297257013,,,,,,2015_Dez_02_1431,P12,PLC_L_D2S1,NHG,60.0185375562,
stim/posf.jpg,stim/negf.jpg,stim/1.jpg,stim/5.jpg,stim/latef.jpg,EF,1,2,0,15,15,44,,,,,,,,,,,,,,,,,,4,0,1.19961970511,,,,,,2015_Dez_02_1431,P12,PLC_L_D2S1,NHG,60.0185375562,
stim/posf.jpg,stim/negf.jpg,stim/5.jpg,stim/1.jpg,stim/latef.jpg,EF,2,4,0,16,16,50,,,,,,,,,,,,,,,,,,2,0,1.61613802603,,,,,,2015_Dez_02_1431,P12,PLC_L_D2S1,NHG,60.0185375562,
stim/posf.jpg,stim/negf.jpg,stim/1.jpg,stim/5.jpg,stim/latef.jpg,EF,1,2,0,17,17,42,,,,,,,,,,,,,,,,,,2,1,1.49945465974,,,,,,2015_Dez_02_1431,P12,PLC_L_D2S1,NHG,60.0185375562,
stim/posf.jpg,stim/negf.jpg,stim/5.jpg,stim/1.jpg,stim/latef.jpg,EF,2,4,0,18,18,53,,,,,,,,,,,,,,,,,,4,1,0.783067769415,,,,,,2015_Dez_02_1431,P12,PLC_L_D2S1,NHG,60.0185375562,
stim/posf.jpg,stim/negf.jpg,stim/1.jpg,stim/5.jpg,stim/latef.jpg,EF,1,2,0,19,19,40,,,,,,,,,,,,,,,,,,2,1,0.716430195262,,,,,,2015_Dez_02_1431,P12,PLC_L_D2S1,NHG,60.0185375562,
stim/negf.jpg,stim/posf.jpg,stim/2.jpg,stim/3.jpg,stim/latef.jpg,AB,1,2,0,20,20,9,,,,,,,,,,,,,,,,,,2,1,1.56614381847,,,,,,2015_Dez_02_1431,P12,PLC_L_D2S1,NHG,60.0185375562,
stim/negf.jpg,stim/posf.jpg,stim/5.jpg,stim/1.jpg,stim/latef.jpg,EF,2,4,0,21,21,59,,,,,,,,,,,,,,,,,,2,0,1.61614099142,,,,,,2015_Dez_02_1431,P12,PLC_L_D2S1,NHG,60.0185375562,
stim/negf.jpg,stim/posf.jpg,stim/4.jpg,stim/6.jpg,stim/latef.jpg,CD,2,4,0,22,22,39,,,,,,,,,,,,,,,,,,4,1,1.36622281938,,,,,,2015_Dez_02_1431,P12,PLC_L_D2S1,NHG,60.0185375562,
stim/posf.jpg,stim/negf.jpg,stim/2.jpg,stim/3.jpg,stim/latef.jpg,AB,1,2,0,23,23,1,,,,,,,,,,,,,,,,,,2,1,1.63276143187,,,,,,2015_Dez_02_1431,P12,PLC_L_D2S1,NHG,60.0185375562,
stim/posf.jpg,stim/negf.jpg,stim/5.jpg,stim/1.jpg,stim/latef.jpg,EF,2,4,0,24,24,55,,,,,,,,,,,,,,,,,,2,0,1.18294201698,,,,,,2015_Dez_02_1431,P12,PLC_L_D2S1,NHG,60.0185375562,
stim/negf.jpg,stim/posf.jpg,stim/5.jpg,stim/1.jpg,stim/latef.jpg,EF,2,4,0,25,25,57,,,,,,,,,,,,,,,,,,2,0,0.932984524929,,,,,,2015_Dez_02_1431,P12,PLC_L_D2S1,NHG,60.0185375562,
stim/posf.jpg,stim/negf.jpg,stim/2.jpg,stim/3.jpg,stim/latef.jpg,AB,1,2,0,26,26,2,,,,,,,,,,,,,,,,,,2,1,1.04967469117,,,,,,2015_Dez_02_1431,P12,PLC_L_D2S1,NHG,60.0185375562,
stim/posf.jpg,stim/negf.jpg,stim/4.jpg,stim/6.jpg,stim/latef.jpg,CD,2,4,0,27,27,34,,,,,,,,,,,,,,,,,,4,1,1.39954589514,,,,,,2015_Dez_02_1431,P12,PLC_L_D2S1,NHG,60.0185375562,
stim/posf.jpg,stim/negf.jpg,stim/6.jpg,stim/4.jpg,stim/latef.jpg,CD,1,2,0,28,28,20,,,,,,,,,,,,,,,,,,2,1,1.33296233863,,,,,,2015_Dez_02_1431,P12,PLC_L_D2S1,NHG,60.0185375562,
stim/negf.jpg,stim/posf.jpg,stim/1.jpg,stim/5.jpg,stim/latef.jpg,EF,1,2,0,29,29,48,,,,,,,,,,,,,,,,,,4,0,1.29957800317,,,,,,2015_Dez_02_1431,P12,PLC_L_D2S1,NHG,60.0185375562,
stim/negf.jpg,stim/posf.jpg,stim/3.jpg,stim/2.jpg,stim/latef.jpg,AB,2,4,0,30,30,19,,,,,,,,,,,,,,,,,,4,1,1.0663227675,,,,,,2015_Dez_02_1431,P12,PLC_L_D2S1,NHG,60.0185375562,
stim/posf.jpg,stim/negf.jpg,stim/3.jpg,stim/2.jpg,stim/latef.jpg,AB,2,4,0,31,31,14,,,,,,,,,,,,,,,,,,2,0,0.799673286667,,,,,,2015_Dez_02_1431,P12,PLC_L_D2S1,NHG,60.0185375562,
stim/negf.jpg,stim/posf.jpg,stim/1.jpg,stim/5.jpg,stim/latef.jpg,EF,1,2,0,32,32,46,,,,,,,,,,,,,,,,,,4,0,0.799716194615,,,,,,2015_Dez_02_1431,P12,PLC_L_D2S1,NHG,60.0185375562,
stim/posf.jpg,stim/negf.jpg,stim/5.jpg,stim/1.jpg,stim/latef.jpg,EF,2,4,0,33,33,52,,,,,,,,,,,,,,,,,,2,0,0.983026208826,,,,,,2015_Dez_02_1431,P12,PLC_L_D2S1,NHG,60.0185375562,
stim/negf.jpg,stim/posf.jpg,stim/5.jpg,stim/1.jpg,stim/latef.jpg,EF,2,4,0,34,34,56,,,,,,,,,,,,,,,,,,2,0,1.1329374907,,,,,,2015_Dez_02_1431,P12,PLC_L_D2S1,NHG,60.0185375562,
stim/posf.jpg,stim/negf.jpg,stim/2.jpg,stim/3.jpg,stim/latef.jpg,AB,1,2,0,35,35,4,,,,,,,,,,,,,,,,,,4,0,0.833066473185,,,,,,2015_Dez_02_1431,P12,PLC_L_D2S1,NHG,60.0185375562,
stim/posf.jpg,stim/negf.jpg,stim/3.jpg,stim/2.jpg,stim/latef.jpg,AB,2,4,0,36,36,11,,,,,,,,,,,,,,,,,,2,0,0.766385206126,,,,,,2015_Dez_02_1431,P12,PLC_L_D2S1,NHG,60.0185375562,
stim/posf.jpg,stim/negf.jpg,stim/1.jpg,stim/5.jpg,stim/latef.jpg,EF,1,2,0,37,37,43,,,,,,,,,,,,,,,,,,4,0,0.949692161713,,,,,,2015_Dez_02_1431,P12,PLC_L_D2S1,NHG,60.0185375562,
stim/posf.jpg,stim/negf.jpg,stim/3.jpg,stim/2.jpg,stim/latef.jpg,AB,2,4,0,38,38,12,,,,,,,,,,,,,,,,,,2,0,0.533157043932,,,,,,2015_Dez_02_1431,P12,PLC_L_D2S1,NHG,60.0185375562,
stim/posf.jpg,stim/negf.jpg,stim/6.jpg,stim/4.jpg,stim/latef.jpg,CD,1,2,0,39,39,24,,,,,,,,,,,,,,,,,,None,0,,,,,,,2015_Dez_02_1431,P12,PLC_L_D2S1,NHG,60.0185375562,
stim/negf.jpg,stim/posf.jpg,stim/1.jpg,stim/5.jpg,stim/latef.jpg,EF,1,2,0,40,40,49,,,,,,,,,,,,,,,,,,4,0,0.799682946745,,,,,,2015_Dez_02_1431,P12,PLC_L_D2S1,NHG,60.0185375562,
stim/posf.jpg,stim/negf.jpg,stim/2.jpg,stim/3.jpg,stim/latef.jpg,AB,1,2,0,41,41,3,,,,,,,,,,,,,,,,,,4,0,0.899691984271,,,,,,2015_Dez_02_1431,P12,PLC_L_D2S1,NHG,60.0185375562,
stim/posf.jpg,stim/negf.jpg,stim/3.jpg,stim/2.jpg,stim/latef.jpg,AB,2,4,0,42,42,13,,,,,,,,,,,,,,,,,,4,1,0.716433437343,,,,,,2015_Dez_02_1431,P12,PLC_L_D2S1,NHG,60.0185375562,
stim/posf.jpg,stim/negf.jpg,stim/2.jpg,stim/3.jpg,stim/latef.jpg,AB,1,2,0,43,43,6,,,,,,,,,,,,,,,,,,2,1,0.949688558733,,,,,,2015_Dez_02_1431,P12,PLC_L_D2S1,NHG,60.0185375562,
stim/posf.jpg,stim/negf.jpg,stim/4.jpg,stim/6.jpg,stim/latef.jpg,CD,2,4,0,44,44,32,,,,,,,,,,,,,,,,,,4,1,0.799730823077,,,,,,2015_Dez_02_1431,P12,PLC_L_D2S1,NHG,60.0185375562,
stim/negf.jpg,stim/posf.jpg,stim/3.jpg,stim/2.jpg,stim/latef.jpg,AB,2,4,0,45,45,18,,,,,,,,,,,,,,,,,,4,1,0.849709969098,,,,,,2015_Dez_02_1431,P12,PLC_L_D2S1,NHG,60.0185375562,
stim/posf.jpg,stim/negf.jpg,stim/6.jpg,stim/4.jpg,stim/latef.jpg,CD,1,2,0,46,46,26,,,,,,,,,,,,,,,,,,2,1,1.08297135811,,,,,,2015_Dez_02_1431,P12,PLC_L_D2S1,NHG,60.0185375562,
stim/posf.jpg,stim/negf.jpg,stim/3.jpg,stim/2.jpg,stim/latef.jpg,AB,2,4,0,47,47,16,,,,,,,,,,,,,,,,,,4,1,0.749716735964,,,,,,2015_Dez_02_1431,P12,PLC_L_D2S1,NHG,60.0185375562,
stim/posf.jpg,stim/negf.jpg,stim/5.jpg,stim/1.jpg,stim/latef.jpg,EF,2,4,0,48,48,51,,,,,,,,,,,,,,,,,,2,0,1.11629458124,,,,,,2015_Dez_02_1431,P12,PLC_L_D2S1,NHG,60.0185375562,
stim/posf.jpg,stim/negf.jpg,stim/2.jpg,stim/3.jpg,stim/latef.jpg,AB,1,2,0,49,49,5,,,,,,,,,,,,,,,,,,2,1,0.649784221171,,,,,,2015_Dez_02_1431,P12,PLC_L_D2S1,NHG,60.0185375562,
stim/posf.jpg,stim/negf.jpg,stim/3.jpg,stim/2.jpg,stim/latef.jpg,AB,2,4,0,50,50,17,,,,,,,,,,,,,,,,,,4,1,0.616465897249,,,,,,2015_Dez_02_1431,P12,PLC_L_D2S1,NHG,60.0185375562,
stim/negf.jpg,stim/posf.jpg,stim/6.jpg,stim/4.jpg,stim/latef.jpg,CD,1,2,0,51,51,29,,,,,,,,,,,,,,,,,,2,1,0.883020037443,,,,,,2015_Dez_02_1431,P12,PLC_L_D2S1,NHG,60.0185375562,
stim/posf.jpg,stim/negf.jpg,stim/6.jpg,stim/4.jpg,stim/latef.jpg,CD,1,2,0,52,52,25,,,,,,,,,,,,,,,,,,2,1,0.833055910858,,,,,,2015_Dez_02_1431,P12,PLC_L_D2S1,NHG,60.0185375562,
stim/posf.jpg,stim/negf.jpg,stim/5.jpg,stim/1.jpg,stim/latef.jpg,EF,2,4,0,53,53,54,,,,,,,,,,,,,,,,,,2,0,0.766409443538,,,,,,2015_Dez_02_1431,P12,PLC_L_D2S1,NHG,60.0185375562,
stim/negf.jpg,stim/posf.jpg,stim/5.jpg,stim/1.jpg,stim/latef.jpg,EF,2,4,0,54,54,58,,,,,,,,,,,,,,,,,,2,0,0.566438216254,,,,,,2015_Dez_02_1431,P12,PLC_L_D2S1,NHG,60.0185375562,
stim/posf.jpg,stim/negf.jpg,stim/6.jpg,stim/4.jpg,stim/latef.jpg,CD,1,2,0,55,55,23,,,,,,,,,,,,,,,,,,2,1,0.58314509515,,,,,,2015_Dez_02_1431,P12,PLC_L_D2S1,NHG,60.0185375562,
stim/posf.jpg,stim/negf.jpg,stim/2.jpg,stim/3.jpg,stim/latef.jpg,AB,1,2,0,56,56,7,,,,,,,,,,,,,,,,,,2,1,0.783058620612,,,,,,2015_Dez_02_1431,P12,PLC_L_D2S1,NHG,60.0185375562,
stim/posf.jpg,stim/negf.jpg,stim/4.jpg,stim/6.jpg,stim/latef.jpg,CD,2,4,0,57,57,30,,,,,,,,,,,,,,,,,,4,1,1.44952385621,,,,,,2015_Dez_02_1431,P12,PLC_L_D2S1,NHG,60.0185375562,
stim/posf.jpg,stim/negf.jpg,stim/4.jpg,stim/6.jpg,stim/latef.jpg,CD,2,4,0,58,58,35,,,,,,,,,,,,,,,,,,4,1,0.849702540582,,,,,,2015_Dez_02_1431,P12,PLC_L_D2S1,NHG,60.0185375562,
stim/negf.jpg,stim/posf.jpg,stim/4.jpg,stim/6.jpg,stim/latef.jpg,CD,2,4,0,59,59,38,,,,,,,,,,,,,,,,,,4,1,0.716454276284,,,,,,2015_Dez_02_1431,P12,PLC_L_D2S1,NHG,60.0185375562,
,,,,,,,,,,,,,,,,,,,,,,,,,,,,,,,,0.9984375,1.0,1,0,0,2015_Dez_02_1431,P12,PLC_L_D2S1,NHG,60.0185375562,
stim/posf.jpg,stim/negf.jpg,stim/2.jpg,stim/3.jpg,stim/latef.jpg,AB,1,2,,,,,0,0,0,0,,,,,,,,,,,,,,2,1,0.833060656687,,,,,,2015_Dez_02_1431,P12,PLC_L_D2S1,NHG,60.0185375562,
stim/posf.jpg,stim/negf.jpg,stim/2.jpg,stim/3.jpg,stim/latef.jpg,AB,1,2,,,,,0,1,1,3,,,,,,,,,,,,,,2,1,0.533165901008,,,,,,2015_Dez_02_1431,P12,PLC_L_D2S1,NHG,60.0185375562,
stim/posf.jpg,stim/negf.jpg,stim/3.jpg,stim/2.jpg,stim/latef.jpg,AB,2,4,,,,,0,2,2,16,,,,,,,,,,,,,,4,1,0.583122024646,,,,,,2015_Dez_02_1431,P12,PLC_L_D2S1,NHG,60.0185375562,
stim/posf.jpg,stim/negf.jpg,stim/2.jpg,stim/3.jpg,stim/latef.jpg,AB,1,2,,,,,0,3,3,2,,,,,,,,,,,,,,2,1,0.566454589063,,,,,,2015_Dez_02_1431,P12,PLC_L_D2S1,NHG,60.0185375562,
stim/posf.jpg,stim/negf.jpg,stim/4.jpg,stim/6.jpg,stim/latef.jpg,CD,2,4,,,,,0,4,4,34,,,,,,,,,,,,,,4,1,0.683105098458,,,,,,2015_Dez_02_1431,P12,PLC_L_D2S1,NHG,60.0185375562,
stim/posf.jpg,stim/negf.jpg,stim/2.jpg,stim/3.jpg,stim/latef.jpg,AB,1,2,,,,,0,5,5,7,,,,,,,,,,,,,,2,1,0.533129450154,,,,,,2015_Dez_02_1431,P12,PLC_L_D2S1,NHG,60.0185375562,
stim/posf.jpg,stim/negf.jpg,stim/5.jpg,stim/1.jpg,stim/latef.jpg,EF,2,4,,,,,0,6,6,50,,,,,,,,,,,,,,4,1,1.31623547492,,,,,,2015_Dez_02_1431,P12,PLC_L_D2S1,NHG,60.0185375562,
stim/posf.jpg,stim/negf.jpg,stim/5.jpg,stim/1.jpg,stim/latef.jpg,EF,2,4,,,,,0,7,7,51,,,,,,,,,,,,,,2,0,0.748760096541,,,,,,2015_Dez_02_1431,P12,PLC_L_D2S1,NHG,60.0185375562,
stim/posf.jpg,stim/negf.jpg,stim/1.jpg,stim/5.jpg,stim/latef.jpg,EF,1,2,,,,,0,8,8,45,,,,,,,,,,,,,,4,0,0.749738552342,,,,,,2015_Dez_02_1431,P12,PLC_L_D2S1,NHG,60.0185375562,
stim/posf.jpg,stim/negf.jpg,stim/5.jpg,stim/1.jpg,stim/latef.jpg,EF,2,4,,,,,0,9,9,55,,,,,,,,,,,,,,2,0,0.616457897309,,,,,,2015_Dez_02_1431,P12,PLC_L_D2S1,NHG,60.0185375562,
stim/posf.jpg,stim/negf.jpg,stim/3.jpg,stim/2.jpg,stim/latef.jpg,AB,2,4,,,,,0,10,10,12,,,,,,,,,,,,,,4,1,0.716433912527,,,,,,2015_Dez_02_1431,P12,PLC_L_D2S1,NHG,60.0185375562,
stim/posf.jpg,stim/negf.jpg,stim/6.jpg,stim/4.jpg,stim/latef.jpg,CD,1,2,,,,,0,11,11,25,,,,,,,,,,,,,,2,1,0.716456604086,,,,,,2015_Dez_02_1431,P12,PLC_L_D2S1,NHG,60.0185375562,
stim/posf.jpg,stim/negf.jpg,stim/5.jpg,stim/1.jpg,stim/latef.jpg,EF,2,4,,,,,0,12,12,54,,,,,,,,,,,,,,2,0,1.01633191029,,,,,,2015_Dez_02_1431,P12,PLC_L_D2S1,NHG,60.0185375562,
stim/posf.jpg,stim/negf.jpg,stim/3.jpg,stim/2.jpg,stim/latef.jpg,AB,2,4,,,,,0,13,13,10,,,,,,,,,,,,,,4,1,0.849726639649,,,,,,2015_Dez_02_1431,P12,PLC_L_D2S1,NHG,60.0185375562,
stim/posf.jpg,stim/negf.jpg,stim/3.jpg,stim/2.jpg,stim/latef.jpg,AB,2,4,,,,,0,14,14,15,,,,,,,,,,,,,,4,1,0.633112996143,,,,,,2015_Dez_02_1431,P12,PLC_L_D2S1,NHG,60.0185375562,
stim/negf.jpg,stim/posf.jpg,stim/5.jpg,stim/1.jpg,stim/latef.jpg,EF,2,4,,,,,0,15,15,56,,,,,,,,,,,,,,2,0,0.633088876023,,,,,,2015_Dez_02_1431,P12,PLC_L_D2S1,NHG,60.0185375562,
stim/posf.jpg,stim/negf.jpg,stim/4.jpg,stim/6.jpg,stim/latef.jpg,CD,2,4,,,,,0,16,16,36,,,,,,,,,,,,,,4,1,0.683079471583,,,,,,2015_Dez_02_1431,P12,PLC_L_D2S1,NHG,60.0185375562,
stim/posf.jpg,stim/negf.jpg,stim/1.jpg,stim/5.jpg,stim/latef.jpg,EF,1,2,,,,,0,17,17,42,,,,,,,,,,,,,,4,0,0.749753009376,,,,,,2015_Dez_02_1431,P12,PLC_L_D2S1,NHG,60.0185375562,
stim/posf.jpg,stim/negf.jpg,stim/6.jpg,stim/4.jpg,stim/latef.jpg,CD,1,2,,,,,0,18,18,22,,,,,,,,,,,,,,2,1,0.966356298073,,,,,,2015_Dez_02_1431,P12,PLC_L_D2S1,NHG,60.0185375562,
stim/posf.jpg,stim/negf.jpg,stim/1.jpg,stim/5.jpg,stim/latef.jpg,EF,1,2,,,,,0,19,19,44,,,,,,,,,,,,,,4,0,0.616464658161,,,,,,2015_Dez_02_1431,P12,PLC_L_D2S1,NHG,60.0185375562,
stim/posf.jpg,stim/negf.jpg,stim/6.jpg,stim/4.jpg,stim/latef.jpg,CD,1,2,,,,,0,20,20,23,,,,,,,,,,,,,,2,1,0.916372069383,,,,,,2015_Dez_02_1431,P12,PLC_L_D2S1,NHG,60.0185375562,
stim/posf.jpg,stim/negf.jpg,stim/3.jpg,stim/2.jpg,stim/latef.jpg,AB,2,4,,,,,0,21,21,17,,,,,,,,,,,,,,4,1,0.949672685168,,,,,,2015_Dez_02_1431,P12,PLC_L_D2S1,NHG,60.0185375562,
stim/negf.jpg,stim/posf.jpg,stim/5.jpg,stim/1.jpg,stim/latef.jpg,EF,2,4,,,,,0,22,22,59,,,,,,,,,,,,,,4,1,0.782966744611,,,,,,2015_Dez_02_1431,P12,PLC_L_D2S1,NHG,60.0185375562,
stim/negf.jpg,stim/posf.jpg,stim/6.jpg,stim/4.jpg,stim/latef.jpg,CD,1,2,,,,,0,23,23,27,,,,,,,,,,,,,,2,1,0.783084226434,,,,,,2015_Dez_02_1431,P12,PLC_L_D2S1,NHG,60.0185375562,
stim/negf.jpg,stim/posf.jpg,stim/4.jpg,stim/6.jpg,stim/latef.jpg,CD,2,4,,,,,0,24,24,38,,,,,,,,,,,,,,4,1,0.949690336163,,,,,,2015_Dez_02_1431,P12,PLC_L_D2S1,NHG,60.0185375562,
stim/posf.jpg,stim/negf.jpg,stim/2.jpg,stim/3.jpg,stim/latef.jpg,AB,1,2,,,,,0,25,25,4,,,,,,,,,,,,,,2,1,0.833066413034,,,,,,2015_Dez_02_1431,P12,PLC_L_D2S1,NHG,60.0185375562,
stim/posf.jpg,stim/negf.jpg,stim/6.jpg,stim/4.jpg,stim/latef.jpg,CD,1,2,,,,,0,26,26,20,,,,,,,,,,,,,,2,1,0.699783120428,,,,,,2015_Dez_02_1431,P12,PLC_L_D2S1,NHG,60.0185375562,
stim/negf.jpg,stim/posf.jpg,stim/3.jpg,stim/2.jpg,stim/latef.jpg,AB,2,4,,,,,0,27,27,19,,,,,,,,,,,,,,2,0,0.799731349388,,,,,,2015_Dez_02_1431,P12,PLC_L_D2S1,NHG,60.0185375562,
stim/posf.jpg,stim/negf.jpg,stim/5.jpg,stim/1.jpg,stim/latef.jpg,EF,2,4,,,,,0,28,28,53,,,,,,,,,,,,,,4,1,1.23293721401,,,,,,2015_Dez_02_1431,P12,PLC_L_D2S1,NHG,60.0185375562,
stim/negf.jpg,stim/posf.jpg,stim/4.jpg,stim/6.jpg,stim/latef.jpg,CD,2,4,,,,,0,29,29,37,,,,,,,,,,,,,,4,1,0.999657485282,,,,,,2015_Dez_02_1431,P12,PLC_L_D2S1,NHG,60.0185375562,
stim/posf.jpg,stim/negf.jpg,stim/4.jpg,stim/6.jpg,stim/latef.jpg,CD,2,4,,,,,0,30,30,30,,,,,,,,,,,,,,4,1,0.58312534793,,,,,,2015_Dez_02_1431,P12,PLC_L_D2S1,NHG,60.0185375562,
stim/posf.jpg,stim/negf.jpg,stim/4.jpg,stim/6.jpg,stim/latef.jpg,CD,2,4,,,,,0,31,31,33,,,,,,,,,,,,,,4,1,0.533170183683,,,,,,2015_Dez_02_1431,P12,PLC_L_D2S1,NHG,60.0185375562,
stim/negf.jpg,stim/posf.jpg,stim/1.jpg,stim/5.jpg,stim/latef.jpg,EF,1,2,,,,,0,32,32,49,,,,,,,,,,,,,,2,1,0.64979705115,,,,,,2015_Dez_02_1431,P12,PLC_L_D2S1,NHG,60.0185375562,
stim/negf.jpg,stim/posf.jpg,stim/2.jpg,stim/3.jpg,stim/latef.jpg,AB,1,2,,,,,0,33,33,9,,,,,,,,,,,,,,2,1,0.633101904497,,,,,,2015_Dez_02_1431,P12,PLC_L_D2S1,NHG,60.0185375562,
stim/negf.jpg,stim/posf.jpg,stim/5.jpg,stim/1.jpg,stim/latef.jpg,EF,2,4,,,,,0,34,34,58,,,,,,,,,,,,,,4,1,0.499830819317,,,,,,2015_Dez_02_1431,P12,PLC_L_D2S1,NHG,60.0185375562,
stim/posf.jpg,stim/negf.jpg,stim/2.jpg,stim/3.jpg,stim/latef.jpg,AB,1,2,,,,,0,35,35,1,,,,,,,,,,,,,,2,1,0.799727538891,,,,,,2015_Dez_02_1431,P12,PLC_L_D2S1,NHG,60.0185375562,
stim/negf.jpg,stim/posf.jpg,stim/2.jpg,stim/3.jpg,stim/latef.jpg,AB,1,2,,,,,0,36,36,8,,,,,,,,,,,,,,2,1,0.699697066939,,,,,,2015_Dez_02_1431,P12,PLC_L_D2S1,NHG,60.0185375562,
stim/posf.jpg,stim/negf.jpg,stim/3.jpg,stim/2.jpg,stim/latef.jpg,AB,2,4,,,,,0,37,37,13,,,,,,,,,,,,,,4,1,0.61645747626,,,,,,2015_Dez_02_1431,P12,PLC_L_D2S1,NHG,60.0185375562,
stim/negf.jpg,stim/posf.jpg,stim/4.jpg,stim/6.jpg,stim/latef.jpg,CD,2,4,,,,,0,38,38,39,,,,,,,,,,,,,,4,1,0.816375921985,,,,,,2015_Dez_02_1431,P12,PLC_L_D2S1,NHG,60.0185375562,
stim/negf.jpg,stim/posf.jpg,stim/1.jpg,stim/5.jpg,stim/latef.jpg,EF,1,2,,,,,0,39,39,47,,,,,,,,,,,,,,2,1,0.616432396749,,,,,,2015_Dez_02_1431,P12,PLC_L_D2S1,NHG,60.0185375562,
stim/negf.jpg,stim/posf.jpg,stim/3.jpg,stim/2.jpg,stim/latef.jpg,AB,2,4,,,,,0,40,40,18,,,,,,,,,,,,,,4,1,0.666454282299,,,,,,2015_Dez_02_1431,P12,PLC_L_D2S1,NHG,60.0185375562,
stim/posf.jpg,stim/negf.jpg,stim/6.jpg,stim/4.jpg,stim/latef.jpg,CD,1,2,,,,,0,41,41,26,,,,,,,,,,,,,,2,1,0.683154827407,,,,,,2015_Dez_02_1431,P12,PLC_L_D2S1,NHG,60.0185375562,
stim/posf.jpg,stim/negf.jpg,stim/1.jpg,stim/5.jpg,stim/latef.jpg,EF,1,2,,,,,0,42,42,43,,,,,,,,,,,,,,2,1,0.649793616589,,,,,,2015_Dez_02_1431,P12,PLC_L_D2S1,NHG,60.0185375562,
stim/posf.jpg,stim/negf.jpg,stim/2.jpg,stim/3.jpg,stim/latef.jpg,AB,1,2,,,,,0,43,43,6,,,,,,,,,,,,,,2,1,0.633108111969,,,,,,2015_Dez_02_1431,P12,PLC_L_D2S1,NHG,60.0185375562,
stim/posf.jpg,stim/negf.jpg,stim/5.jpg,stim/1.jpg,stim/latef.jpg,EF,2,4,,,,,0,44,44,52,,,,,,,,,,,,,,4,1,0.549778906925,,,,,,2015_Dez_02_1431,P12,PLC_L_D2S1,NHG,60.0185375562,
stim/posf.jpg,stim/negf.jpg,stim/3.jpg,stim/2.jpg,stim/latef.jpg,AB,2,4,,,,,0,45,45,11,,,,,,,,,,,,,,4,1,0.566485082067,,,,,,2015_Dez_02_1431,P12,PLC_L_D2S1,NHG,60.0185375562,
stim/posf.jpg,stim/negf.jpg,stim/4.jpg,stim/6.jpg,stim/latef.jpg,CD,2,4,,,,,0,46,46,31,,,,,,,,,,,,,,4,1,0.733077029496,,,,,,2015_Dez_02_1431,P12,PLC_L_D2S1,NHG,60.0185375562,
stim/negf.jpg,stim/posf.jpg,stim/1.jpg,stim/5.jpg,stim/latef.jpg,EF,1,2,,,,,0,47,47,48,,,,,,,,,,,,,,2,1,0.583157206337,,,,,,2015_Dez_02_1431,P12,PLC_L_D2S1,NHG,60.0185375562,
stim/negf.jpg,stim/posf.jpg,stim/1.jpg,stim/5.jpg,stim/latef.jpg,EF,1,2,,,,,0,48,48,46,,,,,,,,,,,,,,2,1,0.583186183562,,,,,,2015_Dez_02_1431,P12,PLC_L_D2S1,NHG,60.0185375562,
stim/posf.jpg,stim/negf.jpg,stim/3.jpg,stim/2.jpg,stim/latef.jpg,AB,2,4,,,,,0,49,49,14,,,,,,,,,,,,,,4,1,0.566488901587,,,,,,2015_Dez_02_1431,P12,PLC_L_D2S1,NHG,60.0185375562,
stim/posf.jpg,stim/negf.jpg,stim/2.jpg,stim/3.jpg,stim/latef.jpg,AB,1,2,,,,,0,50,50,5,,,,,,,,,,,,,,2,1,0.599866638597,,,,,,2015_Dez_02_1431,P12,PLC_L_D2S1,NHG,60.0185375562,
stim/posf.jpg,stim/negf.jpg,stim/1.jpg,stim/5.jpg,stim/latef.jpg,EF,1,2,,,,,0,51,51,41,,,,,,,,,,,,,,4,0,0.883013156292,,,,,,2015_Dez_02_1431,P12,PLC_L_D2S1,NHG,60.0185375562,
stim/negf.jpg,stim/posf.jpg,stim/5.jpg,stim/1.jpg,stim/latef.jpg,EF,2,4,,,,,0,52,52,57,,,,,,,,,,,,,,4,1,0.866397431598,,,,,,2015_Dez_02_1431,P12,PLC_L_D2S1,NHG,60.0185375562,
stim/posf.jpg,stim/negf.jpg,stim/1.jpg,stim/5.jpg,stim/latef.jpg,EF,1,2,,,,,0,53,53,40,,,,,,,,,,,,,,4,0,0.666444378614,,,,,,2015_Dez_02_1431,P12,PLC_L_D2S1,NHG,60.0185375562,
stim/posf.jpg,stim/negf.jpg,stim/4.jpg,stim/6.jpg,stim/latef.jpg,CD,2,4,,,,,0,54,54,35,,,,,,,,,,,,,,4,1,0.699803971399,,,,,,2015_Dez_02_1431,P12,PLC_L_D2S1,NHG,60.0185375562,
stim/posf.jpg,stim/negf.jpg,stim/4.jpg,stim/6.jpg,stim/latef.jpg,CD,2,4,,,,,0,55,55,32,,,,,,,,,,,,,,4,1,0.599817730694,,,,,,2015_Dez_02_1431,P12,PLC_L_D2S1,NHG,60.0185375562,
stim/posf.jpg,stim/negf.jpg,stim/6.jpg,stim/4.jpg,stim/latef.jpg,CD,1,2,,,,,0,56,56,24,,,,,,,,,,,,,,2,1,1.39953385614,,,,,,2015_Dez_02_1431,P12,PLC_L_D2S1,NHG,60.0185375562,
stim/negf.jpg,stim/posf.jpg,stim/6.jpg,stim/4.jpg,stim/latef.jpg,CD,1,2,,,,,0,57,57,29,,,,,,,,,,,,,,2,1,0.699716729949,,,,,,2015_Dez_02_1431,P12,PLC_L_D2S1,NHG,60.0185375562,
stim/posf.jpg,stim/negf.jpg,stim/6.jpg,stim/4.jpg,stim/latef.jpg,CD,1,2,,,,,0,58,58,21,,,,,,,,,,,,,,2,1,0.616479659552,,,,,,2015_Dez_02_1431,P12,PLC_L_D2S1,NHG,60.0185375562,
stim/negf.jpg,stim/posf.jpg,stim/6.jpg,stim/4.jpg,stim/latef.jpg,CD,1,2,,,,,0,59,59,28,,,,,,,,,,,,,,2,1,0.566492182766,,,,,,2015_Dez_02_1431,P12,PLC_L_D2S1,NHG,60.0185375562,
,,,,,,,,,,,,,,,,,,,,,,,,,,,,,,,,0.9984375,1.0,1,0,0,2015_Dez_02_1431,P12,PLC_L_D2S1,NHG,60.0185375562,
stim/negf.jpg,stim/posf.jpg,stim/6.jpg,stim/4.jpg,stim/latef.jpg,CD,1,2,,,,,,,,,0,0,0,28,,,,,,,,,,2,1,0.716330346389,,,,,,2015_Dez_02_1431,P12,PLC_L_D2S1,NHG,60.0185375562,
stim/posf.jpg,stim/negf.jpg,stim/1.jpg,stim/5.jpg,stim/latef.jpg,EF,1,2,,,,,,,,,0,1,1,45,,,,,,,,,,4,0,0.883013823956,,,,,,2015_Dez_02_1431,P12,PLC_L_D2S1,NHG,60.0185375562,
stim/posf.jpg,stim/negf.jpg,stim/2.jpg,stim/3.jpg,stim/latef.jpg,AB,1,2,,,,,,,,,0,2,2,4,,,,,,,,,,2,1,0.666448739483,,,,,,2015_Dez_02_1431,P12,PLC_L_D2S1,NHG,60.0185375562,
stim/posf.jpg,stim/negf.jpg,stim/1.jpg,stim/5.jpg,stim/latef.jpg,EF,1,2,,,,,,,,,0,3,3,43,,,,,,,,,,4,0,0.716482546748,,,,,,2015_Dez_02_1431,P12,PLC_L_D2S1,NHG,60.0185375562,
stim/posf.jpg,stim/negf.jpg,stim/2.jpg,stim/3.jpg,stim/latef.jpg,AB,1,2,,,,,,,,,0,4,4,1,,,,,,,,,,2,1,0.666430038872,,,,,,2015_Dez_02_1431,P12,PLC_L_D2S1,NHG,60.0185375562,
stim/negf.jpg,stim/posf.jpg,stim/2.jpg,stim/3.jpg,stim/latef.jpg,AB,1,2,,,,,,,,,0,5,5,9,,,,,,,,,,2,1,0.549823805836,,,,,,2015_Dez_02_1431,P12,PLC_L_D2S1,NHG,60.0185375562,
stim/posf.jpg,stim/negf.jpg,stim/3.jpg,stim/2.jpg,stim/latef.jpg,AB,2,4,,,,,,,,,0,6,6,15,,,,,,,,,,4,1,0.616481464049,,,,,,2015_Dez_02_1431,P12,PLC_L_D2S1,NHG,60.0185375562,
stim/negf.jpg,stim/posf.jpg,stim/5.jpg,stim/1.jpg,stim/latef.jpg,EF,2,4,,,,,,,,,0,7,7,58,,,,,,,,,,2,0,1.13295238983,,,,,,2015_Dez_02_1431,P12,PLC_L_D2S1,NHG,60.0185375562,
stim/negf.jpg,stim/posf.jpg,stim/1.jpg,stim/5.jpg,stim/latef.jpg,EF,1,2,,,,,,,,,0,8,8,47,,,,,,,,,,4,0,0.699720317893,,,,,,2015_Dez_02_1431,P12,PLC_L_D2S1,NHG,60.0185375562,
stim/posf.jpg,stim/negf.jpg,stim/2.jpg,stim/3.jpg,stim/latef.jpg,AB,1,2,,,,,,,,,0,9,9,5,,,,,,,,,,2,1,0.599822446447,,,,,,2015_Dez_02_1431,P12,PLC_L_D2S1,NHG,60.0185375562,
stim/posf.jpg,stim/negf.jpg,stim/4.jpg,stim/6.jpg,stim/latef.jpg,CD,2,4,,,,,,,,,0,10,10,30,,,,,,,,,,4,1,0.666458243171,,,,,,2015_Dez_02_1431,P12,PLC_L_D2S1,NHG,60.0185375562,
stim/posf.jpg,stim/negf.jpg,stim/6.jpg,stim/4.jpg,stim/latef.jpg,CD,1,2,,,,,,,,,0,11,11,23,,,,,,,,,,2,1,0.51650418869,,,,,,2015_Dez_02_1431,P12,PLC_L_D2S1,NHG,60.0185375562,
stim/posf.jpg,stim/negf.jpg,stim/5.jpg,stim/1.jpg,stim/latef.jpg,EF,2,4,,,,,,,,,0,12,12,55,,,,,,,,,,4,1,0.949691933143,,,,,,2015_Dez_02_1431,P12,PLC_L_D2S1,NHG,60.0185375562,
stim/posf.jpg,stim/negf.jpg,stim/5.jpg,stim/1.jpg,stim/latef.jpg,EF,2,4,,,,,,,,,0,13,13,53,,,,,,,,,,4,1,0.666506299952,,,,,,2015_Dez_02_1431,P12,PLC_L_D2S1,NHG,60.0185375562,
stim/negf.jpg,stim/posf.jpg,stim/2.jpg,stim/3.jpg,stim/latef.jpg,AB,1,2,,,,,,,,,0,14,14,8,,,,,,,,,,2,1,0.549795929354,,,,,,2015_Dez_02_1431,P12,PLC_L_D2S1,NHG,60.0185375562,
stim/posf.jpg,stim/negf.jpg,stim/3.jpg,stim/2.jpg,stim/latef.jpg,AB,2,4,,,,,,,,,0,15,15,13,,,,,,,,,,4,1,0.616454258238,,,,,,2015_Dez_02_1431,P12,PLC_L_D2S1,NHG,60.0185375562,
stim/posf.jpg,stim/negf.jpg,stim/2.jpg,stim/3.jpg,stim/latef.jpg,AB,1,2,,,,,,,,,0,16,16,7,,,,,,,,,,2,1,0.566473467117,,,,,,2015_Dez_02_1431,P12,PLC_L_D2S1,NHG,60.0185375562,
stim/posf.jpg,stim/negf.jpg,stim/2.jpg,stim/3.jpg,stim/latef.jpg,AB,1,2,,,,,,,,,0,17,17,3,,,,,,,,,,2,1,0.799733674183,,,,,,2015_Dez_02_1431,P12,PLC_L_D2S1,NHG,60.0185375562,
stim/posf.jpg,stim/negf.jpg,stim/3.jpg,stim/2.jpg,stim/latef.jpg,AB,2,4,,,,,,,,,0,18,18,12,,,,,,,,,,4,1,0.616458177006,,,,,,2015_Dez_02_1431,P12,PLC_L_D2S1,NHG,60.0185375562,
stim/posf.jpg,stim/negf.jpg,stim/2.jpg,stim/3.jpg,stim/latef.jpg,AB,1,2,,,,,,,,,0,19,19,6,,,,,,,,,,2,1,0.583149492109,,,,,,2015_Dez_02_1431,P12,PLC_L_D2S1,NHG,60.0185375562,
stim/posf.jpg,stim/negf.jpg,stim/4.jpg,stim/6.jpg,stim/latef.jpg,CD,2,4,,,,,,,,,0,20,20,36,,,,,,,,,,4,1,0.633137922272,,,,,,2015_Dez_02_1431,P12,PLC_L_D2S1,NHG,60.0185375562,
stim/posf.jpg,stim/negf.jpg,stim/6.jpg,stim/4.jpg,stim/latef.jpg,CD,1,2,,,,,,,,,0,21,21,22,,,,,,,,,,2,1,0.766434038842,,,,,,2015_Dez_02_1431,P12,PLC_L_D2S1,NHG,60.0185375562,
stim/posf.jpg,stim/negf.jpg,stim/5.jpg,stim/1.jpg,stim/latef.jpg,EF,2,4,,,,,,,,,0,22,22,51,,,,,,,,,,2,0,0.916368731062,,,,,,2015_Dez_02_1431,P12,PLC_L_D2S1,NHG,60.0185375562,
stim/negf.jpg,stim/posf.jpg,stim/5.jpg,stim/1.jpg,stim/latef.jpg,EF,2,4,,,,,,,,,0,23,23,59,,,,,,,,,,4,1,0.649775917474,,,,,,2015_Dez_02_1431,P12,PLC_L_D2S1,NHG,60.0185375562,
stim/posf.jpg,stim/negf.jpg,stim/5.jpg,stim/1.jpg,stim/latef.jpg,EF,2,4,,,,,,,,,0,24,24,52,,,,,,,,,,2,0,1.14961903144,,,,,,2015_Dez_02_1431,P12,PLC_L_D2S1,NHG,60.0185375562,
stim/posf.jpg,stim/negf.jpg,stim/1.jpg,stim/5.jpg,stim/latef.jpg,EF,1,2,,,,,,,,,0,25,25,41,,,,,,,,,,2,1,0.83303427493,,,,,,2015_Dez_02_1431,P12,PLC_L_D2S1,NHG,60.0185375562,
stim/posf.jpg,stim/negf.jpg,stim/3.jpg,stim/2.jpg,stim/latef.jpg,AB,2,4,,,,,,,,,0,26,26,17,,,,,,,,,,4,1,0.649792106827,,,,,,2015_Dez_02_1431,P12,PLC_L_D2S1,NHG,60.0185375562,
stim/posf.jpg,stim/negf.jpg,stim/3.jpg,stim/2.jpg,stim/latef.jpg,AB,2,4,,,,,,,,,0,27,27,11,,,,,,,,,,4,1,0.583108848806,,,,,,2015_Dez_02_1431,P12,PLC_L_D2S1,NHG,60.0185375562,
stim/negf.jpg,stim/posf.jpg,stim/3.jpg,stim/2.jpg,stim/latef.jpg,AB,2,4,,,,,,,,,0,28,28,19,,,,,,,,,,4,1,0.533122274268,,,,,,2015_Dez_02_1431,P12,PLC_L_D2S1,NHG,60.0185375562,
stim/posf.jpg,stim/negf.jpg,stim/4.jpg,stim/6.jpg,stim/latef.jpg,CD,2,4,,,,,,,,,0,29,29,33,,,,,,,,,,4,1,0.599858575499,,,,,,2015_Dez_02_1431,P12,PLC_L_D2S1,NHG,60.0185375562,
stim/posf.jpg,stim/negf.jpg,stim/4.jpg,stim/6.jpg,stim/latef.jpg,CD,2,4,,,,,,,,,0,30,30,32,,,,,,,,,,4,1,0.566494799287,,,,,,2015_Dez_02_1431,P12,PLC_L_D2S1,NHG,60.0185375562,
stim/negf.jpg,stim/posf.jpg,stim/3.jpg,stim/2.jpg,stim/latef.jpg,AB,2,4,,,,,,,,,0,31,31,18,,,,,,,,,,4,1,0.616472757348,,,,,,2015_Dez_02_1431,P12,PLC_L_D2S1,NHG,60.0185375562,
stim/negf.jpg,stim/posf.jpg,stim/4.jpg,stim/6.jpg,stim/latef.jpg,CD,2,4,,,,,,,,,0,32,32,38,,,,,,,,,,4,1,0.499904857858,,,,,,2015_Dez_02_1431,P12,PLC_L_D2S1,NHG,60.0185375562,
stim/posf.jpg,stim/negf.jpg,stim/4.jpg,stim/6.jpg,stim/latef.jpg,CD,2,4,,,,,,,,,0,33,33,34,,,,,,,,,,4,1,0.516498621815,,,,,,2015_Dez_02_1431,P12,PLC_L_D2S1,NHG,60.0185375562,
stim/negf.jpg,stim/posf.jpg,stim/5.jpg,stim/1.jpg,stim/latef.jpg,EF,2,4,,,,,,,,,0,34,34,57,,,,,,,,,,2,0,0.999651728935,,,,,,2015_Dez_02_1431,P12,PLC_L_D2S1,NHG,60.0185375562,
stim/negf.jpg,stim/posf.jpg,stim/1.jpg,stim/5.jpg,stim/latef.jpg,EF,1,2,,,,,,,,,0,35,35,46,,,,,,,,,,4,0,0.983041333524,,,,,,2015_Dez_02_1431,P12,PLC_L_D2S1,NHG,60.0185375562,
stim/posf.jpg,stim/negf.jpg,stim/6.jpg,stim/4.jpg,stim/latef.jpg,CD,1,2,,,,,,,,,0,36,36,25,,,,,,,,,,2,1,0.616432282464,,,,,,2015_Dez_02_1431,P12,PLC_L_D2S1,NHG,60.0185375562,
stim/posf.jpg,stim/negf.jpg,stim/3.jpg,stim/2.jpg,stim/latef.jpg,AB,2,4,,,,,,,,,0,37,37,16,,,,,,,,,,4,1,0.649797198517,,,,,,2015_Dez_02_1431,P12,PLC_L_D2S1,NHG,60.0185375562,
stim/posf.jpg,stim/negf.jpg,stim/5.jpg,stim/1.jpg,stim/latef.jpg,EF,2,4,,,,,,,,,0,38,38,54,,,,,,,,,,2,0,0.966347413929,,,,,,2015_Dez_02_1431,P12,PLC_L_D2S1,NHG,60.0185375562,
stim/posf.jpg,stim/negf.jpg,stim/6.jpg,stim/4.jpg,stim/latef.jpg,CD,1,2,,,,,,,,,0,39,39,21,,,,,,,,,,2,1,0.566531698258,,,,,,2015_Dez_02_1431,P12,PLC_L_D2S1,NHG,60.0185375562,
stim/posf.jpg,stim/negf.jpg,stim/3.jpg,stim/2.jpg,stim/latef.jpg,AB,2,4,,,,,,,,,0,40,40,14,,,,,,,,,,4,1,0.866384559515,,,,,,2015_Dez_02_1431,P12,PLC_L_D2S1,NHG,60.0185375562,
stim/posf.jpg,stim/negf.jpg,stim/1.jpg,stim/5.jpg,stim/latef.jpg,EF,1,2,,,,,,,,,0,41,41,44,,,,,,,,,,4,0,0.683072722762,,,,,,2015_Dez_02_1431,P12,PLC_L_D2S1,NHG,60.0185375562,
stim/posf.jpg,stim/negf.jpg,stim/5.jpg,stim/1.jpg,stim/latef.jpg,EF,2,4,,,,,,,,,0,42,42,50,,,,,,,,,,2,0,1.04964281472,,,,,,2015_Dez_02_1431,P12,PLC_L_D2S1,NHG,60.0185375562,
stim/posf.jpg,stim/negf.jpg,stim/2.jpg,stim/3.jpg,stim/latef.jpg,AB,1,2,,,,,,,,,0,43,43,0,,,,,,,,,,2,1,0.666426471981,,,,,,2015_Dez_02_1431,P12,PLC_L_D2S1,NHG,60.0185375562,
stim/negf.jpg,stim/posf.jpg,stim/6.jpg,stim/4.jpg,stim/latef.jpg,CD,1,2,,,,,,,,,0,44,44,27,,,,,,,,,,2,1,1.04963809595,,,,,,2015_Dez_02_1431,P12,PLC_L_D2S1,NHG,60.0185375562,
stim/negf.jpg,stim/posf.jpg,stim/1.jpg,stim/5.jpg,stim/latef.jpg,EF,1,2,,,,,,,,,0,45,45,49,,,,,,,,,,4,0,0.833105447327,,,,,,2015_Dez_02_1431,P12,PLC_L_D2S1,NHG,60.0185375562,
stim/posf.jpg,stim/negf.jpg,stim/1.jpg,stim/5.jpg,stim/latef.jpg,EF,1,2,,,,,,,,,0,46,46,42,,,,,,,,,,4,0,0.816445172592,,,,,,2015_Dez_02_1431,P12,PLC_L_D2S1,NHG,60.0185375562,
stim/posf.jpg,stim/negf.jpg,stim/6.jpg,stim/4.jpg,stim/latef.jpg,CD,1,2,,,,,,,,,0,47,47,20,,,,,,,,,,2,1,0.633127985504,,,,,,2015_Dez_02_1431,P12,PLC_L_D2S1,NHG,60.0185375562,
stim/posf.jpg,stim/negf.jpg,stim/6.jpg,stim/4.jpg,stim/latef.jpg,CD,1,2,,,,,,,,,0,48,48,24,,,,,,,,,,2,1,0.933012897648,,,,,,2015_Dez_02_1431,P12,PLC_L_D2S1,NHG,60.0185375562,
stim/negf.jpg,stim/posf.jpg,stim/4.jpg,stim/6.jpg,stim/latef.jpg,CD,2,4,,,,,,,,,0,49,49,39,,,,,,,,,,4,1,0.599786419651,,,,,,2015_Dez_02_1431,P12,PLC_L_D2S1,NHG,60.0185375562,
stim/posf.jpg,stim/negf.jpg,stim/4.jpg,stim/6.jpg,stim/latef.jpg,CD,2,4,,,,,,,,,0,50,50,35,,,,,,,,,,4,1,0.716385383569,,,,,,2015_Dez_02_1431,P12,PLC_L_D2S1,NHG,60.0185375562,
stim/posf.jpg,stim/negf.jpg,stim/2.jpg,stim/3.jpg,stim/latef.jpg,AB,1,2,,,,,,,,,0,51,51,2,,,,,,,,,,2,1,0.649764937106,,,,,,2015_Dez_02_1431,P12,PLC_L_D2S1,NHG,60.0185375562,
stim/posf.jpg,stim/negf.jpg,stim/1.jpg,stim/5.jpg,stim/latef.jpg,EF,1,2,,,,,,,,,0,52,52,40,,,,,,,,,,4,0,0.833125284772,,,,,,2015_Dez_02_1431,P12,PLC_L_D2S1,NHG,60.0185375562,
stim/posf.jpg,stim/negf.jpg,stim/4.jpg,stim/6.jpg,stim/latef.jpg,CD,2,4,,,,,,,,,0,53,53,31,,,,,,,,,,4,1,0.783063176969,,,,,,2015_Dez_02_1431,P12,PLC_L_D2S1,NHG,60.0185375562,
stim/negf.jpg,stim/posf.jpg,stim/1.jpg,stim/5.jpg,stim/latef.jpg,EF,1,2,,,,,,,,,0,54,54,48,,,,,,,,,,4,0,1.04964903121,,,,,,2015_Dez_02_1431,P12,PLC_L_D2S1,NHG,60.0185375562,
stim/posf.jpg,stim/negf.jpg,stim/6.jpg,stim/4.jpg,stim/latef.jpg,CD,1,2,,,,,,,,,0,55,55,26,,,,,,,,,,2,1,1.38283599672,,,,,,2015_Dez_02_1431,P12,PLC_L_D2S1,NHG,60.0185375562,
stim/negf.jpg,stim/posf.jpg,stim/4.jpg,stim/6.jpg,stim/latef.jpg,CD,2,4,,,,,,,,,0,56,56,37,,,,,,,,,,4,1,0.666412634491,,,,,,2015_Dez_02_1431,P12,PLC_L_D2S1,NHG,60.0185375562,
stim/posf.jpg,stim/negf.jpg,stim/3.jpg,stim/2.jpg,stim/latef.jpg,AB,2,4,,,,,,,,,0,57,57,10,,,,,,,,,,4,1,0.649796636115,,,,,,2015_Dez_02_1431,P12,PLC_L_D2S1,NHG,60.0185375562,
stim/negf.jpg,stim/posf.jpg,stim/5.jpg,stim/1.jpg,stim/latef.jpg,EF,2,4,,,,,,,,,0,58,58,56,,,,,,,,,,2,0,1.03305154999,,,,,,2015_Dez_02_1431,P12,PLC_L_D2S1,NHG,60.0185375562,
stim/negf.jpg,stim/posf.jpg,stim/6.jpg,stim/4.jpg,stim/latef.jpg,CD,1,2,,,,,,,,,0,59,59,29,,,,,,,,,,2,1,0.749711936,,,,,,2015_Dez_02_1431,P12,PLC_L_D2S1,NHG,60.0185375562,
,,,,,,,,,,,,,,,,,,,,,,,,,,,,,,,,0.9984375,1.0,1,0,0,2015_Dez_02_1431,P12,PLC_L_D2S1,NHG,60.0185375562,
stim/posf.jpg,stim/negf.jpg,stim/3.jpg,stim/2.jpg,stim/latef.jpg,AB,2,4,,,,,,,,,,,,,0,0,0,12,,,,,,4,1,0.666434144104,,,,,,2015_Dez_02_1431,P12,PLC_L_D2S1,NHG,60.0185375562,
stim/negf.jpg,stim/posf.jpg,stim/2.jpg,stim/3.jpg,stim/latef.jpg,AB,1,2,,,,,,,,,,,,,0,1,1,8,,,,,,2,1,0.49984072601,,,,,,2015_Dez_02_1431,P12,PLC_L_D2S1,NHG,60.0185375562,
stim/posf.jpg,stim/negf.jpg,stim/6.jpg,stim/4.jpg,stim/latef.jpg,CD,1,2,,,,,,,,,,,,,0,2,2,24,,,,,,2,1,0.566407350321,,,,,,2015_Dez_02_1431,P12,PLC_L_D2S1,NHG,60.0185375562,
stim/posf.jpg,stim/negf.jpg,stim/5.jpg,stim/1.jpg,stim/latef.jpg,EF,2,4,,,,,,,,,,,,,0,3,3,51,,,,,,2,0,0.783023526139,,,,,,2015_Dez_02_1431,P12,PLC_L_D2S1,NHG,60.0185375562,
stim/posf.jpg,stim/negf.jpg,stim/2.jpg,stim/3.jpg,stim/latef.jpg,AB,1,2,,,,,,,,,,,,,0,4,4,2,,,,,,2,1,0.633165395749,,,,,,2015_Dez_02_1431,P12,PLC_L_D2S1,NHG,60.0185375562,
stim/negf.jpg,stim/posf.jpg,stim/5.jpg,stim/1.jpg,stim/latef.jpg,EF,2,4,,,,,,,,,,,,,0,5,5,59,,,,,,2,0,1.24960350975,,,,,,2015_Dez_02_1431,P12,PLC_L_D2S1,NHG,60.0185375562,
stim/posf.jpg,stim/negf.jpg,stim/3.jpg,stim/2.jpg,stim/latef.jpg,AB,2,4,,,,,,,,,,,,,0,6,6,17,,,,,,4,1,0.649762846896,,,,,,2015_Dez_02_1431,P12,PLC_L_D2S1,NHG,60.0185375562,
stim/posf.jpg,stim/negf.jpg,stim/6.jpg,stim/4.jpg,stim/latef.jpg,CD,1,2,,,,,,,,,,,,,0,7,7,22,,,,,,2,1,0.683085570785,,,,,,2015_Dez_02_1431,P12,PLC_L_D2S1,NHG,60.0185375562,
stim/negf.jpg,stim/posf.jpg,stim/1.jpg,stim/5.jpg,stim/latef.jpg,EF,1,2,,,,,,,,,,,,,0,8,8,48,,,,,,4,0,0.883161013827,,,,,,2015_Dez_02_1431,P12,PLC_L_D2S1,NHG,60.0185375562,
stim/negf.jpg,stim/posf.jpg,stim/6.jpg,stim/4.jpg,stim/latef.jpg,CD,1,2,,,,,,,,,,,,,0,9,9,29,,,,,,2,1,0.633119459252,,,,,,2015_Dez_02_1431,P12,PLC_L_D2S1,NHG,60.0185375562,
stim/posf.jpg,stim/negf.jpg,stim/5.jpg,stim/1.jpg,stim/latef.jpg,EF,2,4,,,,,,,,,,,,,0,10,10,53,,,,,,2,0,0.766393097796,,,,,,2015_Dez_02_1431,P12,PLC_L_D2S1,NHG,60.0185375562,
stim/posf.jpg,stim/negf.jpg,stim/5.jpg,stim/1.jpg,stim/latef.jpg,EF,2,4,,,,,,,,,,,,,0,11,11,55,,,,,,2,0,0.949693472981,,,,,,2015_Dez_02_1431,P12,PLC_L_D2S1,NHG,60.0185375562,
stim/posf.jpg,stim/negf.jpg,stim/3.jpg,stim/2.jpg,stim/latef.jpg,AB,2,4,,,,,,,,,,,,,0,12,12,16,,,,,,4,1,0.599792419606,,,,,,2015_Dez_02_1431,P12,PLC_L_D2S1,NHG,60.0185375562,
stim/posf.jpg,stim/negf.jpg,stim/3.jpg,stim/2.jpg,stim/latef.jpg,AB,2,4,,,,,,,,,,,,,0,13,13,15,,,,,,4,1,0.616458005579,,,,,,2015_Dez_02_1431,P12,PLC_L_D2S1,NHG,60.0185375562,
stim/posf.jpg,stim/negf.jpg,stim/1.jpg,stim/5.jpg,stim/latef.jpg,EF,1,2,,,,,,,,,,,,,0,14,14,41,,,,,,4,0,0.783084509139,,,,,,2015_Dez_02_1431,P12,PLC_L_D2S1,NHG,60.0185375562,
stim/posf.jpg,stim/negf.jpg,stim/1.jpg,stim/5.jpg,stim/latef.jpg,EF,1,2,,,,,,,,,,,,,0,15,15,45,,,,,,4,0,0.649737186939,,,,,,2015_Dez_02_1431,P12,PLC_L_D2S1,NHG,60.0185375562,
stim/negf.jpg,stim/posf.jpg,stim/2.jpg,stim/3.jpg,stim/latef.jpg,AB,1,2,,,,,,,,,,,,,0,16,16,9,,,,,,2,1,0.666486014391,,,,,,2015_Dez_02_1431,P12,PLC_L_D2S1,NHG,60.0185375562,
stim/posf.jpg,stim/negf.jpg,stim/3.jpg,stim/2.jpg,stim/latef.jpg,AB,2,4,,,,,,,,,,,,,0,17,17,10,,,,,,4,1,0.566407966857,,,,,,2015_Dez_02_1431,P12,PLC_L_D2S1,NHG,60.0185375562,
stim/posf.jpg,stim/negf.jpg,stim/1.jpg,stim/5.jpg,stim/latef.jpg,EF,1,2,,,,,,,,,,,,,0,18,18,42,,,,,,4,0,0.816376213712,,,,,,2015_Dez_02_1431,P12,PLC_L_D2S1,NHG,60.0185375562,
stim/posf.jpg,stim/negf.jpg,stim/6.jpg,stim/4.jpg,stim/latef.jpg,CD,1,2,,,,,,,,,,,,,0,19,19,25,,,,,,2,1,1.13294173728,,,,,,2015_Dez_02_1431,P12,PLC_L_D2S1,NHG,60.0185375562,
stim/posf.jpg,stim/negf.jpg,stim/5.jpg,stim/1.jpg,stim/latef.jpg,EF,2,4,,,,,,,,,,,,,0,20,20,52,,,,,,None,0,,,,,,,2015_Dez_02_1431,P12,PLC_L_D2S1,NHG,60.0185375562,
stim/posf.jpg,stim/negf.jpg,stim/4.jpg,stim/6.jpg,stim/latef.jpg,CD,2,4,,,,,,,,,,,,,0,21,21,34,,,,,,4,1,0.566481963294,,,,,,2015_Dez_02_1431,P12,PLC_L_D2S1,NHG,60.0185375562,
stim/negf.jpg,stim/posf.jpg,stim/6.jpg,stim/4.jpg,stim/latef.jpg,CD,1,2,,,,,,,,,,,,,0,22,22,28,,,,,,2,1,0.649777367087,,,,,,2015_Dez_02_1431,P12,PLC_L_D2S1,NHG,60.0185375562,
stim/negf.jpg,stim/posf.jpg,stim/5.jpg,stim/1.jpg,stim/latef.jpg,EF,2,4,,,,,,,,,,,,,0,23,23,58,,,,,,4,1,0.5998163292,,,,,,2015_Dez_02_1431,P12,PLC_L_D2S1,NHG,60.0185375562,
stim/posf.jpg,stim/negf.jpg,stim/4.jpg,stim/6.jpg,stim/latef.jpg,CD,2,4,,,,,,,,,,,,,0,24,24,30,,,,,,4,1,0.599787373027,,,,,,2015_Dez_02_1431,P12,PLC_L_D2S1,NHG,60.0185375562,
stim/negf.jpg,stim/posf.jpg,stim/4.jpg,stim/6.jpg,stim/latef.jpg,CD,2,4,,,,,,,,,,,,,0,25,25,37,,,,,,4,1,0.58312724566,,,,,,2015_Dez_02_1431,P12,PLC_L_D2S1,NHG,60.0185375562,
stim/posf.jpg,stim/negf.jpg,stim/5.jpg,stim/1.jpg,stim/latef.jpg,EF,2,4,,,,,,,,,,,,,0,26,26,50,,,,,,4,1,0.783079615943,,,,,,2015_Dez_02_1431,P12,PLC_L_D2S1,NHG,60.0185375562,
stim/posf.jpg,stim/negf.jpg,stim/4.jpg,stim/6.jpg,stim/latef.jpg,CD,2,4,,,,,,,,,,,,,0,27,27,31,,,,,,4,1,0.783061928858,,,,,,2015_Dez_02_1431,P12,PLC_L_D2S1,NHG,60.0185375562,
stim/posf.jpg,stim/negf.jpg,stim/4.jpg,stim/6.jpg,stim/latef.jpg,CD,2,4,,,,,,,,,,,,,0,28,28,35,,,,,,4,1,0.916383088849,,,,,,2015_Dez_02_1431,P12,PLC_L_D2S1,NHG,60.0185375562,
stim/posf.jpg,stim/negf.jpg,stim/2.jpg,stim/3.jpg,stim/latef.jpg,AB,1,2,,,,,,,,,,,,,0,29,29,3,,,,,,2,1,0.899784031699,,,,,,2015_Dez_02_1431,P12,PLC_L_D2S1,NHG,60.0185375562,
stim/negf.jpg,stim/posf.jpg,stim/1.jpg,stim/5.jpg,stim/latef.jpg,EF,1,2,,,,,,,,,,,,,0,30,30,47,,,,,,4,0,0.866324920865,,,,,,2015_Dez_02_1431,P12,PLC_L_D2S1,NHG,60.0185375562,
stim/negf.jpg,stim/posf.jpg,stim/4.jpg,stim/6.jpg,stim/latef.jpg,CD,2,4,,,,,,,,,,,,,0,31,31,38,,,,,,4,1,0.899681824948,,,,,,2015_Dez_02_1431,P12,PLC_L_D2S1,NHG,60.0185375562,
stim/negf.jpg,stim/posf.jpg,stim/4.jpg,stim/6.jpg,stim/latef.jpg,CD,2,4,,,,,,,,,,,,,0,32,32,39,,,,,,4,1,1.132958474,,,,,,2015_Dez_02_1431,P12,PLC_L_D2S1,NHG,60.0185375562,
stim/posf.jpg,stim/negf.jpg,stim/2.jpg,stim/3.jpg,stim/latef.jpg,AB,1,2,,,,,,,,,,,,,0,33,33,4,,,,,,2,1,0.833104364629,,,,,,2015_Dez_02_1431,P12,PLC_L_D2S1,NHG,60.0185375562,
stim/posf.jpg,stim/negf.jpg,stim/1.jpg,stim/5.jpg,stim/latef.jpg,EF,1,2,,,,,,,,,,,,,0,34,34,44,,,,,,4,0,0.683115874317,,,,,,2015_Dez_02_1431,P12,PLC_L_D2S1,NHG,60.0185375562,
stim/negf.jpg,stim/posf.jpg,stim/1.jpg,stim/5.jpg,stim/latef.jpg,EF,1,2,,,,,,,,,,,,,0,35,35,46,,,,,,4,0,0.63312480658,,,,,,2015_Dez_02_1431,P12,PLC_L_D2S1,NHG,60.0185375562,
stim/posf.jpg,stim/negf.jpg,stim/2.jpg,stim/3.jpg,stim/latef.jpg,AB,1,2,,,,,,,,,,,,,0,36,36,1,,,,,,2,1,0.716424712596,,,,,,2015_Dez_02_1431,P12,PLC_L_D2S1,NHG,60.0185375562,
stim/posf.jpg,stim/negf.jpg,stim/4.jpg,stim/6.jpg,stim/latef.jpg,CD,2,4,,,,,,,,,,,,,0,37,37,32,,,,,,4,1,0.79975146653,,,,,,2015_Dez_02_1431,P12,PLC_L_D2S1,NHG,60.0185375562,
stim/posf.jpg,stim/negf.jpg,stim/3.jpg,stim/2.jpg,stim/latef.jpg,AB,2,4,,,,,,,,,,,,,0,38,38,11,,,,,,4,1,0.849672667123,,,,,,2015_Dez_02_1431,P12,PLC_L_D2S1,NHG,60.0185375562,
stim/posf.jpg,stim/negf.jpg,stim/2.jpg,stim/3.jpg,stim/latef.jpg,AB,1,2,,,,,,,,,,,,,0,39,39,0,,,,,,2,1,0.766410959316,,,,,,2015_Dez_02_1431,P12,PLC_L_D2S1,NHG,60.0185375562,
stim/posf.jpg,stim/negf.jpg,stim/6.jpg,stim/4.jpg,stim/latef.jpg,CD,1,2,,,,,,,,,,,,,0,40,40,21,,,,,,2,1,0.66644560868,,,,,,2015_Dez_02_1431,P12,PLC_L_D2S1,NHG,60.0185375562,
stim/posf.jpg,stim/negf.jpg,stim/3.jpg,stim/2.jpg,stim/latef.jpg,AB,2,4,,,,,,,,,,,,,0,41,41,13,,,,,,4,1,0.633138015503,,,,,,2015_Dez_02_1431,P12,PLC_L_D2S1,NHG,60.0185375562,
stim/posf.jpg,stim/negf.jpg,stim/2.jpg,stim/3.jpg,stim/latef.jpg,AB,1,2,,,,,,,,,,,,,0,42,42,7,,,,,,2,1,0.61645545823,,,,,,2015_Dez_02_1431,P12,PLC_L_D2S1,NHG,60.0185375562,
stim/posf.jpg,stim/negf.jpg,stim/1.jpg,stim/5.jpg,stim/latef.jpg,EF,1,2,,,,,,,,,,,,,0,43,43,43,,,,,,4,0,0.766426411831,,,,,,2015_Dez_02_1431,P12,PLC_L_D2S1,NHG,60.0185375562,
stim/posf.jpg,stim/negf.jpg,stim/6.jpg,stim/4.jpg,stim/latef.jpg,CD,1,2,,,,,,,,,,,,,0,44,44,23,,,,,,2,1,0.533170821272,,,,,,2015_Dez_02_1431,P12,PLC_L_D2S1,NHG,60.0185375562,
stim/posf.jpg,stim/negf.jpg,stim/4.jpg,stim/6.jpg,stim/latef.jpg,CD,2,4,,,,,,,,,,,,,0,45,45,33,,,,,,4,1,0.599763198773,,,,,,2015_Dez_02_1431,P12,PLC_L_D2S1,NHG,60.0185375562,
stim/posf.jpg,stim/negf.jpg,stim/3.jpg,stim/2.jpg,stim/latef.jpg,AB,2,4,,,,,,,,,,,,,0,46,46,14,,,,,,4,1,0.933017565282,,,,,,2015_Dez_02_1431,P12,PLC_L_D2S1,NHG,60.0185375562,
stim/posf.jpg,stim/negf.jpg,stim/5.jpg,stim/1.jpg,stim/latef.jpg,EF,2,4,,,,,,,,,,,,,0,47,47,54,,,,,,2,0,1.09964595755,,,,,,2015_Dez_02_1431,P12,PLC_L_D2S1,NHG,60.0185375562,
stim/negf.jpg,stim/posf.jpg,stim/5.jpg,stim/1.jpg,stim/latef.jpg,EF,2,4,,,,,,,,,,,,,0,48,48,57,,,,,,2,0,0.982991192548,,,,,,2015_Dez_02_1431,P12,PLC_L_D2S1,NHG,60.0185375562,
stim/negf.jpg,stim/posf.jpg,stim/3.jpg,stim/2.jpg,stim/latef.jpg,AB,2,4,,,,,,,,,,,,,0,49,49,19,,,,,,4,1,0.949672369381,,,,,,2015_Dez_02_1431,P12,PLC_L_D2S1,NHG,60.0185375562,
stim/posf.jpg,stim/negf.jpg,stim/2.jpg,stim/3.jpg,stim/latef.jpg,AB,1,2,,,,,,,,,,,,,0,50,50,5,,,,,,2,1,0.949707527011,,,,,,2015_Dez_02_1431,P12,PLC_L_D2S1,NHG,60.0185375562,
stim/posf.jpg,stim/negf.jpg,stim/4.jpg,stim/6.jpg,stim/latef.jpg,CD,2,4,,,,,,,,,,,,,0,51,51,36,,,,,,4,1,1.13295937023,,,,,,2015_Dez_02_1431,P12,PLC_L_D2S1,NHG,60.0185375562,
stim/posf.jpg,stim/negf.jpg,stim/6.jpg,stim/4.jpg,stim/latef.jpg,CD,1,2,,,,,,,,,,,,,0,52,52,20,,,,,,2,1,1.19959621356,,,,,,2015_Dez_02_1431,P12,PLC_L_D2S1,NHG,60.0185375562,
stim/posf.jpg,stim/negf.jpg,stim/6.jpg,stim/4.jpg,stim/latef.jpg,CD,1,2,,,,,,,,,,,,,0,53,53,26,,,,,,2,1,0.799688892565,,,,,,2015_Dez_02_1431,P12,PLC_L_D2S1,NHG,60.0185375562,
stim/negf.jpg,stim/posf.jpg,stim/1.jpg,stim/5.jpg,stim/latef.jpg,EF,1,2,,,,,,,,,,,,,0,54,54,49,,,,,,4,0,0.699756437922,,,,,,2015_Dez_02_1431,P12,PLC_L_D2S1,NHG,60.0185375562,
stim/posf.jpg,stim/negf.jpg,stim/2.jpg,stim/3.jpg,stim/latef.jpg,AB,1,2,,,,,,,,,,,,,0,55,55,6,,,,,,2,1,0.749745595898,,,,,,2015_Dez_02_1431,P12,PLC_L_D2S1,NHG,60.0185375562,
stim/posf.jpg,stim/negf.jpg,stim/1.jpg,stim/5.jpg,stim/latef.jpg,EF,1,2,,,,,,,,,,,,,0,56,56,40,,,,,,4,0,0.649775755069,,,,,,2015_Dez_02_1431,P12,PLC_L_D2S1,NHG,60.0185375562,
stim/negf.jpg,stim/posf.jpg,stim/3.jpg,stim/2.jpg,stim/latef.jpg,AB,2,4,,,,,,,,,,,,,0,57,57,18,,,,,,4,1,0.749719349479,,,,,,2015_Dez_02_1431,P12,PLC_L_D2S1,NHG,60.0185375562,
stim/negf.jpg,stim/posf.jpg,stim/5.jpg,stim/1.jpg,stim/latef.jpg,EF,2,4,,,,,,,,,,,,,0,58,58,56,,,,,,2,0,0.683077910693,,,,,,2015_Dez_02_1431,P12,PLC_L_D2S1,NHG,60.0185375562,
stim/negf.jpg,stim/posf.jpg,stim/6.jpg,stim/4.jpg,stim/latef.jpg,CD,1,2,,,,,,,,,,,,,0,59,59,27,,,,,,2,1,0.566487136187,,,,,,2015_Dez_02_1431,P12,PLC_L_D2S1,NHG,60.0185375562,
