fb_corr,fb_incorr,symbol2,symbol1,fb_late,pair,position,correct,block_01.thisRepN,block_01.thisTrialN,block_01.thisN,block_01.thisIndex,block_02.thisRepN,block_02.thisTrialN,block_02.thisN,block_02.thisIndex,block_03.thisRepN,block_03.thisTrialN,block_03.thisN,block_03.thisIndex,block_04.thisRepN,block_04.thisTrialN,block_04.thisN,block_04.thisIndex,mouse.x,mouse.y,mouse.leftButton,mouse.midButton,mouse.rightButton,buttonBox_2.keys,buttonBox_2.corr,buttonBox_2.rt,mouse_2.x,mouse_2.y,mouse_2.leftButton,mouse_2.midButton,mouse_2.rightButton,date,Participant,expName,Group,frameRate,
,,,,,,,,,,,,,,,,,,,,,,,,0.9984375,1.0,1,0,0,,,,,,,,,2015_Dez_04_1337,P14,PLC_L_D2S1,NHG,60.0213035215,
stim/posf.jpg,stim/negf.jpg,stim/3.jpg,stim/5.jpg,stim/latef.jpg,CD,2,4,0,0,0,30,,,,,,,,,,,,,,,,,,4,1,1.03304980564,,,,,,2015_Dez_04_1337,P14,PLC_L_D2S1,NHG,60.0213035215,
stim/posf.jpg,stim/negf.jpg,stim/5.jpg,stim/3.jpg,stim/latef.jpg,CD,1,2,0,1,1,25,,,,,,,,,,,,,,,,,,2,1,1.33286530778,,,,,,2015_Dez_04_1337,P14,PLC_L_D2S1,NHG,60.0213035215,
stim/posf.jpg,stim/negf.jpg,stim/6.jpg,stim/1.jpg,stim/latef.jpg,EF,1,2,0,2,2,41,,,,,,,,,,,,,,,,,,4,0,1.36622289757,,,,,,2015_Dez_04_1337,P14,PLC_L_D2S1,NHG,60.0213035215,
stim/posf.jpg,stim/negf.jpg,stim/6.jpg,stim/1.jpg,stim/latef.jpg,EF,1,2,0,3,3,40,,,,,,,,,,,,,,,,,,2,1,1.36623553507,,,,,,2015_Dez_04_1337,P14,PLC_L_D2S1,NHG,60.0213035215,
stim/posf.jpg,stim/negf.jpg,stim/4.jpg,stim/2.jpg,stim/latef.jpg,AB,1,2,0,4,4,6,,,,,,,,,,,,,,,,,,4,0,1.6327682228,,,,,,2015_Dez_04_1337,P14,PLC_L_D2S1,NHG,60.0213035215,
stim/posf.jpg,stim/negf.jpg,stim/5.jpg,stim/3.jpg,stim/latef.jpg,CD,1,2,0,5,5,22,,,,,,,,,,,,,,,,,,2,1,1.09962904038,,,,,,2015_Dez_04_1337,P14,PLC_L_D2S1,NHG,60.0213035215,
stim/posf.jpg,stim/negf.jpg,stim/2.jpg,stim/4.jpg,stim/latef.jpg,AB,2,4,0,6,6,14,,,,,,,,,,,,,,,,,,2,0,1.18294094631,,,,,,2015_Dez_04_1337,P14,PLC_L_D2S1,NHG,60.0213035215,
stim/negf.jpg,stim/posf.jpg,stim/5.jpg,stim/3.jpg,stim/latef.jpg,CD,1,2,0,7,7,28,,,,,,,,,,,,,,,,,,2,1,1.09975082894,,,,,,2015_Dez_04_1337,P14,PLC_L_D2S1,NHG,60.0213035215,
stim/posf.jpg,stim/negf.jpg,stim/6.jpg,stim/1.jpg,stim/latef.jpg,EF,1,2,0,8,8,45,,,,,,,,,,,,,,,,,,2,1,1.31620237442,,,,,,2015_Dez_04_1337,P14,PLC_L_D2S1,NHG,60.0213035215,
stim/negf.jpg,stim/posf.jpg,stim/4.jpg,stim/2.jpg,stim/latef.jpg,AB,1,2,0,9,9,9,,,,,,,,,,,,,,,,,,2,1,1.31624561319,,,,,,2015_Dez_04_1337,P14,PLC_L_D2S1,NHG,60.0213035215,
stim/posf.jpg,stim/negf.jpg,stim/6.jpg,stim/1.jpg,stim/latef.jpg,EF,1,2,0,10,10,44,,,,,,,,,,,,,,,,,,2,1,1.06630844279,,,,,,2015_Dez_04_1337,P14,PLC_L_D2S1,NHG,60.0213035215,
stim/posf.jpg,stim/negf.jpg,stim/4.jpg,stim/2.jpg,stim/latef.jpg,AB,1,2,0,11,11,5,,,,,,,,,,,,,,,,,,2,1,1.33287227615,,,,,,2015_Dez_04_1337,P14,PLC_L_D2S1,NHG,60.0213035215,
stim/posf.jpg,stim/negf.jpg,stim/1.jpg,stim/6.jpg,stim/latef.jpg,EF,2,4,0,12,12,52,,,,,,,,,,,,,,,,,,None,0,,,,,,,2015_Dez_04_1337,P14,PLC_L_D2S1,NHG,60.0213035215,
stim/negf.jpg,stim/posf.jpg,stim/5.jpg,stim/3.jpg,stim/latef.jpg,CD,1,2,0,13,13,27,,,,,,,,,,,,,,,,,,2,1,0.883041017737,,,,,,2015_Dez_04_1337,P14,PLC_L_D2S1,NHG,60.0213035215,
stim/negf.jpg,stim/posf.jpg,stim/1.jpg,stim/6.jpg,stim/latef.jpg,EF,2,4,0,14,14,57,,,,,,,,,,,,,,,,,,4,1,1.01633727265,,,,,,2015_Dez_04_1337,P14,PLC_L_D2S1,NHG,60.0213035215,
stim/posf.jpg,stim/negf.jpg,stim/4.jpg,stim/2.jpg,stim/latef.jpg,AB,1,2,0,15,15,7,,,,,,,,,,,,,,,,,,2,1,1.21621943294,,,,,,2015_Dez_04_1337,P14,PLC_L_D2S1,NHG,60.0213035215,
stim/posf.jpg,stim/negf.jpg,stim/1.jpg,stim/6.jpg,stim/latef.jpg,EF,2,4,0,16,16,54,,,,,,,,,,,,,,,,,,4,1,0.966336349351,,,,,,2015_Dez_04_1337,P14,PLC_L_D2S1,NHG,60.0213035215,
stim/posf.jpg,stim/negf.jpg,stim/4.jpg,stim/2.jpg,stim/latef.jpg,AB,1,2,0,17,17,1,,,,,,,,,,,,,,,,,,2,1,0.983004055608,,,,,,2015_Dez_04_1337,P14,PLC_L_D2S1,NHG,60.0213035215,
stim/posf.jpg,stim/negf.jpg,stim/1.jpg,stim/6.jpg,stim/latef.jpg,EF,2,4,0,18,18,53,,,,,,,,,,,,,,,,,,4,1,0.99967292276,,,,,,2015_Dez_04_1337,P14,PLC_L_D2S1,NHG,60.0213035215,
stim/posf.jpg,stim/negf.jpg,stim/3.jpg,stim/5.jpg,stim/latef.jpg,CD,2,4,0,19,19,33,,,,,,,,,,,,,,,,,,2,0,0.783080737739,,,,,,2015_Dez_04_1337,P14,PLC_L_D2S1,NHG,60.0213035215,
stim/posf.jpg,stim/negf.jpg,stim/4.jpg,stim/2.jpg,stim/latef.jpg,AB,1,2,0,20,20,3,,,,,,,,,,,,,,,,,,2,1,0.766415437478,,,,,,2015_Dez_04_1337,P14,PLC_L_D2S1,NHG,60.0213035215,
stim/negf.jpg,stim/posf.jpg,stim/6.jpg,stim/1.jpg,stim/latef.jpg,EF,1,2,0,21,21,46,,,,,,,,,,,,,,,,,,2,1,1.1329720378,,,,,,2015_Dez_04_1337,P14,PLC_L_D2S1,NHG,60.0213035215,
stim/negf.jpg,stim/posf.jpg,stim/3.jpg,stim/5.jpg,stim/latef.jpg,CD,2,4,0,22,22,38,,,,,,,,,,,,,,,,,,4,1,0.916330629093,,,,,,2015_Dez_04_1337,P14,PLC_L_D2S1,NHG,60.0213035215,
stim/negf.jpg,stim/posf.jpg,stim/6.jpg,stim/1.jpg,stim/latef.jpg,EF,1,2,0,23,23,48,,,,,,,,,,,,,,,,,,2,1,1.23292397501,,,,,,2015_Dez_04_1337,P14,PLC_L_D2S1,NHG,60.0213035215,
stim/posf.jpg,stim/negf.jpg,stim/3.jpg,stim/5.jpg,stim/latef.jpg,CD,2,4,0,24,24,36,,,,,,,,,,,,,,,,,,4,1,0.899709063842,,,,,,2015_Dez_04_1337,P14,PLC_L_D2S1,NHG,60.0213035215,
stim/negf.jpg,stim/posf.jpg,stim/5.jpg,stim/3.jpg,stim/latef.jpg,CD,1,2,0,25,25,29,,,,,,,,,,,,,,,,,,2,1,0.816404604476,,,,,,2015_Dez_04_1337,P14,PLC_L_D2S1,NHG,60.0213035215,
stim/posf.jpg,stim/negf.jpg,stim/6.jpg,stim/1.jpg,stim/latef.jpg,EF,1,2,0,26,26,42,,,,,,,,,,,,,,,,,,2,1,0.949700988715,,,,,,2015_Dez_04_1337,P14,PLC_L_D2S1,NHG,60.0213035215,
stim/posf.jpg,stim/negf.jpg,stim/3.jpg,stim/5.jpg,stim/latef.jpg,CD,2,4,0,27,27,35,,,,,,,,,,,,,,,,,,4,1,0.883007884151,,,,,,2015_Dez_04_1337,P14,PLC_L_D2S1,NHG,60.0213035215,
stim/negf.jpg,stim/posf.jpg,stim/3.jpg,stim/5.jpg,stim/latef.jpg,CD,2,4,0,28,28,39,,,,,,,,,,,,,,,,,,4,1,0.982998765423,,,,,,2015_Dez_04_1337,P14,PLC_L_D2S1,NHG,60.0213035215,
stim/negf.jpg,stim/posf.jpg,stim/3.jpg,stim/5.jpg,stim/latef.jpg,CD,2,4,0,29,29,37,,,,,,,,,,,,,,,,,,4,1,0.766453572529,,,,,,2015_Dez_04_1337,P14,PLC_L_D2S1,NHG,60.0213035215,
stim/negf.jpg,stim/posf.jpg,stim/2.jpg,stim/4.jpg,stim/latef.jpg,AB,2,4,0,30,30,18,,,,,,,,,,,,,,,,,,4,1,0.883021643446,,,,,,2015_Dez_04_1337,P14,PLC_L_D2S1,NHG,60.0213035215,
stim/posf.jpg,stim/negf.jpg,stim/5.jpg,stim/3.jpg,stim/latef.jpg,CD,1,2,0,31,31,24,,,,,,,,,,,,,,,,,,2,1,0.716412390884,,,,,,2015_Dez_04_1337,P14,PLC_L_D2S1,NHG,60.0213035215,
stim/posf.jpg,stim/negf.jpg,stim/3.jpg,stim/5.jpg,stim/latef.jpg,CD,2,4,0,32,32,34,,,,,,,,,,,,,,,,,,4,1,0.733093282005,,,,,,2015_Dez_04_1337,P14,PLC_L_D2S1,NHG,60.0213035215,
stim/posf.jpg,stim/negf.jpg,stim/5.jpg,stim/3.jpg,stim/latef.jpg,CD,1,2,0,33,33,26,,,,,,,,,,,,,,,,,,2,1,0.616453362004,,,,,,2015_Dez_04_1337,P14,PLC_L_D2S1,NHG,60.0213035215,
stim/negf.jpg,stim/posf.jpg,stim/1.jpg,stim/6.jpg,stim/latef.jpg,EF,2,4,0,34,34,59,,,,,,,,,,,,,,,,,,2,0,1.09964056812,,,,,,2015_Dez_04_1337,P14,PLC_L_D2S1,NHG,60.0213035215,
stim/posf.jpg,stim/negf.jpg,stim/2.jpg,stim/4.jpg,stim/latef.jpg,AB,2,4,0,35,35,12,,,,,,,,,,,,,,,,,,4,1,0.949664676205,,,,,,2015_Dez_04_1337,P14,PLC_L_D2S1,NHG,60.0213035215,
stim/posf.jpg,stim/negf.jpg,stim/2.jpg,stim/4.jpg,stim/latef.jpg,AB,2,4,0,36,36,16,,,,,,,,,,,,,,,,,,4,1,0.899738083172,,,,,,2015_Dez_04_1337,P14,PLC_L_D2S1,NHG,60.0213035215,
stim/posf.jpg,stim/negf.jpg,stim/4.jpg,stim/2.jpg,stim/latef.jpg,AB,1,2,0,37,37,4,,,,,,,,,,,,,,,,,,2,1,0.666460216089,,,,,,2015_Dez_04_1337,P14,PLC_L_D2S1,NHG,60.0213035215,
stim/negf.jpg,stim/posf.jpg,stim/4.jpg,stim/2.jpg,stim/latef.jpg,AB,1,2,0,38,38,8,,,,,,,,,,,,,,,,,,2,1,0.649779761055,,,,,,2015_Dez_04_1337,P14,PLC_L_D2S1,NHG,60.0213035215,
stim/negf.jpg,stim/posf.jpg,stim/6.jpg,stim/1.jpg,stim/latef.jpg,EF,1,2,0,39,39,49,,,,,,,,,,,,,,,,,,4,0,0.849709120984,,,,,,2015_Dez_04_1337,P14,PLC_L_D2S1,NHG,60.0213035215,
stim/posf.jpg,stim/negf.jpg,stim/2.jpg,stim/4.jpg,stim/latef.jpg,AB,2,4,0,40,40,10,,,,,,,,,,,,,,,,,,4,1,0.999659154442,,,,,,2015_Dez_04_1337,P14,PLC_L_D2S1,NHG,60.0213035215,
stim/posf.jpg,stim/negf.jpg,stim/5.jpg,stim/3.jpg,stim/latef.jpg,CD,1,2,0,41,41,20,,,,,,,,,,,,,,,,,,2,1,0.766416769799,,,,,,2015_Dez_04_1337,P14,PLC_L_D2S1,NHG,60.0213035215,
stim/posf.jpg,stim/negf.jpg,stim/5.jpg,stim/3.jpg,stim/latef.jpg,CD,1,2,0,42,42,23,,,,,,,,,,,,,,,,,,2,1,0.63311969083,,,,,,2015_Dez_04_1337,P14,PLC_L_D2S1,NHG,60.0213035215,
stim/posf.jpg,stim/negf.jpg,stim/2.jpg,stim/4.jpg,stim/latef.jpg,AB,2,4,0,43,43,11,,,,,,,,,,,,,,,,,,4,1,0.833023192306,,,,,,2015_Dez_04_1337,P14,PLC_L_D2S1,NHG,60.0213035215,
stim/posf.jpg,stim/negf.jpg,stim/1.jpg,stim/6.jpg,stim/latef.jpg,EF,2,4,0,44,44,51,,,,,,,,,,,,,,,,,,2,0,0.699744582371,,,,,,2015_Dez_04_1337,P14,PLC_L_D2S1,NHG,60.0213035215,
stim/posf.jpg,stim/negf.jpg,stim/4.jpg,stim/2.jpg,stim/latef.jpg,AB,1,2,0,45,45,0,,,,,,,,,,,,,,,,,,2,1,0.766408261592,,,,,,2015_Dez_04_1337,P14,PLC_L_D2S1,NHG,60.0213035215,
stim/negf.jpg,stim/posf.jpg,stim/1.jpg,stim/6.jpg,stim/latef.jpg,EF,2,4,0,46,46,58,,,,,,,,,,,,,,,,,,2,0,0.74976519575,,,,,,2015_Dez_04_1337,P14,PLC_L_D2S1,NHG,60.0213035215,
stim/posf.jpg,stim/negf.jpg,stim/3.jpg,stim/5.jpg,stim/latef.jpg,CD,2,4,0,47,47,32,,,,,,,,,,,,,,,,,,4,1,0.799746759798,,,,,,2015_Dez_04_1337,P14,PLC_L_D2S1,NHG,60.0213035215,
stim/posf.jpg,stim/negf.jpg,stim/2.jpg,stim/4.jpg,stim/latef.jpg,AB,2,4,0,48,48,17,,,,,,,,,,,,,,,,,,4,1,0.949689136172,,,,,,2015_Dez_04_1337,P14,PLC_L_D2S1,NHG,60.0213035215,
stim/posf.jpg,stim/negf.jpg,stim/2.jpg,stim/4.jpg,stim/latef.jpg,AB,2,4,0,49,49,15,,,,,,,,,,,,,,,,,,2,0,1.28296723483,,,,,,2015_Dez_04_1337,P14,PLC_L_D2S1,NHG,60.0213035215,
stim/posf.jpg,stim/negf.jpg,stim/1.jpg,stim/6.jpg,stim/latef.jpg,EF,2,4,0,50,50,50,,,,,,,,,,,,,,,,,,2,0,1.04962827046,,,,,,2015_Dez_04_1337,P14,PLC_L_D2S1,NHG,60.0213035215,
stim/posf.jpg,stim/negf.jpg,stim/6.jpg,stim/1.jpg,stim/latef.jpg,EF,1,2,0,51,51,43,,,,,,,,,,,,,,,,,,4,0,0.866379305419,,,,,,2015_Dez_04_1337,P14,PLC_L_D2S1,NHG,60.0213035215,
stim/negf.jpg,stim/posf.jpg,stim/1.jpg,stim/6.jpg,stim/latef.jpg,EF,2,4,0,52,52,56,,,,,,,,,,,,,,,,,,2,0,0.61645916948,,,,,,2015_Dez_04_1337,P14,PLC_L_D2S1,NHG,60.0213035215,
stim/posf.jpg,stim/negf.jpg,stim/4.jpg,stim/2.jpg,stim/latef.jpg,AB,1,2,0,53,53,2,,,,,,,,,,,,,,,,,,2,1,0.749749090608,,,,,,2015_Dez_04_1337,P14,PLC_L_D2S1,NHG,60.0213035215,
stim/posf.jpg,stim/negf.jpg,stim/2.jpg,stim/4.jpg,stim/latef.jpg,AB,2,4,0,54,54,13,,,,,,,,,,,,,,,,,,4,1,0.98299874437,,,,,,2015_Dez_04_1337,P14,PLC_L_D2S1,NHG,60.0213035215,
stim/posf.jpg,stim/negf.jpg,stim/5.jpg,stim/3.jpg,stim/latef.jpg,CD,1,2,0,55,55,21,,,,,,,,,,,,,,,,,,2,1,0.766406724762,,,,,,2015_Dez_04_1337,P14,PLC_L_D2S1,NHG,60.0213035215,
stim/negf.jpg,stim/posf.jpg,stim/2.jpg,stim/4.jpg,stim/latef.jpg,AB,2,4,0,56,56,19,,,,,,,,,,,,,,,,,,4,1,0.916333507267,,,,,,2015_Dez_04_1337,P14,PLC_L_D2S1,NHG,60.0213035215,
stim/posf.jpg,stim/negf.jpg,stim/1.jpg,stim/6.jpg,stim/latef.jpg,EF,2,4,0,57,57,55,,,,,,,,,,,,,,,,,,2,0,0.833011387885,,,,,,2015_Dez_04_1337,P14,PLC_L_D2S1,NHG,60.0213035215,
stim/posf.jpg,stim/negf.jpg,stim/3.jpg,stim/5.jpg,stim/latef.jpg,CD,2,4,0,58,58,31,,,,,,,,,,,,,,,,,,4,1,0.766442835768,,,,,,2015_Dez_04_1337,P14,PLC_L_D2S1,NHG,60.0213035215,
stim/negf.jpg,stim/posf.jpg,stim/6.jpg,stim/1.jpg,stim/latef.jpg,EF,1,2,0,59,59,47,,,,,,,,,,,,,,,,,,4,0,0.683106045819,,,,,,2015_Dez_04_1337,P14,PLC_L_D2S1,NHG,60.0213035215,
,,,,,,,,,,,,,,,,,,,,,,,,,,,,,,,,0.9984375,1.0,1,0,0,2015_Dez_04_1337,P14,PLC_L_D2S1,NHG,60.0213035215,
stim/negf.jpg,stim/posf.jpg,stim/5.jpg,stim/3.jpg,stim/latef.jpg,CD,1,2,,,,,0,0,0,29,,,,,,,,,,,,,,2,1,0.799770552101,,,,,,2015_Dez_04_1337,P14,PLC_L_D2S1,NHG,60.0213035215,
stim/posf.jpg,stim/negf.jpg,stim/2.jpg,stim/4.jpg,stim/latef.jpg,AB,2,4,,,,,0,1,1,17,,,,,,,,,,,,,,4,1,0.866309736017,,,,,,2015_Dez_04_1337,P14,PLC_L_D2S1,NHG,60.0213035215,
stim/negf.jpg,stim/posf.jpg,stim/6.jpg,stim/1.jpg,stim/latef.jpg,EF,1,2,,,,,0,2,2,46,,,,,,,,,,,,,,4,0,1.0329467989,,,,,,2015_Dez_04_1337,P14,PLC_L_D2S1,NHG,60.0213035215,
stim/posf.jpg,stim/negf.jpg,stim/3.jpg,stim/5.jpg,stim/latef.jpg,CD,2,4,,,,,0,3,3,35,,,,,,,,,,,,,,4,1,0.699781330968,,,,,,2015_Dez_04_1337,P14,PLC_L_D2S1,NHG,60.0213035215,
stim/posf.jpg,stim/negf.jpg,stim/5.jpg,stim/3.jpg,stim/latef.jpg,CD,1,2,,,,,0,4,4,20,,,,,,,,,,,,,,2,1,0.799733439598,,,,,,2015_Dez_04_1337,P14,PLC_L_D2S1,NHG,60.0213035215,
stim/posf.jpg,stim/negf.jpg,stim/4.jpg,stim/2.jpg,stim/latef.jpg,AB,1,2,,,,,0,5,5,2,,,,,,,,,,,,,,2,1,0.716427431373,,,,,,2015_Dez_04_1337,P14,PLC_L_D2S1,NHG,60.0213035215,
stim/posf.jpg,stim/negf.jpg,stim/1.jpg,stim/6.jpg,stim/latef.jpg,EF,2,4,,,,,0,6,6,52,,,,,,,,,,,,,,2,0,0.883043865836,,,,,,2015_Dez_04_1337,P14,PLC_L_D2S1,NHG,60.0213035215,
stim/posf.jpg,stim/negf.jpg,stim/4.jpg,stim/2.jpg,stim/latef.jpg,AB,1,2,,,,,0,7,7,1,,,,,,,,,,,,,,2,1,0.699767325058,,,,,,2015_Dez_04_1337,P14,PLC_L_D2S1,NHG,60.0213035215,
stim/posf.jpg,stim/negf.jpg,stim/5.jpg,stim/3.jpg,stim/latef.jpg,CD,1,2,,,,,0,8,8,23,,,,,,,,,,,,,,2,1,0.649770567139,,,,,,2015_Dez_04_1337,P14,PLC_L_D2S1,NHG,60.0213035215,
stim/posf.jpg,stim/negf.jpg,stim/4.jpg,stim/2.jpg,stim/latef.jpg,AB,1,2,,,,,0,9,9,5,,,,,,,,,,,,,,2,1,0.599815917174,,,,,,2015_Dez_04_1337,P14,PLC_L_D2S1,NHG,60.0213035215,
stim/posf.jpg,stim/negf.jpg,stim/2.jpg,stim/4.jpg,stim/latef.jpg,AB,2,4,,,,,0,10,10,16,,,,,,,,,,,,,,4,1,0.816363449899,,,,,,2015_Dez_04_1337,P14,PLC_L_D2S1,NHG,60.0213035215,
stim/posf.jpg,stim/negf.jpg,stim/6.jpg,stim/1.jpg,stim/latef.jpg,EF,1,2,,,,,0,11,11,45,,,,,,,,,,,,,,4,0,0.916316668296,,,,,,2015_Dez_04_1337,P14,PLC_L_D2S1,NHG,60.0213035215,
stim/negf.jpg,stim/posf.jpg,stim/1.jpg,stim/6.jpg,stim/latef.jpg,EF,2,4,,,,,0,12,12,59,,,,,,,,,,,,,,2,0,0.633118704371,,,,,,2015_Dez_04_1337,P14,PLC_L_D2S1,NHG,60.0213035215,
stim/negf.jpg,stim/posf.jpg,stim/1.jpg,stim/6.jpg,stim/latef.jpg,EF,2,4,,,,,0,13,13,57,,,,,,,,,,,,,,2,0,0.683120232179,,,,,,2015_Dez_04_1337,P14,PLC_L_D2S1,NHG,60.0213035215,
stim/negf.jpg,stim/posf.jpg,stim/5.jpg,stim/3.jpg,stim/latef.jpg,CD,1,2,,,,,0,14,14,27,,,,,,,,,,,,,,2,1,0.649790825633,,,,,,2015_Dez_04_1337,P14,PLC_L_D2S1,NHG,60.0213035215,
stim/posf.jpg,stim/negf.jpg,stim/5.jpg,stim/3.jpg,stim/latef.jpg,CD,1,2,,,,,0,15,15,22,,,,,,,,,,,,,,2,1,0.499838626778,,,,,,2015_Dez_04_1337,P14,PLC_L_D2S1,NHG,60.0213035215,
stim/negf.jpg,stim/posf.jpg,stim/6.jpg,stim/1.jpg,stim/latef.jpg,EF,1,2,,,,,0,16,16,47,,,,,,,,,,,,,,4,0,0.716421157736,,,,,,2015_Dez_04_1337,P14,PLC_L_D2S1,NHG,60.0213035215,
stim/posf.jpg,stim/negf.jpg,stim/6.jpg,stim/1.jpg,stim/latef.jpg,EF,1,2,,,,,0,17,17,43,,,,,,,,,,,,,,4,0,0.599798133849,,,,,,2015_Dez_04_1337,P14,PLC_L_D2S1,NHG,60.0213035215,
stim/posf.jpg,stim/negf.jpg,stim/2.jpg,stim/4.jpg,stim/latef.jpg,AB,2,4,,,,,0,18,18,11,,,,,,,,,,,,,,4,1,1.01633646364,,,,,,2015_Dez_04_1337,P14,PLC_L_D2S1,NHG,60.0213035215,
stim/negf.jpg,stim/posf.jpg,stim/3.jpg,stim/5.jpg,stim/latef.jpg,CD,2,4,,,,,0,19,19,39,,,,,,,,,,,,,,4,1,0.74973979143,,,,,,2015_Dez_04_1337,P14,PLC_L_D2S1,NHG,60.0213035215,
stim/negf.jpg,stim/posf.jpg,stim/3.jpg,stim/5.jpg,stim/latef.jpg,CD,2,4,,,,,0,20,20,38,,,,,,,,,,,,,,4,1,0.649774200194,,,,,,2015_Dez_04_1337,P14,PLC_L_D2S1,NHG,60.0213035215,
stim/posf.jpg,stim/negf.jpg,stim/4.jpg,stim/2.jpg,stim/latef.jpg,AB,1,2,,,,,0,21,21,6,,,,,,,,,,,,,,2,1,0.866399500756,,,,,,2015_Dez_04_1337,P14,PLC_L_D2S1,NHG,60.0213035215,
stim/posf.jpg,stim/negf.jpg,stim/1.jpg,stim/6.jpg,stim/latef.jpg,EF,2,4,,,,,0,22,22,50,,,,,,,,,,,,,,2,0,1.13295806798,,,,,,2015_Dez_04_1337,P14,PLC_L_D2S1,NHG,60.0213035215,
stim/negf.jpg,stim/posf.jpg,stim/1.jpg,stim/6.jpg,stim/latef.jpg,EF,2,4,,,,,0,23,23,56,,,,,,,,,,,,,,2,0,0.549491134653,,,,,,2015_Dez_04_1337,P14,PLC_L_D2S1,NHG,60.0213035215,
stim/posf.jpg,stim/negf.jpg,stim/6.jpg,stim/1.jpg,stim/latef.jpg,EF,1,2,,,,,0,24,24,41,,,,,,,,,,,,,,4,0,0.58311327584,,,,,,2015_Dez_04_1337,P14,PLC_L_D2S1,NHG,60.0213035215,
stim/negf.jpg,stim/posf.jpg,stim/2.jpg,stim/4.jpg,stim/latef.jpg,AB,2,4,,,,,0,25,25,18,,,,,,,,,,,,,,4,1,0.749746239502,,,,,,2015_Dez_04_1337,P14,PLC_L_D2S1,NHG,60.0213035215,
stim/posf.jpg,stim/negf.jpg,stim/4.jpg,stim/2.jpg,stim/latef.jpg,AB,1,2,,,,,0,26,26,7,,,,,,,,,,,,,,2,1,1.04963976211,,,,,,2015_Dez_04_1337,P14,PLC_L_D2S1,NHG,60.0213035215,
stim/posf.jpg,stim/negf.jpg,stim/3.jpg,stim/5.jpg,stim/latef.jpg,CD,2,4,,,,,0,27,27,30,,,,,,,,,,,,,,4,1,0.699794521845,,,,,,2015_Dez_04_1337,P14,PLC_L_D2S1,NHG,60.0213035215,
stim/posf.jpg,stim/negf.jpg,stim/3.jpg,stim/5.jpg,stim/latef.jpg,CD,2,4,,,,,0,28,28,31,,,,,,,,,,,,,,4,1,0.783089002338,,,,,,2015_Dez_04_1337,P14,PLC_L_D2S1,NHG,60.0213035215,
stim/posf.jpg,stim/negf.jpg,stim/1.jpg,stim/6.jpg,stim/latef.jpg,EF,2,4,,,,,0,29,29,55,,,,,,,,,,,,,,2,0,0.866372734039,,,,,,2015_Dez_04_1337,P14,PLC_L_D2S1,NHG,60.0213035215,
stim/negf.jpg,stim/posf.jpg,stim/2.jpg,stim/4.jpg,stim/latef.jpg,AB,2,4,,,,,0,30,30,19,,,,,,,,,,,,,,4,1,0.783030662928,,,,,,2015_Dez_04_1337,P14,PLC_L_D2S1,NHG,60.0213035215,
stim/posf.jpg,stim/negf.jpg,stim/2.jpg,stim/4.jpg,stim/latef.jpg,AB,2,4,,,,,0,31,31,10,,,,,,,,,,,,,,4,1,0.949704372148,,,,,,2015_Dez_04_1337,P14,PLC_L_D2S1,NHG,60.0213035215,
stim/posf.jpg,stim/negf.jpg,stim/3.jpg,stim/5.jpg,stim/latef.jpg,CD,2,4,,,,,0,32,32,32,,,,,,,,,,,,,,4,1,0.866379143014,,,,,,2015_Dez_04_1337,P14,PLC_L_D2S1,NHG,60.0213035215,
stim/posf.jpg,stim/negf.jpg,stim/5.jpg,stim/3.jpg,stim/latef.jpg,CD,1,2,,,,,0,33,33,25,,,,,,,,,,,,,,2,1,0.633108620236,,,,,,2015_Dez_04_1337,P14,PLC_L_D2S1,NHG,60.0213035215,
stim/posf.jpg,stim/negf.jpg,stim/2.jpg,stim/4.jpg,stim/latef.jpg,AB,2,4,,,,,0,34,34,12,,,,,,,,,,,,,,4,1,0.849712669829,,,,,,2015_Dez_04_1337,P14,PLC_L_D2S1,NHG,60.0213035215,
stim/posf.jpg,stim/negf.jpg,stim/3.jpg,stim/5.jpg,stim/latef.jpg,CD,2,4,,,,,0,35,35,36,,,,,,,,,,,,,,4,1,0.599787529417,,,,,,2015_Dez_04_1337,P14,PLC_L_D2S1,NHG,60.0213035215,
stim/posf.jpg,stim/negf.jpg,stim/5.jpg,stim/3.jpg,stim/latef.jpg,CD,1,2,,,,,0,36,36,26,,,,,,,,,,,,,,2,1,0.733041150066,,,,,,2015_Dez_04_1337,P14,PLC_L_D2S1,NHG,60.0213035215,
stim/posf.jpg,stim/negf.jpg,stim/5.jpg,stim/3.jpg,stim/latef.jpg,CD,1,2,,,,,0,37,37,24,,,,,,,,,,,,,,2,1,0.68313704709,,,,,,2015_Dez_04_1337,P14,PLC_L_D2S1,NHG,60.0213035215,
stim/posf.jpg,stim/negf.jpg,stim/3.jpg,stim/5.jpg,stim/latef.jpg,CD,2,4,,,,,0,38,38,34,,,,,,,,,,,,,,4,1,0.783084764776,,,,,,2015_Dez_04_1337,P14,PLC_L_D2S1,NHG,60.0213035215,
stim/posf.jpg,stim/negf.jpg,stim/6.jpg,stim/1.jpg,stim/latef.jpg,EF,1,2,,,,,0,39,39,42,,,,,,,,,,,,,,4,0,0.833072419004,,,,,,2015_Dez_04_1337,P14,PLC_L_D2S1,NHG,60.0213035215,
stim/negf.jpg,stim/posf.jpg,stim/4.jpg,stim/2.jpg,stim/latef.jpg,AB,1,2,,,,,0,40,40,9,,,,,,,,,,,,,,2,1,0.866375810708,,,,,,2015_Dez_04_1337,P14,PLC_L_D2S1,NHG,60.0213035215,
stim/posf.jpg,stim/negf.jpg,stim/1.jpg,stim/6.jpg,stim/latef.jpg,EF,2,4,,,,,0,41,41,54,,,,,,,,,,,,,,2,0,1.09961920286,,,,,,2015_Dez_04_1337,P14,PLC_L_D2S1,NHG,60.0213035215,
stim/posf.jpg,stim/negf.jpg,stim/1.jpg,stim/6.jpg,stim/latef.jpg,EF,2,4,,,,,0,42,42,51,,,,,,,,,,,,,,2,0,0.74974237487,,,,,,2015_Dez_04_1337,P14,PLC_L_D2S1,NHG,60.0213035215,
stim/posf.jpg,stim/negf.jpg,stim/6.jpg,stim/1.jpg,stim/latef.jpg,EF,1,2,,,,,0,43,43,40,,,,,,,,,,,,,,4,0,0.882973511478,,,,,,2015_Dez_04_1337,P14,PLC_L_D2S1,NHG,60.0213035215,
stim/posf.jpg,stim/negf.jpg,stim/4.jpg,stim/2.jpg,stim/latef.jpg,AB,1,2,,,,,0,44,44,0,,,,,,,,,,,,,,2,1,0.88304265983,,,,,,2015_Dez_04_1337,P14,PLC_L_D2S1,NHG,60.0213035215,
stim/posf.jpg,stim/negf.jpg,stim/2.jpg,stim/4.jpg,stim/latef.jpg,AB,2,4,,,,,0,45,45,13,,,,,,,,,,,,,,4,1,0.866394739889,,,,,,2015_Dez_04_1337,P14,PLC_L_D2S1,NHG,60.0213035215,
stim/posf.jpg,stim/negf.jpg,stim/6.jpg,stim/1.jpg,stim/latef.jpg,EF,1,2,,,,,0,46,46,44,,,,,,,,,,,,,,4,0,1.06631967278,,,,,,2015_Dez_04_1337,P14,PLC_L_D2S1,NHG,60.0213035215,
stim/posf.jpg,stim/negf.jpg,stim/2.jpg,stim/4.jpg,stim/latef.jpg,AB,2,4,,,,,0,47,47,14,,,,,,,,,,,,,,4,1,0.899651028188,,,,,,2015_Dez_04_1337,P14,PLC_L_D2S1,NHG,60.0213035215,
stim/posf.jpg,stim/negf.jpg,stim/1.jpg,stim/6.jpg,stim/latef.jpg,EF,2,4,,,,,0,48,48,53,,,,,,,,,,,,,,2,0,0.883061375479,,,,,,2015_Dez_04_1337,P14,PLC_L_D2S1,NHG,60.0213035215,
stim/negf.jpg,stim/posf.jpg,stim/3.jpg,stim/5.jpg,stim/latef.jpg,CD,2,4,,,,,0,49,49,37,,,,,,,,,,,,,,4,1,0.733068990459,,,,,,2015_Dez_04_1337,P14,PLC_L_D2S1,NHG,60.0213035215,
stim/negf.jpg,stim/posf.jpg,stim/5.jpg,stim/3.jpg,stim/latef.jpg,CD,1,2,,,,,0,50,50,28,,,,,,,,,,,,,,2,1,0.79974594176,,,,,,2015_Dez_04_1337,P14,PLC_L_D2S1,NHG,60.0213035215,
stim/negf.jpg,stim/posf.jpg,stim/6.jpg,stim/1.jpg,stim/latef.jpg,EF,1,2,,,,,0,51,51,48,,,,,,,,,,,,,,4,0,0.816393016594,,,,,,2015_Dez_04_1337,P14,PLC_L_D2S1,NHG,60.0213035215,
stim/posf.jpg,stim/negf.jpg,stim/4.jpg,stim/2.jpg,stim/latef.jpg,AB,1,2,,,,,0,52,52,4,,,,,,,,,,,,,,2,1,0.699754603349,,,,,,2015_Dez_04_1337,P14,PLC_L_D2S1,NHG,60.0213035215,
stim/posf.jpg,stim/negf.jpg,stim/4.jpg,stim/2.jpg,stim/latef.jpg,AB,1,2,,,,,0,53,53,3,,,,,,,,,,,,,,2,1,1.03299010383,,,,,,2015_Dez_04_1337,P14,PLC_L_D2S1,NHG,60.0213035215,
stim/negf.jpg,stim/posf.jpg,stim/4.jpg,stim/2.jpg,stim/latef.jpg,AB,1,2,,,,,0,54,54,8,,,,,,,,,,,,,,2,1,0.633088939181,,,,,,2015_Dez_04_1337,P14,PLC_L_D2S1,NHG,60.0213035215,
stim/posf.jpg,stim/negf.jpg,stim/3.jpg,stim/5.jpg,stim/latef.jpg,CD,2,4,,,,,0,55,55,33,,,,,,,,,,,,,,4,1,0.749752028932,,,,,,2015_Dez_04_1337,P14,PLC_L_D2S1,NHG,60.0213035215,
stim/negf.jpg,stim/posf.jpg,stim/6.jpg,stim/1.jpg,stim/latef.jpg,EF,1,2,,,,,0,56,56,49,,,,,,,,,,,,,,4,0,0.83306018451,,,,,,2015_Dez_04_1337,P14,PLC_L_D2S1,NHG,60.0213035215,
stim/posf.jpg,stim/negf.jpg,stim/2.jpg,stim/4.jpg,stim/latef.jpg,AB,2,4,,,,,0,57,57,15,,,,,,,,,,,,,,4,1,0.899687674529,,,,,,2015_Dez_04_1337,P14,PLC_L_D2S1,NHG,60.0213035215,
stim/posf.jpg,stim/negf.jpg,stim/5.jpg,stim/3.jpg,stim/latef.jpg,CD,1,2,,,,,0,58,58,21,,,,,,,,,,,,,,2,1,0.699770819769,,,,,,2015_Dez_04_1337,P14,PLC_L_D2S1,NHG,60.0213035215,
stim/negf.jpg,stim/posf.jpg,stim/1.jpg,stim/6.jpg,stim/latef.jpg,EF,2,4,,,,,0,59,59,58,,,,,,,,,,,,,,2,0,0.966403272156,,,,,,2015_Dez_04_1337,P14,PLC_L_D2S1,NHG,60.0213035215,
,,,,,,,,,,,,,,,,,,,,,,,,,,,,,,,,0.9984375,1.0,1,0,0,2015_Dez_04_1337,P14,PLC_L_D2S1,NHG,60.0213035215,
stim/posf.jpg,stim/negf.jpg,stim/5.jpg,stim/3.jpg,stim/latef.jpg,CD,1,2,,,,,,,,,0,0,0,20,,,,,,,,,,2,1,0.74973043511,,,,,,2015_Dez_04_1337,P14,PLC_L_D2S1,NHG,60.0213035215,
stim/posf.jpg,stim/negf.jpg,stim/5.jpg,stim/3.jpg,stim/latef.jpg,CD,1,2,,,,,,,,,0,1,1,21,,,,,,,,,,2,1,0.733083790348,,,,,,2015_Dez_04_1337,P14,PLC_L_D2S1,NHG,60.0213035215,
stim/posf.jpg,stim/negf.jpg,stim/1.jpg,stim/6.jpg,stim/latef.jpg,EF,2,4,,,,,,,,,0,2,2,54,,,,,,,,,,2,0,1.14961750964,,,,,,2015_Dez_04_1337,P14,PLC_L_D2S1,NHG,60.0213035215,
stim/posf.jpg,stim/negf.jpg,stim/5.jpg,stim/3.jpg,stim/latef.jpg,CD,1,2,,,,,,,,,0,3,3,22,,,,,,,,,,2,1,0.699777950542,,,,,,2015_Dez_04_1337,P14,PLC_L_D2S1,NHG,60.0213035215,
stim/posf.jpg,stim/negf.jpg,stim/4.jpg,stim/2.jpg,stim/latef.jpg,AB,1,2,,,,,,,,,0,4,4,4,,,,,,,,,,2,1,0.966355561236,,,,,,2015_Dez_04_1337,P14,PLC_L_D2S1,NHG,60.0213035215,
stim/posf.jpg,stim/negf.jpg,stim/3.jpg,stim/5.jpg,stim/latef.jpg,CD,2,4,,,,,,,,,0,5,5,33,,,,,,,,,,2,0,0.833033089977,,,,,,2015_Dez_04_1337,P14,PLC_L_D2S1,NHG,60.0213035215,
stim/negf.jpg,stim/posf.jpg,stim/1.jpg,stim/6.jpg,stim/latef.jpg,EF,2,4,,,,,,,,,0,6,6,59,,,,,,,,,,2,0,0.599840738039,,,,,,2015_Dez_04_1337,P14,PLC_L_D2S1,NHG,60.0213035215,
stim/posf.jpg,stim/negf.jpg,stim/6.jpg,stim/1.jpg,stim/latef.jpg,EF,1,2,,,,,,,,,0,7,7,43,,,,,,,,,,4,0,0.699764982218,,,,,,2015_Dez_04_1337,P14,PLC_L_D2S1,NHG,60.0213035215,
stim/posf.jpg,stim/negf.jpg,stim/1.jpg,stim/6.jpg,stim/latef.jpg,EF,2,4,,,,,,,,,0,8,8,52,,,,,,,,,,2,0,0.549804987932,,,,,,2015_Dez_04_1337,P14,PLC_L_D2S1,NHG,60.0213035215,
stim/negf.jpg,stim/posf.jpg,stim/4.jpg,stim/2.jpg,stim/latef.jpg,AB,1,2,,,,,,,,,0,9,9,9,,,,,,,,,,2,1,0.649782395621,,,,,,2015_Dez_04_1337,P14,PLC_L_D2S1,NHG,60.0213035215,
stim/posf.jpg,stim/negf.jpg,stim/1.jpg,stim/6.jpg,stim/latef.jpg,EF,2,4,,,,,,,,,0,10,10,55,,,,,,,,,,2,0,0.633130505786,,,,,,2015_Dez_04_1337,P14,PLC_L_D2S1,NHG,60.0213035215,
stim/posf.jpg,stim/negf.jpg,stim/5.jpg,stim/3.jpg,stim/latef.jpg,CD,1,2,,,,,,,,,0,11,11,23,,,,,,,,,,2,1,0.766394815077,,,,,,2015_Dez_04_1337,P14,PLC_L_D2S1,NHG,60.0213035215,
stim/negf.jpg,stim/posf.jpg,stim/4.jpg,stim/2.jpg,stim/latef.jpg,AB,1,2,,,,,,,,,0,12,12,8,,,,,,,,,,2,1,0.666451563522,,,,,,2015_Dez_04_1337,P14,PLC_L_D2S1,NHG,60.0213035215,
stim/negf.jpg,stim/posf.jpg,stim/6.jpg,stim/1.jpg,stim/latef.jpg,EF,1,2,,,,,,,,,0,13,13,46,,,,,,,,,,4,0,0.899723562981,,,,,,2015_Dez_04_1337,P14,PLC_L_D2S1,NHG,60.0213035215,
stim/posf.jpg,stim/negf.jpg,stim/3.jpg,stim/5.jpg,stim/latef.jpg,CD,2,4,,,,,,,,,0,14,14,35,,,,,,,,,,4,1,0.899687124157,,,,,,2015_Dez_04_1337,P14,PLC_L_D2S1,NHG,60.0213035215,
stim/posf.jpg,stim/negf.jpg,stim/1.jpg,stim/6.jpg,stim/latef.jpg,EF,2,4,,,,,,,,,0,15,15,50,,,,,,,,,,2,0,0.566384213652,,,,,,2015_Dez_04_1337,P14,PLC_L_D2S1,NHG,60.0213035215,
stim/posf.jpg,stim/negf.jpg,stim/5.jpg,stim/3.jpg,stim/latef.jpg,CD,1,2,,,,,,,,,0,16,16,26,,,,,,,,,,2,1,0.716400246615,,,,,,2015_Dez_04_1337,P14,PLC_L_D2S1,NHG,60.0213035215,
stim/negf.jpg,stim/posf.jpg,stim/2.jpg,stim/4.jpg,stim/latef.jpg,AB,2,4,,,,,,,,,0,17,17,19,,,,,,,,,,4,1,0.933026476493,,,,,,2015_Dez_04_1337,P14,PLC_L_D2S1,NHG,60.0213035215,
stim/posf.jpg,stim/negf.jpg,stim/4.jpg,stim/2.jpg,stim/latef.jpg,AB,1,2,,,,,,,,,0,18,18,2,,,,,,,,,,2,1,0.716431271945,,,,,,2015_Dez_04_1337,P14,PLC_L_D2S1,NHG,60.0213035215,
stim/posf.jpg,stim/negf.jpg,stim/5.jpg,stim/3.jpg,stim/latef.jpg,CD,1,2,,,,,,,,,0,19,19,24,,,,,,,,,,2,1,0.616455331914,,,,,,2015_Dez_04_1337,P14,PLC_L_D2S1,NHG,60.0213035215,
stim/negf.jpg,stim/posf.jpg,stim/3.jpg,stim/5.jpg,stim/latef.jpg,CD,2,4,,,,,,,,,0,20,20,37,,,,,,,,,,4,1,0.783113666815,,,,,,2015_Dez_04_1337,P14,PLC_L_D2S1,NHG,60.0213035215,
stim/posf.jpg,stim/negf.jpg,stim/2.jpg,stim/4.jpg,stim/latef.jpg,AB,2,4,,,,,,,,,0,21,21,11,,,,,,,,,,4,1,0.783035649356,,,,,,2015_Dez_04_1337,P14,PLC_L_D2S1,NHG,60.0213035215,
stim/posf.jpg,stim/negf.jpg,stim/3.jpg,stim/5.jpg,stim/latef.jpg,CD,2,4,,,,,,,,,0,22,22,30,,,,,,,,,,4,1,0.932962867948,,,,,,2015_Dez_04_1337,P14,PLC_L_D2S1,NHG,60.0213035215,
stim/posf.jpg,stim/negf.jpg,stim/3.jpg,stim/5.jpg,stim/latef.jpg,CD,2,4,,,,,,,,,0,23,23,31,,,,,,,,,,4,1,0.566484068541,,,,,,2015_Dez_04_1337,P14,PLC_L_D2S1,NHG,60.0213035215,
stim/negf.jpg,stim/posf.jpg,stim/1.jpg,stim/6.jpg,stim/latef.jpg,EF,2,4,,,,,,,,,0,24,24,56,,,,,,,,,,2,0,0.949701499988,,,,,,2015_Dez_04_1337,P14,PLC_L_D2S1,NHG,60.0213035215,
stim/negf.jpg,stim/posf.jpg,stim/5.jpg,stim/3.jpg,stim/latef.jpg,CD,1,2,,,,,,,,,0,25,25,28,,,,,,,,,,2,1,0.616420808866,,,,,,2015_Dez_04_1337,P14,PLC_L_D2S1,NHG,60.0213035215,
stim/negf.jpg,stim/posf.jpg,stim/6.jpg,stim/1.jpg,stim/latef.jpg,EF,1,2,,,,,,,,,0,26,26,47,,,,,,,,,,4,0,1.01630341125,,,,,,2015_Dez_04_1337,P14,PLC_L_D2S1,NHG,60.0213035215,
stim/posf.jpg,stim/negf.jpg,stim/4.jpg,stim/2.jpg,stim/latef.jpg,AB,1,2,,,,,,,,,0,27,27,1,,,,,,,,,,2,1,0.649784158014,,,,,,2015_Dez_04_1337,P14,PLC_L_D2S1,NHG,60.0213035215,
stim/posf.jpg,stim/negf.jpg,stim/3.jpg,stim/5.jpg,stim/latef.jpg,CD,2,4,,,,,,,,,0,28,28,34,,,,,,,,,,4,1,0.833071832542,,,,,,2015_Dez_04_1337,P14,PLC_L_D2S1,NHG,60.0213035215,
stim/posf.jpg,stim/negf.jpg,stim/5.jpg,stim/3.jpg,stim/latef.jpg,CD,1,2,,,,,,,,,0,29,29,25,,,,,,,,,,2,1,0.733074253577,,,,,,2015_Dez_04_1337,P14,PLC_L_D2S1,NHG,60.0213035215,
stim/posf.jpg,stim/negf.jpg,stim/2.jpg,stim/4.jpg,stim/latef.jpg,AB,2,4,,,,,,,,,0,30,30,17,,,,,,,,,,4,1,0.84974525605,,,,,,2015_Dez_04_1337,P14,PLC_L_D2S1,NHG,60.0213035215,
stim/posf.jpg,stim/negf.jpg,stim/3.jpg,stim/5.jpg,stim/latef.jpg,CD,2,4,,,,,,,,,0,31,31,36,,,,,,,,,,4,1,0.816393618093,,,,,,2015_Dez_04_1337,P14,PLC_L_D2S1,NHG,60.0213035215,
stim/negf.jpg,stim/posf.jpg,stim/6.jpg,stim/1.jpg,stim/latef.jpg,EF,1,2,,,,,,,,,0,32,32,49,,,,,,,,,,4,0,0.766414351772,,,,,,2015_Dez_04_1337,P14,PLC_L_D2S1,NHG,60.0213035215,
stim/posf.jpg,stim/negf.jpg,stim/1.jpg,stim/6.jpg,stim/latef.jpg,EF,2,4,,,,,,,,,0,33,33,53,,,,,,,,,,2,0,0.883007887159,,,,,,2015_Dez_04_1337,P14,PLC_L_D2S1,NHG,60.0213035215,
stim/negf.jpg,stim/posf.jpg,stim/3.jpg,stim/5.jpg,stim/latef.jpg,CD,2,4,,,,,,,,,0,34,34,38,,,,,,,,,,4,1,0.949651671792,,,,,,2015_Dez_04_1337,P14,PLC_L_D2S1,NHG,60.0213035215,
stim/posf.jpg,stim/negf.jpg,stim/4.jpg,stim/2.jpg,stim/latef.jpg,AB,1,2,,,,,,,,,0,35,35,6,,,,,,,,,,2,1,0.799742077127,,,,,,2015_Dez_04_1337,P14,PLC_L_D2S1,NHG,60.0213035215,
stim/posf.jpg,stim/negf.jpg,stim/2.jpg,stim/4.jpg,stim/latef.jpg,AB,2,4,,,,,,,,,0,36,36,15,,,,,,,,,,4,1,0.849611945775,,,,,,2015_Dez_04_1337,P14,PLC_L_D2S1,NHG,60.0213035215,
stim/negf.jpg,stim/posf.jpg,stim/5.jpg,stim/3.jpg,stim/latef.jpg,CD,1,2,,,,,,,,,0,37,37,29,,,,,,,,,,2,1,0.833070196465,,,,,,2015_Dez_04_1337,P14,PLC_L_D2S1,NHG,60.0213035215,
stim/posf.jpg,stim/negf.jpg,stim/1.jpg,stim/6.jpg,stim/latef.jpg,EF,2,4,,,,,,,,,0,38,38,51,,,,,,,,,,2,0,1.04969317524,,,,,,2015_Dez_04_1337,P14,PLC_L_D2S1,NHG,60.0213035215,
stim/negf.jpg,stim/posf.jpg,stim/3.jpg,stim/5.jpg,stim/latef.jpg,CD,2,4,,,,,,,,,0,39,39,39,,,,,,,,,,4,1,0.983018530688,,,,,,2015_Dez_04_1337,P14,PLC_L_D2S1,NHG,60.0213035215,
stim/posf.jpg,stim/negf.jpg,stim/6.jpg,stim/1.jpg,stim/latef.jpg,EF,1,2,,,,,,,,,0,40,40,44,,,,,,,,,,4,0,0.716414183352,,,,,,2015_Dez_04_1337,P14,PLC_L_D2S1,NHG,60.0213035215,
stim/negf.jpg,stim/posf.jpg,stim/1.jpg,stim/6.jpg,stim/latef.jpg,EF,2,4,,,,,,,,,0,41,41,58,,,,,,,,,,2,0,0.616453798092,,,,,,2015_Dez_04_1337,P14,PLC_L_D2S1,NHG,60.0213035215,
stim/negf.jpg,stim/posf.jpg,stim/2.jpg,stim/4.jpg,stim/latef.jpg,AB,2,4,,,,,,,,,0,42,42,18,,,,,,,,,,4,1,0.749755045451,,,,,,2015_Dez_04_1337,P14,PLC_L_D2S1,NHG,60.0213035215,
stim/posf.jpg,stim/negf.jpg,stim/4.jpg,stim/2.jpg,stim/latef.jpg,AB,1,2,,,,,,,,,0,43,43,0,,,,,,,,,,2,1,0.666380087368,,,,,,2015_Dez_04_1337,P14,PLC_L_D2S1,NHG,60.0213035215,
stim/posf.jpg,stim/negf.jpg,stim/6.jpg,stim/1.jpg,stim/latef.jpg,EF,1,2,,,,,,,,,0,44,44,40,,,,,,,,,,4,0,0.86637058368,,,,,,2015_Dez_04_1337,P14,PLC_L_D2S1,NHG,60.0213035215,
stim/negf.jpg,stim/posf.jpg,stim/6.jpg,stim/1.jpg,stim/latef.jpg,EF,1,2,,,,,,,,,0,45,45,48,,,,,,,,,,4,0,0.866385558003,,,,,,2015_Dez_04_1337,P14,PLC_L_D2S1,NHG,60.0213035215,
stim/posf.jpg,stim/negf.jpg,stim/4.jpg,stim/2.jpg,stim/latef.jpg,AB,1,2,,,,,,,,,0,46,46,5,,,,,,,,,,2,1,0.716427040398,,,,,,2015_Dez_04_1337,P14,PLC_L_D2S1,NHG,60.0213035215,
stim/negf.jpg,stim/posf.jpg,stim/5.jpg,stim/3.jpg,stim/latef.jpg,CD,1,2,,,,,,,,,0,47,47,27,,,,,,,,,,2,1,0.849711821716,,,,,,2015_Dez_04_1337,P14,PLC_L_D2S1,NHG,60.0213035215,
stim/negf.jpg,stim/posf.jpg,stim/1.jpg,stim/6.jpg,stim/latef.jpg,EF,2,4,,,,,,,,,0,48,48,57,,,,,,,,,,2,0,0.783093531627,,,,,,2015_Dez_04_1337,P14,PLC_L_D2S1,NHG,60.0213035215,
stim/posf.jpg,stim/negf.jpg,stim/2.jpg,stim/4.jpg,stim/latef.jpg,AB,2,4,,,,,,,,,0,49,49,12,,,,,,,,,,4,1,0.933014714175,,,,,,2015_Dez_04_1337,P14,PLC_L_D2S1,NHG,60.0213035215,
stim/posf.jpg,stim/negf.jpg,stim/4.jpg,stim/2.jpg,stim/latef.jpg,AB,1,2,,,,,,,,,0,50,50,7,,,,,,,,,,2,1,0.666423094563,,,,,,2015_Dez_04_1337,P14,PLC_L_D2S1,NHG,60.0213035215,
stim/posf.jpg,stim/negf.jpg,stim/6.jpg,stim/1.jpg,stim/latef.jpg,EF,1,2,,,,,,,,,0,51,51,41,,,,,,,,,,2,1,0.666446303411,,,,,,2015_Dez_04_1337,P14,PLC_L_D2S1,NHG,60.0213035215,
stim/posf.jpg,stim/negf.jpg,stim/3.jpg,stim/5.jpg,stim/latef.jpg,CD,2,4,,,,,,,,,0,52,52,32,,,,,,,,,,4,1,0.69984267186,,,,,,2015_Dez_04_1337,P14,PLC_L_D2S1,NHG,60.0213035215,
stim/posf.jpg,stim/negf.jpg,stim/2.jpg,stim/4.jpg,stim/latef.jpg,AB,2,4,,,,,,,,,0,53,53,10,,,,,,,,,,4,1,0.866431142623,,,,,,2015_Dez_04_1337,P14,PLC_L_D2S1,NHG,60.0213035215,
stim/posf.jpg,stim/negf.jpg,stim/2.jpg,stim/4.jpg,stim/latef.jpg,AB,2,4,,,,,,,,,0,54,54,13,,,,,,,,,,4,1,0.949695981233,,,,,,2015_Dez_04_1337,P14,PLC_L_D2S1,NHG,60.0213035215,
stim/posf.jpg,stim/negf.jpg,stim/2.jpg,stim/4.jpg,stim/latef.jpg,AB,2,4,,,,,,,,,0,55,55,14,,,,,,,,,,4,1,0.89975183946,,,,,,2015_Dez_04_1337,P14,PLC_L_D2S1,NHG,60.0213035215,
stim/posf.jpg,stim/negf.jpg,stim/4.jpg,stim/2.jpg,stim/latef.jpg,AB,1,2,,,,,,,,,0,56,56,3,,,,,,,,,,2,1,0.766412273592,,,,,,2015_Dez_04_1337,P14,PLC_L_D2S1,NHG,60.0213035215,
stim/posf.jpg,stim/negf.jpg,stim/2.jpg,stim/4.jpg,stim/latef.jpg,AB,2,4,,,,,,,,,0,57,57,16,,,,,,,,,,4,1,0.716357870993,,,,,,2015_Dez_04_1337,P14,PLC_L_D2S1,NHG,60.0213035215,
stim/posf.jpg,stim/negf.jpg,stim/6.jpg,stim/1.jpg,stim/latef.jpg,EF,1,2,,,,,,,,,0,58,58,45,,,,,,,,,,4,0,0.883046548522,,,,,,2015_Dez_04_1337,P14,PLC_L_D2S1,NHG,60.0213035215,
stim/posf.jpg,stim/negf.jpg,stim/6.jpg,stim/1.jpg,stim/latef.jpg,EF,1,2,,,,,,,,,0,59,59,42,,,,,,,,,,4,0,0.649785300863,,,,,,2015_Dez_04_1337,P14,PLC_L_D2S1,NHG,60.0213035215,
,,,,,,,,,,,,,,,,,,,,,,,,,,,,,,,,0.9984375,1.0,1,0,0,2015_Dez_04_1337,P14,PLC_L_D2S1,NHG,60.0213035215,
stim/negf.jpg,stim/posf.jpg,stim/1.jpg,stim/6.jpg,stim/latef.jpg,EF,2,4,,,,,,,,,,,,,0,0,0,56,,,,,,2,0,0.88305220863,,,,,,2015_Dez_04_1337,P14,PLC_L_D2S1,NHG,60.0213035215,
stim/negf.jpg,stim/posf.jpg,stim/1.jpg,stim/6.jpg,stim/latef.jpg,EF,2,4,,,,,,,,,,,,,0,1,1,58,,,,,,2,0,0.649800302253,,,,,,2015_Dez_04_1337,P14,PLC_L_D2S1,NHG,60.0213035215,
stim/posf.jpg,stim/negf.jpg,stim/4.jpg,stim/2.jpg,stim/latef.jpg,AB,1,2,,,,,,,,,,,,,0,2,2,2,,,,,,2,1,0.916371067887,,,,,,2015_Dez_04_1337,P14,PLC_L_D2S1,NHG,60.0213035215,
stim/posf.jpg,stim/negf.jpg,stim/1.jpg,stim/6.jpg,stim/latef.jpg,EF,2,4,,,,,,,,,,,,,0,3,3,51,,,,,,2,0,1.28290798114,,,,,,2015_Dez_04_1337,P14,PLC_L_D2S1,NHG,60.0213035215,
stim/posf.jpg,stim/negf.jpg,stim/3.jpg,stim/5.jpg,stim/latef.jpg,CD,2,4,,,,,,,,,,,,,0,4,4,36,,,,,,4,1,0.883049357524,,,,,,2015_Dez_04_1337,P14,PLC_L_D2S1,NHG,60.0213035215,
stim/negf.jpg,stim/posf.jpg,stim/6.jpg,stim/1.jpg,stim/latef.jpg,EF,1,2,,,,,,,,,,,,,0,5,5,46,,,,,,4,0,0.833082151262,,,,,,2015_Dez_04_1337,P14,PLC_L_D2S1,NHG,60.0213035215,
stim/posf.jpg,stim/negf.jpg,stim/6.jpg,stim/1.jpg,stim/latef.jpg,EF,1,2,,,,,,,,,,,,,0,6,6,44,,,,,,4,0,0.833046972579,,,,,,2015_Dez_04_1337,P14,PLC_L_D2S1,NHG,60.0213035215,
stim/negf.jpg,stim/posf.jpg,stim/3.jpg,stim/5.jpg,stim/latef.jpg,CD,2,4,,,,,,,,,,,,,0,7,7,39,,,,,,4,1,1.03296764987,,,,,,2015_Dez_04_1337,P14,PLC_L_D2S1,NHG,60.0213035215,
stim/negf.jpg,stim/posf.jpg,stim/3.jpg,stim/5.jpg,stim/latef.jpg,CD,2,4,,,,,,,,,,,,,0,8,8,37,,,,,,4,1,1.01635187405,,,,,,2015_Dez_04_1337,P14,PLC_L_D2S1,NHG,60.0213035215,
stim/posf.jpg,stim/negf.jpg,stim/3.jpg,stim/5.jpg,stim/latef.jpg,CD,2,4,,,,,,,,,,,,,0,9,9,33,,,,,,4,1,0.94970033308,,,,,,2015_Dez_04_1337,P14,PLC_L_D2S1,NHG,60.0213035215,
stim/posf.jpg,stim/negf.jpg,stim/2.jpg,stim/4.jpg,stim/latef.jpg,AB,2,4,,,,,,,,,,,,,0,10,10,12,,,,,,4,1,0.933028741137,,,,,,2015_Dez_04_1337,P14,PLC_L_D2S1,NHG,60.0213035215,
stim/posf.jpg,stim/negf.jpg,stim/2.jpg,stim/4.jpg,stim/latef.jpg,AB,2,4,,,,,,,,,,,,,0,11,11,16,,,,,,4,1,1.0330164074,,,,,,2015_Dez_04_1337,P14,PLC_L_D2S1,NHG,60.0213035215,
stim/posf.jpg,stim/negf.jpg,stim/3.jpg,stim/5.jpg,stim/latef.jpg,CD,2,4,,,,,,,,,,,,,0,12,12,32,,,,,,4,1,0.816388631665,,,,,,2015_Dez_04_1337,P14,PLC_L_D2S1,NHG,60.0213035215,
stim/negf.jpg,stim/posf.jpg,stim/2.jpg,stim/4.jpg,stim/latef.jpg,AB,2,4,,,,,,,,,,,,,0,13,13,18,,,,,,4,1,0.616463151405,,,,,,2015_Dez_04_1337,P14,PLC_L_D2S1,NHG,60.0213035215,
stim/negf.jpg,stim/posf.jpg,stim/2.jpg,stim/4.jpg,stim/latef.jpg,AB,2,4,,,,,,,,,,,,,0,14,14,19,,,,,,4,1,0.549818939707,,,,,,2015_Dez_04_1337,P14,PLC_L_D2S1,NHG,60.0213035215,
stim/posf.jpg,stim/negf.jpg,stim/1.jpg,stim/6.jpg,stim/latef.jpg,EF,2,4,,,,,,,,,,,,,0,15,15,54,,,,,,2,0,0.783080620447,,,,,,2015_Dez_04_1337,P14,PLC_L_D2S1,NHG,60.0213035215,
stim/posf.jpg,stim/negf.jpg,stim/4.jpg,stim/2.jpg,stim/latef.jpg,AB,1,2,,,,,,,,,,,,,0,16,16,3,,,,,,2,1,0.89970232705,,,,,,2015_Dez_04_1337,P14,PLC_L_D2S1,NHG,60.0213035215,
stim/posf.jpg,stim/negf.jpg,stim/2.jpg,stim/4.jpg,stim/latef.jpg,AB,2,4,,,,,,,,,,,,,0,17,17,17,,,,,,4,1,0.849698444372,,,,,,2015_Dez_04_1337,P14,PLC_L_D2S1,NHG,60.0213035215,
stim/negf.jpg,stim/posf.jpg,stim/4.jpg,stim/2.jpg,stim/latef.jpg,AB,1,2,,,,,,,,,,,,,0,18,18,9,,,,,,2,1,0.583116211156,,,,,,2015_Dez_04_1337,P14,PLC_L_D2S1,NHG,60.0213035215,
stim/posf.jpg,stim/negf.jpg,stim/3.jpg,stim/5.jpg,stim/latef.jpg,CD,2,4,,,,,,,,,,,,,0,19,19,35,,,,,,4,1,0.799755180788,,,,,,2015_Dez_04_1337,P14,PLC_L_D2S1,NHG,60.0213035215,
stim/posf.jpg,stim/negf.jpg,stim/4.jpg,stim/2.jpg,stim/latef.jpg,AB,1,2,,,,,,,,,,,,,0,20,20,4,,,,,,2,1,0.633141552319,,,,,,2015_Dez_04_1337,P14,PLC_L_D2S1,NHG,60.0213035215,
stim/negf.jpg,stim/posf.jpg,stim/5.jpg,stim/3.jpg,stim/latef.jpg,CD,1,2,,,,,,,,,,,,,0,21,21,27,,,,,,2,1,1.04964415606,,,,,,2015_Dez_04_1337,P14,PLC_L_D2S1,NHG,60.0213035215,
stim/posf.jpg,stim/negf.jpg,stim/2.jpg,stim/4.jpg,stim/latef.jpg,AB,2,4,,,,,,,,,,,,,0,22,22,10,,,,,,4,1,0.816454408613,,,,,,2015_Dez_04_1337,P14,PLC_L_D2S1,NHG,60.0213035215,
stim/posf.jpg,stim/negf.jpg,stim/4.jpg,stim/2.jpg,stim/latef.jpg,AB,1,2,,,,,,,,,,,,,0,23,23,5,,,,,,2,1,0.983015811911,,,,,,2015_Dez_04_1337,P14,PLC_L_D2S1,NHG,60.0213035215,
stim/posf.jpg,stim/negf.jpg,stim/3.jpg,stim/5.jpg,stim/latef.jpg,CD,2,4,,,,,,,,,,,,,0,24,24,34,,,,,,4,1,0.899657521372,,,,,,2015_Dez_04_1337,P14,PLC_L_D2S1,NHG,60.0213035215,
stim/negf.jpg,stim/posf.jpg,stim/6.jpg,stim/1.jpg,stim/latef.jpg,EF,1,2,,,,,,,,,,,,,0,25,25,49,,,,,,4,0,1.01631834046,,,,,,2015_Dez_04_1337,P14,PLC_L_D2S1,NHG,60.0213035215,
stim/negf.jpg,stim/posf.jpg,stim/4.jpg,stim/2.jpg,stim/latef.jpg,AB,1,2,,,,,,,,,,,,,0,26,26,8,,,,,,2,1,0.999670309246,,,,,,2015_Dez_04_1337,P14,PLC_L_D2S1,NHG,60.0213035215,
stim/posf.jpg,stim/negf.jpg,stim/2.jpg,stim/4.jpg,stim/latef.jpg,AB,2,4,,,,,,,,,,,,,0,27,27,15,,,,,,4,1,0.933041959083,,,,,,2015_Dez_04_1337,P14,PLC_L_D2S1,NHG,60.0213035215,
stim/posf.jpg,stim/negf.jpg,stim/4.jpg,stim/2.jpg,stim/latef.jpg,AB,1,2,,,,,,,,,,,,,0,28,28,1,,,,,,2,1,0.733132532838,,,,,,2015_Dez_04_1337,P14,PLC_L_D2S1,NHG,60.0213035215,
stim/negf.jpg,stim/posf.jpg,stim/1.jpg,stim/6.jpg,stim/latef.jpg,EF,2,4,,,,,,,,,,,,,0,29,29,59,,,,,,2,0,0.966356463485,,,,,,2015_Dez_04_1337,P14,PLC_L_D2S1,NHG,60.0213035215,
stim/posf.jpg,stim/negf.jpg,stim/6.jpg,stim/1.jpg,stim/latef.jpg,EF,1,2,,,,,,,,,,,,,0,30,30,42,,,,,,4,0,0.666513328471,,,,,,2015_Dez_04_1337,P14,PLC_L_D2S1,NHG,60.0213035215,
stim/posf.jpg,stim/negf.jpg,stim/3.jpg,stim/5.jpg,stim/latef.jpg,CD,2,4,,,,,,,,,,,,,0,31,31,31,,,,,,4,1,0.933024232901,,,,,,2015_Dez_04_1337,P14,PLC_L_D2S1,NHG,60.0213035215,
stim/posf.jpg,stim/negf.jpg,stim/1.jpg,stim/6.jpg,stim/latef.jpg,EF,2,4,,,,,,,,,,,,,0,32,32,52,,,,,,2,0,0.616452023669,,,,,,2015_Dez_04_1337,P14,PLC_L_D2S1,NHG,60.0213035215,
stim/posf.jpg,stim/negf.jpg,stim/6.jpg,stim/1.jpg,stim/latef.jpg,EF,1,2,,,,,,,,,,,,,0,33,33,41,,,,,,4,0,0.716421855474,,,,,,2015_Dez_04_1337,P14,PLC_L_D2S1,NHG,60.0213035215,
stim/posf.jpg,stim/negf.jpg,stim/1.jpg,stim/6.jpg,stim/latef.jpg,EF,2,4,,,,,,,,,,,,,0,34,34,50,,,,,,2,0,0.716438204224,,,,,,2015_Dez_04_1337,P14,PLC_L_D2S1,NHG,60.0213035215,
stim/posf.jpg,stim/negf.jpg,stim/5.jpg,stim/3.jpg,stim/latef.jpg,CD,1,2,,,,,,,,,,,,,0,35,35,26,,,,,,2,1,0.833008756325,,,,,,2015_Dez_04_1337,P14,PLC_L_D2S1,NHG,60.0213035215,
stim/posf.jpg,stim/negf.jpg,stim/6.jpg,stim/1.jpg,stim/latef.jpg,EF,1,2,,,,,,,,,,,,,0,36,36,43,,,,,,4,0,0.849722769002,,,,,,2015_Dez_04_1337,P14,PLC_L_D2S1,NHG,60.0213035215,
stim/posf.jpg,stim/negf.jpg,stim/2.jpg,stim/4.jpg,stim/latef.jpg,AB,2,4,,,,,,,,,,,,,0,37,37,13,,,,,,4,1,0.833055243193,,,,,,2015_Dez_04_1337,P14,PLC_L_D2S1,NHG,60.0213035215,
stim/posf.jpg,stim/negf.jpg,stim/4.jpg,stim/2.jpg,stim/latef.jpg,AB,1,2,,,,,,,,,,,,,0,38,38,6,,,,,,2,1,0.883020335185,,,,,,2015_Dez_04_1337,P14,PLC_L_D2S1,NHG,60.0213035215,
stim/posf.jpg,stim/negf.jpg,stim/4.jpg,stim/2.jpg,stim/latef.jpg,AB,1,2,,,,,,,,,,,,,0,39,39,7,,,,,,2,1,0.949676748295,,,,,,2015_Dez_04_1337,P14,PLC_L_D2S1,NHG,60.0213035215,
stim/negf.jpg,stim/posf.jpg,stim/5.jpg,stim/3.jpg,stim/latef.jpg,CD,1,2,,,,,,,,,,,,,0,40,40,29,,,,,,2,1,1.01632767272,,,,,,2015_Dez_04_1337,P14,PLC_L_D2S1,NHG,60.0213035215,
stim/posf.jpg,stim/negf.jpg,stim/2.jpg,stim/4.jpg,stim/latef.jpg,AB,2,4,,,,,,,,,,,,,0,41,41,11,,,,,,4,1,1.04966244765,,,,,,2015_Dez_04_1337,P14,PLC_L_D2S1,NHG,60.0213035215,
stim/posf.jpg,stim/negf.jpg,stim/5.jpg,stim/3.jpg,stim/latef.jpg,CD,1,2,,,,,,,,,,,,,0,42,42,23,,,,,,2,1,0.816419052489,,,,,,2015_Dez_04_1337,P14,PLC_L_D2S1,NHG,60.0213035215,
stim/posf.jpg,stim/negf.jpg,stim/1.jpg,stim/6.jpg,stim/latef.jpg,EF,2,4,,,,,,,,,,,,,0,43,43,53,,,,,,2,0,0.966334553876,,,,,,2015_Dez_04_1337,P14,PLC_L_D2S1,NHG,60.0213035215,
stim/posf.jpg,stim/negf.jpg,stim/6.jpg,stim/1.jpg,stim/latef.jpg,EF,1,2,,,,,,,,,,,,,0,44,44,40,,,,,,4,0,0.866359323614,,,,,,2015_Dez_04_1337,P14,PLC_L_D2S1,NHG,60.0213035215,
stim/negf.jpg,stim/posf.jpg,stim/3.jpg,stim/5.jpg,stim/latef.jpg,CD,2,4,,,,,,,,,,,,,0,45,45,38,,,,,,4,1,0.816327086262,,,,,,2015_Dez_04_1337,P14,PLC_L_D2S1,NHG,60.0213035215,
stim/posf.jpg,stim/negf.jpg,stim/5.jpg,stim/3.jpg,stim/latef.jpg,CD,1,2,,,,,,,,,,,,,0,46,46,24,,,,,,2,1,0.799718308885,,,,,,2015_Dez_04_1337,P14,PLC_L_D2S1,NHG,60.0213035215,
stim/negf.jpg,stim/posf.jpg,stim/6.jpg,stim/1.jpg,stim/latef.jpg,EF,1,2,,,,,,,,,,,,,0,47,47,47,,,,,,4,0,0.899699734588,,,,,,2015_Dez_04_1337,P14,PLC_L_D2S1,NHG,60.0213035215,
stim/posf.jpg,stim/negf.jpg,stim/4.jpg,stim/2.jpg,stim/latef.jpg,AB,1,2,,,,,,,,,,,,,0,48,48,0,,,,,,2,1,0.649792350433,,,,,,2015_Dez_04_1337,P14,PLC_L_D2S1,NHG,60.0213035215,
stim/posf.jpg,stim/negf.jpg,stim/5.jpg,stim/3.jpg,stim/latef.jpg,CD,1,2,,,,,,,,,,,,,0,49,49,20,,,,,,2,1,0.599793033135,,,,,,2015_Dez_04_1337,P14,PLC_L_D2S1,NHG,60.0213035215,
stim/posf.jpg,stim/negf.jpg,stim/5.jpg,stim/3.jpg,stim/latef.jpg,CD,1,2,,,,,,,,,,,,,0,50,50,22,,,,,,2,1,0.616455055225,,,,,,2015_Dez_04_1337,P14,PLC_L_D2S1,NHG,60.0213035215,
stim/posf.jpg,stim/negf.jpg,stim/2.jpg,stim/4.jpg,stim/latef.jpg,AB,2,4,,,,,,,,,,,,,0,51,51,14,,,,,,4,1,0.699765643868,,,,,,2015_Dez_04_1337,P14,PLC_L_D2S1,NHG,60.0213035215,
stim/posf.jpg,stim/negf.jpg,stim/1.jpg,stim/6.jpg,stim/latef.jpg,EF,2,4,,,,,,,,,,,,,0,52,52,55,,,,,,2,0,0.66641330817,,,,,,2015_Dez_04_1337,P14,PLC_L_D2S1,NHG,60.0213035215,
stim/posf.jpg,stim/negf.jpg,stim/3.jpg,stim/5.jpg,stim/latef.jpg,CD,2,4,,,,,,,,,,,,,0,53,53,30,,,,,,4,1,0.83305831084,,,,,,2015_Dez_04_1337,P14,PLC_L_D2S1,NHG,60.0213035215,
stim/negf.jpg,stim/posf.jpg,stim/6.jpg,stim/1.jpg,stim/latef.jpg,EF,1,2,,,,,,,,,,,,,0,54,54,48,,,,,,4,0,0.866392454192,,,,,,2015_Dez_04_1337,P14,PLC_L_D2S1,NHG,60.0213035215,
stim/posf.jpg,stim/negf.jpg,stim/5.jpg,stim/3.jpg,stim/latef.jpg,CD,1,2,,,,,,,,,,,,,0,55,55,25,,,,,,2,1,0.683141374877,,,,,,2015_Dez_04_1337,P14,PLC_L_D2S1,NHG,60.0213035215,
stim/negf.jpg,stim/posf.jpg,stim/5.jpg,stim/3.jpg,stim/latef.jpg,CD,1,2,,,,,,,,,,,,,0,56,56,28,,,,,,2,1,0.883051877805,,,,,,2015_Dez_04_1337,P14,PLC_L_D2S1,NHG,60.0213035215,
stim/negf.jpg,stim/posf.jpg,stim/1.jpg,stim/6.jpg,stim/latef.jpg,EF,2,4,,,,,,,,,,,,,0,57,57,57,,,,,,2,0,0.749744377862,,,,,,2015_Dez_04_1337,P14,PLC_L_D2S1,NHG,60.0213035215,
stim/posf.jpg,stim/negf.jpg,stim/5.jpg,stim/3.jpg,stim/latef.jpg,CD,1,2,,,,,,,,,,,,,0,58,58,21,,,,,,2,1,0.616460011579,,,,,,2015_Dez_04_1337,P14,PLC_L_D2S1,NHG,60.0213035215,
stim/posf.jpg,stim/negf.jpg,stim/6.jpg,stim/1.jpg,stim/latef.jpg,EF,1,2,,,,,,,,,,,,,0,59,59,45,,,,,,4,0,0.916319356997,,,,,,2015_Dez_04_1337,P14,PLC_L_D2S1,NHG,60.0213035215,
