fb_corr,fb_incorr,symbol2,symbol1,fb_late,pair,position,correct,block_01.thisRepN,block_01.thisTrialN,block_01.thisN,block_01.thisIndex,block_02.thisRepN,block_02.thisTrialN,block_02.thisN,block_02.thisIndex,block_03.thisRepN,block_03.thisTrialN,block_03.thisN,block_03.thisIndex,block_04.thisRepN,block_04.thisTrialN,block_04.thisN,block_04.thisIndex,mouse.x,mouse.y,mouse.leftButton,mouse.midButton,mouse.rightButton,buttonBox_2.keys,buttonBox_2.corr,buttonBox_2.rt,mouse_2.x,mouse_2.y,mouse_2.leftButton,mouse_2.midButton,mouse_2.rightButton,date,Participant,expName,Group,frameRate,
,,,,,,,,,,,,,,,,,,,,,,,,0.9984375,1.0,1,0,0,,,,,,,,,2015_Dez_09_1441,P16,PLC_L_D2S1,NHG,60.0192612545,
stim/posf.jpg,stim/negf.jpg,stim/3.jpg,stim/4.jpg,stim/latef.jpg,EF,2,4,0,0,0,52,,,,,,,,,,,,,,,,,,2,0,1.38293134939,,,,,,2015_Dez_09_1441,P16,PLC_L_D2S1,NHG,60.0192612545,
stim/posf.jpg,stim/negf.jpg,stim/6.jpg,stim/5.jpg,stim/latef.jpg,CD,2,4,0,1,1,33,,,,,,,,,,,,,,,,,,2,0,1.26624279216,,,,,,2015_Dez_09_1441,P16,PLC_L_D2S1,NHG,60.0192612545,
stim/negf.jpg,stim/posf.jpg,stim/6.jpg,stim/5.jpg,stim/latef.jpg,CD,2,4,0,2,2,39,,,,,,,,,,,,,,,,,,2,0,1.63279325118,,,,,,2015_Dez_09_1441,P16,PLC_L_D2S1,NHG,60.0192612545,
stim/posf.jpg,stim/negf.jpg,stim/6.jpg,stim/5.jpg,stim/latef.jpg,CD,2,4,0,3,3,34,,,,,,,,,,,,,,,,,,2,0,1.26625896948,,,,,,2015_Dez_09_1441,P16,PLC_L_D2S1,NHG,60.0192612545,
stim/negf.jpg,stim/posf.jpg,stim/6.jpg,stim/5.jpg,stim/latef.jpg,CD,2,4,0,4,4,37,,,,,,,,,,,,,,,,,,2,0,0.849715734468,,,,,,2015_Dez_09_1441,P16,PLC_L_D2S1,NHG,60.0192612545,
stim/negf.jpg,stim/posf.jpg,stim/2.jpg,stim/1.jpg,stim/latef.jpg,AB,1,2,0,5,5,9,,,,,,,,,,,,,,,,,,4,0,1.54950126992,,,,,,2015_Dez_09_1441,P16,PLC_L_D2S1,NHG,60.0192612545,
stim/negf.jpg,stim/posf.jpg,stim/1.jpg,stim/2.jpg,stim/latef.jpg,AB,2,4,0,6,6,18,,,,,,,,,,,,,,,,,,2,0,1.36623890647,,,,,,2015_Dez_09_1441,P16,PLC_L_D2S1,NHG,60.0192612545,
stim/posf.jpg,stim/negf.jpg,stim/5.jpg,stim/6.jpg,stim/latef.jpg,CD,1,2,0,7,7,22,,,,,,,,,,,,,,,,,,4,0,1.2829558665,,,,,,2015_Dez_09_1441,P16,PLC_L_D2S1,NHG,60.0192612545,
stim/posf.jpg,stim/negf.jpg,stim/4.jpg,stim/3.jpg,stim/latef.jpg,EF,1,2,0,8,8,43,,,,,,,,,,,,,,,,,,4,0,1.46619068428,,,,,,2015_Dez_09_1441,P16,PLC_L_D2S1,NHG,60.0192612545,
stim/posf.jpg,stim/negf.jpg,stim/5.jpg,stim/6.jpg,stim/latef.jpg,CD,1,2,0,9,9,21,,,,,,,,,,,,,,,,,,4,0,1.11628980233,,,,,,2015_Dez_09_1441,P16,PLC_L_D2S1,NHG,60.0192612545,
stim/posf.jpg,stim/negf.jpg,stim/3.jpg,stim/4.jpg,stim/latef.jpg,EF,2,4,0,10,10,55,,,,,,,,,,,,,,,,,,2,0,1.34957008444,,,,,,2015_Dez_09_1441,P16,PLC_L_D2S1,NHG,60.0192612545,
stim/posf.jpg,stim/negf.jpg,stim/4.jpg,stim/3.jpg,stim/latef.jpg,EF,1,2,0,11,11,41,,,,,,,,,,,,,,,,,,2,1,1.39957569041,,,,,,2015_Dez_09_1441,P16,PLC_L_D2S1,NHG,60.0192612545,
stim/negf.jpg,stim/posf.jpg,stim/3.jpg,stim/4.jpg,stim/latef.jpg,EF,2,4,0,12,12,59,,,,,,,,,,,,,,,,,,4,1,1.24960035789,,,,,,2015_Dez_09_1441,P16,PLC_L_D2S1,NHG,60.0192612545,
stim/posf.jpg,stim/negf.jpg,stim/6.jpg,stim/5.jpg,stim/latef.jpg,CD,2,4,0,13,13,35,,,,,,,,,,,,,,,,,,2,0,1.06629899023,,,,,,2015_Dez_09_1441,P16,PLC_L_D2S1,NHG,60.0192612545,
stim/posf.jpg,stim/negf.jpg,stim/6.jpg,stim/5.jpg,stim/latef.jpg,CD,2,4,0,14,14,30,,,,,,,,,,,,,,,,,,4,1,1.14963845685,,,,,,2015_Dez_09_1441,P16,PLC_L_D2S1,NHG,60.0192612545,
stim/posf.jpg,stim/negf.jpg,stim/5.jpg,stim/6.jpg,stim/latef.jpg,CD,1,2,0,15,15,20,,,,,,,,,,,,,,,,,,2,1,1.1162982955,,,,,,2015_Dez_09_1441,P16,PLC_L_D2S1,NHG,60.0192612545,
stim/posf.jpg,stim/negf.jpg,stim/1.jpg,stim/2.jpg,stim/latef.jpg,AB,2,4,0,16,16,15,,,,,,,,,,,,,,,,,,2,0,1.29958101668,,,,,,2015_Dez_09_1441,P16,PLC_L_D2S1,NHG,60.0192612545,
stim/posf.jpg,stim/negf.jpg,stim/5.jpg,stim/6.jpg,stim/latef.jpg,CD,1,2,0,17,17,26,,,,,,,,,,,,,,,,,,2,1,1.23291777656,,,,,,2015_Dez_09_1441,P16,PLC_L_D2S1,NHG,60.0192612545,
stim/negf.jpg,stim/posf.jpg,stim/5.jpg,stim/6.jpg,stim/latef.jpg,CD,1,2,0,18,18,27,,,,,,,,,,,,,,,,,,2,1,0.783081670063,,,,,,2015_Dez_09_1441,P16,PLC_L_D2S1,NHG,60.0192612545,
stim/posf.jpg,stim/negf.jpg,stim/6.jpg,stim/5.jpg,stim/latef.jpg,CD,2,4,0,19,19,36,,,,,,,,,,,,,,,,,,4,1,0.9663525778,,,,,,2015_Dez_09_1441,P16,PLC_L_D2S1,NHG,60.0192612545,
stim/posf.jpg,stim/negf.jpg,stim/4.jpg,stim/3.jpg,stim/latef.jpg,EF,1,2,0,20,20,42,,,,,,,,,,,,,,,,,,2,1,1.24960415035,,,,,,2015_Dez_09_1441,P16,PLC_L_D2S1,NHG,60.0192612545,
stim/posf.jpg,stim/negf.jpg,stim/6.jpg,stim/5.jpg,stim/latef.jpg,CD,2,4,0,21,21,31,,,,,,,,,,,,,,,,,,4,1,1.29951596153,,,,,,2015_Dez_09_1441,P16,PLC_L_D2S1,NHG,60.0192612545,
stim/posf.jpg,stim/negf.jpg,stim/1.jpg,stim/2.jpg,stim/latef.jpg,AB,2,4,0,22,22,10,,,,,,,,,,,,,,,,,,2,0,1.16629511357,,,,,,2015_Dez_09_1441,P16,PLC_L_D2S1,NHG,60.0192612545,
stim/posf.jpg,stim/negf.jpg,stim/6.jpg,stim/5.jpg,stim/latef.jpg,CD,2,4,0,23,23,32,,,,,,,,,,,,,,,,,,4,1,1.0330056165,,,,,,2015_Dez_09_1441,P16,PLC_L_D2S1,NHG,60.0192612545,
stim/posf.jpg,stim/negf.jpg,stim/5.jpg,stim/6.jpg,stim/latef.jpg,CD,1,2,0,24,24,23,,,,,,,,,,,,,,,,,,2,1,1.06626728822,,,,,,2015_Dez_09_1441,P16,PLC_L_D2S1,NHG,60.0192612545,
stim/negf.jpg,stim/posf.jpg,stim/4.jpg,stim/3.jpg,stim/latef.jpg,EF,1,2,0,25,25,46,,,,,,,,,,,,,,,,,,2,1,1.3161748859,,,,,,2015_Dez_09_1441,P16,PLC_L_D2S1,NHG,60.0192612545,
stim/posf.jpg,stim/negf.jpg,stim/2.jpg,stim/1.jpg,stim/latef.jpg,AB,1,2,0,26,26,5,,,,,,,,,,,,,,,,,,4,0,1.06635568154,,,,,,2015_Dez_09_1441,P16,PLC_L_D2S1,NHG,60.0192612545,
stim/posf.jpg,stim/negf.jpg,stim/5.jpg,stim/6.jpg,stim/latef.jpg,CD,1,2,0,27,27,24,,,,,,,,,,,,,,,,,,2,1,0.816401870663,,,,,,2015_Dez_09_1441,P16,PLC_L_D2S1,NHG,60.0192612545,
stim/posf.jpg,stim/negf.jpg,stim/2.jpg,stim/1.jpg,stim/latef.jpg,AB,1,2,0,28,28,4,,,,,,,,,,,,,,,,,,2,1,1.11627543252,,,,,,2015_Dez_09_1441,P16,PLC_L_D2S1,NHG,60.0192612545,
stim/negf.jpg,stim/posf.jpg,stim/1.jpg,stim/2.jpg,stim/latef.jpg,AB,2,4,0,29,29,19,,,,,,,,,,,,,,,,,,4,1,1.04967138292,,,,,,2015_Dez_09_1441,P16,PLC_L_D2S1,NHG,60.0192612545,
stim/negf.jpg,stim/posf.jpg,stim/3.jpg,stim/4.jpg,stim/latef.jpg,EF,2,4,0,30,30,56,,,,,,,,,,,,,,,,,,4,1,0.866367513026,,,,,,2015_Dez_09_1441,P16,PLC_L_D2S1,NHG,60.0192612545,
stim/posf.jpg,stim/negf.jpg,stim/4.jpg,stim/3.jpg,stim/latef.jpg,EF,1,2,0,31,31,45,,,,,,,,,,,,,,,,,,4,0,0.849716859272,,,,,,2015_Dez_09_1441,P16,PLC_L_D2S1,NHG,60.0192612545,
stim/posf.jpg,stim/negf.jpg,stim/4.jpg,stim/3.jpg,stim/latef.jpg,EF,1,2,0,32,32,40,,,,,,,,,,,,,,,,,,2,1,1.39955562439,,,,,,2015_Dez_09_1441,P16,PLC_L_D2S1,NHG,60.0192612545,
stim/posf.jpg,stim/negf.jpg,stim/3.jpg,stim/4.jpg,stim/latef.jpg,EF,2,4,0,33,33,53,,,,,,,,,,,,,,,,,,4,1,0.766417413402,,,,,,2015_Dez_09_1441,P16,PLC_L_D2S1,NHG,60.0192612545,
stim/posf.jpg,stim/negf.jpg,stim/5.jpg,stim/6.jpg,stim/latef.jpg,CD,1,2,0,34,34,25,,,,,,,,,,,,,,,,,,2,1,1.14963325389,,,,,,2015_Dez_09_1441,P16,PLC_L_D2S1,NHG,60.0192612545,
stim/posf.jpg,stim/negf.jpg,stim/1.jpg,stim/2.jpg,stim/latef.jpg,AB,2,4,0,35,35,17,,,,,,,,,,,,,,,,,,2,0,1.36628530913,,,,,,2015_Dez_09_1441,P16,PLC_L_D2S1,NHG,60.0192612545,
stim/posf.jpg,stim/negf.jpg,stim/1.jpg,stim/2.jpg,stim/latef.jpg,AB,2,4,0,36,36,11,,,,,,,,,,,,,,,,,,4,1,0.934984837708,,,,,,2015_Dez_09_1441,P16,PLC_L_D2S1,NHG,60.0192612545,
stim/posf.jpg,stim/negf.jpg,stim/2.jpg,stim/1.jpg,stim/latef.jpg,AB,1,2,0,37,37,6,,,,,,,,,,,,,,,,,,2,1,1.11634043654,,,,,,2015_Dez_09_1441,P16,PLC_L_D2S1,NHG,60.0192612545,
stim/negf.jpg,stim/posf.jpg,stim/6.jpg,stim/5.jpg,stim/latef.jpg,CD,2,4,0,38,38,38,,,,,,,,,,,,,,,,,,4,1,1.16628673769,,,,,,2015_Dez_09_1441,P16,PLC_L_D2S1,NHG,60.0192612545,
stim/posf.jpg,stim/negf.jpg,stim/2.jpg,stim/1.jpg,stim/latef.jpg,AB,1,2,0,39,39,0,,,,,,,,,,,,,,,,,,2,1,1.24960336539,,,,,,2015_Dez_09_1441,P16,PLC_L_D2S1,NHG,60.0192612545,
stim/negf.jpg,stim/posf.jpg,stim/2.jpg,stim/1.jpg,stim/latef.jpg,AB,1,2,0,40,40,8,,,,,,,,,,,,,,,,,,2,1,0.999673617492,,,,,,2015_Dez_09_1441,P16,PLC_L_D2S1,NHG,60.0192612545,
stim/posf.jpg,stim/negf.jpg,stim/1.jpg,stim/2.jpg,stim/latef.jpg,AB,2,4,0,41,41,14,,,,,,,,,,,,,,,,,,2,0,1.23292039308,,,,,,2015_Dez_09_1441,P16,PLC_L_D2S1,NHG,60.0192612545,
stim/negf.jpg,stim/posf.jpg,stim/3.jpg,stim/4.jpg,stim/latef.jpg,EF,2,4,0,42,42,57,,,,,,,,,,,,,,,,,,4,1,1.24960036992,,,,,,2015_Dez_09_1441,P16,PLC_L_D2S1,NHG,60.0192612545,
stim/negf.jpg,stim/posf.jpg,stim/4.jpg,stim/3.jpg,stim/latef.jpg,EF,1,2,0,43,43,48,,,,,,,,,,,,,,,,,,2,1,1.14962400583,,,,,,2015_Dez_09_1441,P16,PLC_L_D2S1,NHG,60.0192612545,
stim/posf.jpg,stim/negf.jpg,stim/3.jpg,stim/4.jpg,stim/latef.jpg,EF,2,4,0,44,44,50,,,,,,,,,,,,,,,,,,2,0,0.849701951113,,,,,,2015_Dez_09_1441,P16,PLC_L_D2S1,NHG,60.0192612545,
stim/posf.jpg,stim/negf.jpg,stim/2.jpg,stim/1.jpg,stim/latef.jpg,AB,1,2,0,45,45,1,,,,,,,,,,,,,,,,,,2,1,1.16621574875,,,,,,2015_Dez_09_1441,P16,PLC_L_D2S1,NHG,60.0192612545,
stim/posf.jpg,stim/negf.jpg,stim/1.jpg,stim/2.jpg,stim/latef.jpg,AB,2,4,0,46,46,13,,,,,,,,,,,,,,,,,,4,1,1.14963466139,,,,,,2015_Dez_09_1441,P16,PLC_L_D2S1,NHG,60.0192612545,
stim/posf.jpg,stim/negf.jpg,stim/2.jpg,stim/1.jpg,stim/latef.jpg,AB,1,2,0,47,47,2,,,,,,,,,,,,,,,,,,2,1,0.999676068601,,,,,,2015_Dez_09_1441,P16,PLC_L_D2S1,NHG,60.0192612545,
stim/negf.jpg,stim/posf.jpg,stim/5.jpg,stim/6.jpg,stim/latef.jpg,CD,1,2,0,48,48,29,,,,,,,,,,,,,,,,,,2,1,1.08298889181,,,,,,2015_Dez_09_1441,P16,PLC_L_D2S1,NHG,60.0192612545,
stim/posf.jpg,stim/negf.jpg,stim/4.jpg,stim/3.jpg,stim/latef.jpg,EF,1,2,0,49,49,44,,,,,,,,,,,,,,,,,,2,1,1.11628847001,,,,,,2015_Dez_09_1441,P16,PLC_L_D2S1,NHG,60.0192612545,
stim/negf.jpg,stim/posf.jpg,stim/3.jpg,stim/4.jpg,stim/latef.jpg,EF,2,4,0,50,50,58,,,,,,,,,,,,,,,,,,2,0,0.899761529613,,,,,,2015_Dez_09_1441,P16,PLC_L_D2S1,NHG,60.0192612545,
stim/posf.jpg,stim/negf.jpg,stim/1.jpg,stim/2.jpg,stim/latef.jpg,AB,2,4,0,51,51,16,,,,,,,,,,,,,,,,,,4,1,1.49951775701,,,,,,2015_Dez_09_1441,P16,PLC_L_D2S1,NHG,60.0192612545,
stim/posf.jpg,stim/negf.jpg,stim/2.jpg,stim/1.jpg,stim/latef.jpg,AB,1,2,0,52,52,7,,,,,,,,,,,,,,,,,,4,0,0.999658312344,,,,,,2015_Dez_09_1441,P16,PLC_L_D2S1,NHG,60.0192612545,
stim/negf.jpg,stim/posf.jpg,stim/5.jpg,stim/6.jpg,stim/latef.jpg,CD,1,2,0,53,53,28,,,,,,,,,,,,,,,,,,2,1,1.24960728416,,,,,,2015_Dez_09_1441,P16,PLC_L_D2S1,NHG,60.0192612545,
stim/negf.jpg,stim/posf.jpg,stim/4.jpg,stim/3.jpg,stim/latef.jpg,EF,1,2,0,54,54,49,,,,,,,,,,,,,,,,,,2,1,1.51616916865,,,,,,2015_Dez_09_1441,P16,PLC_L_D2S1,NHG,60.0192612545,
stim/posf.jpg,stim/negf.jpg,stim/2.jpg,stim/1.jpg,stim/latef.jpg,AB,1,2,0,55,55,3,,,,,,,,,,,,,,,,,,4,0,1.216290473,,,,,,2015_Dez_09_1441,P16,PLC_L_D2S1,NHG,60.0192612545,
stim/negf.jpg,stim/posf.jpg,stim/4.jpg,stim/3.jpg,stim/latef.jpg,EF,1,2,0,56,56,47,,,,,,,,,,,,,,,,,,4,0,1.14967187014,,,,,,2015_Dez_09_1441,P16,PLC_L_D2S1,NHG,60.0192612545,
stim/posf.jpg,stim/negf.jpg,stim/3.jpg,stim/4.jpg,stim/latef.jpg,EF,2,4,0,57,57,51,,,,,,,,,,,,,,,,,,2,0,1.14961180743,,,,,,2015_Dez_09_1441,P16,PLC_L_D2S1,NHG,60.0192612545,
stim/posf.jpg,stim/negf.jpg,stim/1.jpg,stim/2.jpg,stim/latef.jpg,AB,2,4,0,58,58,12,,,,,,,,,,,,,,,,,,4,1,0.999647927459,,,,,,2015_Dez_09_1441,P16,PLC_L_D2S1,NHG,60.0192612545,
stim/posf.jpg,stim/negf.jpg,stim/3.jpg,stim/4.jpg,stim/latef.jpg,EF,2,4,0,59,59,54,,,,,,,,,,,,,,,,,,2,0,1.2162353877,,,,,,2015_Dez_09_1441,P16,PLC_L_D2S1,NHG,60.0192612545,
,,,,,,,,,,,,,,,,,,,,,,,,,,,,,,,,0.9984375,1.0,0,0,1,2015_Dez_09_1441,P16,PLC_L_D2S1,NHG,60.0192612545,
stim/posf.jpg,stim/negf.jpg,stim/5.jpg,stim/6.jpg,stim/latef.jpg,CD,1,2,,,,,0,0,0,22,,,,,,,,,,,,,,2,1,0.833037730544,,,,,,2015_Dez_09_1441,P16,PLC_L_D2S1,NHG,60.0192612545,
stim/posf.jpg,stim/negf.jpg,stim/2.jpg,stim/1.jpg,stim/latef.jpg,AB,1,2,,,,,0,1,1,0,,,,,,,,,,,,,,2,1,1.26622910805,,,,,,2015_Dez_09_1441,P16,PLC_L_D2S1,NHG,60.0192612545,
stim/posf.jpg,stim/negf.jpg,stim/6.jpg,stim/5.jpg,stim/latef.jpg,CD,2,4,,,,,0,2,2,35,,,,,,,,,,,,,,4,1,1.13295186953,,,,,,2015_Dez_09_1441,P16,PLC_L_D2S1,NHG,60.0192612545,
stim/posf.jpg,stim/negf.jpg,stim/1.jpg,stim/2.jpg,stim/latef.jpg,AB,2,4,,,,,0,3,3,15,,,,,,,,,,,,,,4,1,0.83305228081,,,,,,2015_Dez_09_1441,P16,PLC_L_D2S1,NHG,60.0192612545,
stim/posf.jpg,stim/negf.jpg,stim/2.jpg,stim/1.jpg,stim/latef.jpg,AB,1,2,,,,,0,4,4,7,,,,,,,,,,,,,,2,1,1.28292268479,,,,,,2015_Dez_09_1441,P16,PLC_L_D2S1,NHG,60.0192612545,
stim/posf.jpg,stim/negf.jpg,stim/2.jpg,stim/1.jpg,stim/latef.jpg,AB,1,2,,,,,0,5,5,1,,,,,,,,,,,,,,2,1,1.34955172066,,,,,,2015_Dez_09_1441,P16,PLC_L_D2S1,NHG,60.0192612545,
stim/posf.jpg,stim/negf.jpg,stim/5.jpg,stim/6.jpg,stim/latef.jpg,CD,1,2,,,,,0,6,6,26,,,,,,,,,,,,,,2,1,1.18296617018,,,,,,2015_Dez_09_1441,P16,PLC_L_D2S1,NHG,60.0192612545,
stim/posf.jpg,stim/negf.jpg,stim/2.jpg,stim/1.jpg,stim/latef.jpg,AB,1,2,,,,,0,7,7,6,,,,,,,,,,,,,,2,1,1.132944432,,,,,,2015_Dez_09_1441,P16,PLC_L_D2S1,NHG,60.0192612545,
stim/posf.jpg,stim/negf.jpg,stim/4.jpg,stim/3.jpg,stim/latef.jpg,EF,1,2,,,,,0,8,8,42,,,,,,,,,,,,,,4,0,1.36623033812,,,,,,2015_Dez_09_1441,P16,PLC_L_D2S1,NHG,60.0192612545,
stim/posf.jpg,stim/negf.jpg,stim/1.jpg,stim/2.jpg,stim/latef.jpg,AB,2,4,,,,,0,9,9,17,,,,,,,,,,,,,,2,0,0.933011466079,,,,,,2015_Dez_09_1441,P16,PLC_L_D2S1,NHG,60.0192612545,
stim/posf.jpg,stim/negf.jpg,stim/6.jpg,stim/5.jpg,stim/latef.jpg,CD,2,4,,,,,0,10,10,30,,,,,,,,,,,,,,4,1,1.01629127901,,,,,,2015_Dez_09_1441,P16,PLC_L_D2S1,NHG,60.0192612545,
stim/posf.jpg,stim/negf.jpg,stim/6.jpg,stim/5.jpg,stim/latef.jpg,CD,2,4,,,,,0,11,11,33,,,,,,,,,,,,,,4,1,0.8163944632,,,,,,2015_Dez_09_1441,P16,PLC_L_D2S1,NHG,60.0192612545,
stim/posf.jpg,stim/negf.jpg,stim/2.jpg,stim/1.jpg,stim/latef.jpg,AB,1,2,,,,,0,12,12,2,,,,,,,,,,,,,,4,0,1.64952108029,,,,,,2015_Dez_09_1441,P16,PLC_L_D2S1,NHG,60.0192612545,
stim/posf.jpg,stim/negf.jpg,stim/5.jpg,stim/6.jpg,stim/latef.jpg,CD,1,2,,,,,0,13,13,25,,,,,,,,,,,,,,2,1,1.24960079398,,,,,,2015_Dez_09_1441,P16,PLC_L_D2S1,NHG,60.0192612545,
stim/posf.jpg,stim/negf.jpg,stim/3.jpg,stim/4.jpg,stim/latef.jpg,EF,2,4,,,,,0,14,14,50,,,,,,,,,,,,,,2,0,1.13295906948,,,,,,2015_Dez_09_1441,P16,PLC_L_D2S1,NHG,60.0192612545,
stim/negf.jpg,stim/posf.jpg,stim/4.jpg,stim/3.jpg,stim/latef.jpg,EF,1,2,,,,,0,15,15,49,,,,,,,,,,,,,,2,1,1.16625522816,,,,,,2015_Dez_09_1441,P16,PLC_L_D2S1,NHG,60.0192612545,
stim/negf.jpg,stim/posf.jpg,stim/5.jpg,stim/6.jpg,stim/latef.jpg,CD,1,2,,,,,0,16,16,29,,,,,,,,,,,,,,2,1,0.633144228991,,,,,,2015_Dez_09_1441,P16,PLC_L_D2S1,NHG,60.0192612545,
stim/posf.jpg,stim/negf.jpg,stim/2.jpg,stim/1.jpg,stim/latef.jpg,AB,1,2,,,,,0,17,17,4,,,,,,,,,,,,,,2,1,1.3162404403,,,,,,2015_Dez_09_1441,P16,PLC_L_D2S1,NHG,60.0192612545,
stim/negf.jpg,stim/posf.jpg,stim/1.jpg,stim/2.jpg,stim/latef.jpg,AB,2,4,,,,,0,18,18,19,,,,,,,,,,,,,,4,1,1.11634044255,,,,,,2015_Dez_09_1441,P16,PLC_L_D2S1,NHG,60.0192612545,
stim/negf.jpg,stim/posf.jpg,stim/4.jpg,stim/3.jpg,stim/latef.jpg,EF,1,2,,,,,0,19,19,48,,,,,,,,,,,,,,4,0,0.99966477846,,,,,,2015_Dez_09_1441,P16,PLC_L_D2S1,NHG,60.0192612545,
stim/negf.jpg,stim/posf.jpg,stim/3.jpg,stim/4.jpg,stim/latef.jpg,EF,2,4,,,,,0,20,20,59,,,,,,,,,,,,,,2,0,0.933009093164,,,,,,2015_Dez_09_1441,P16,PLC_L_D2S1,NHG,60.0192612545,
stim/negf.jpg,stim/posf.jpg,stim/5.jpg,stim/6.jpg,stim/latef.jpg,CD,1,2,,,,,0,21,21,28,,,,,,,,,,,,,,2,1,1.06625511387,,,,,,2015_Dez_09_1441,P16,PLC_L_D2S1,NHG,60.0192612545,
stim/negf.jpg,stim/posf.jpg,stim/6.jpg,stim/5.jpg,stim/latef.jpg,CD,2,4,,,,,0,22,22,39,,,,,,,,,,,,,,4,1,0.833049928948,,,,,,2015_Dez_09_1441,P16,PLC_L_D2S1,NHG,60.0192612545,
stim/posf.jpg,stim/negf.jpg,stim/5.jpg,stim/6.jpg,stim/latef.jpg,CD,1,2,,,,,0,23,23,24,,,,,,,,,,,,,,2,1,0.816403774407,,,,,,2015_Dez_09_1441,P16,PLC_L_D2S1,NHG,60.0192612545,
stim/posf.jpg,stim/negf.jpg,stim/4.jpg,stim/3.jpg,stim/latef.jpg,EF,1,2,,,,,0,24,24,44,,,,,,,,,,,,,,4,0,1.41620781799,,,,,,2015_Dez_09_1441,P16,PLC_L_D2S1,NHG,60.0192612545,
stim/negf.jpg,stim/posf.jpg,stim/2.jpg,stim/1.jpg,stim/latef.jpg,AB,1,2,,,,,0,25,25,9,,,,,,,,,,,,,,2,1,1.33291132247,,,,,,2015_Dez_09_1441,P16,PLC_L_D2S1,NHG,60.0192612545,
stim/negf.jpg,stim/posf.jpg,stim/5.jpg,stim/6.jpg,stim/latef.jpg,CD,1,2,,,,,0,26,26,27,,,,,,,,,,,,,,2,1,0.599765442365,,,,,,2015_Dez_09_1441,P16,PLC_L_D2S1,NHG,60.0192612545,
stim/posf.jpg,stim/negf.jpg,stim/5.jpg,stim/6.jpg,stim/latef.jpg,CD,1,2,,,,,0,27,27,20,,,,,,,,,,,,,,2,1,0.533161873971,,,,,,2015_Dez_09_1441,P16,PLC_L_D2S1,NHG,60.0192612545,
stim/negf.jpg,stim/posf.jpg,stim/6.jpg,stim/5.jpg,stim/latef.jpg,CD,2,4,,,,,0,28,28,37,,,,,,,,,,,,,,4,1,0.73307778137,,,,,,2015_Dez_09_1441,P16,PLC_L_D2S1,NHG,60.0192612545,
stim/negf.jpg,stim/posf.jpg,stim/4.jpg,stim/3.jpg,stim/latef.jpg,EF,1,2,,,,,0,29,29,47,,,,,,,,,,,,,,4,0,1.21625164021,,,,,,2015_Dez_09_1441,P16,PLC_L_D2S1,NHG,60.0192612545,
stim/posf.jpg,stim/negf.jpg,stim/3.jpg,stim/4.jpg,stim/latef.jpg,EF,2,4,,,,,0,30,30,55,,,,,,,,,,,,,,2,0,0.933018217908,,,,,,2015_Dez_09_1441,P16,PLC_L_D2S1,NHG,60.0192612545,
stim/posf.jpg,stim/negf.jpg,stim/4.jpg,stim/3.jpg,stim/latef.jpg,EF,1,2,,,,,0,31,31,41,,,,,,,,,,,,,,4,0,1.01632840655,,,,,,2015_Dez_09_1441,P16,PLC_L_D2S1,NHG,60.0192612545,
stim/posf.jpg,stim/negf.jpg,stim/1.jpg,stim/2.jpg,stim/latef.jpg,AB,2,4,,,,,0,32,32,13,,,,,,,,,,,,,,4,1,1.26625730032,,,,,,2015_Dez_09_1441,P16,PLC_L_D2S1,NHG,60.0192612545,
stim/posf.jpg,stim/negf.jpg,stim/1.jpg,stim/2.jpg,stim/latef.jpg,AB,2,4,,,,,0,33,33,11,,,,,,,,,,,,,,4,1,0.916372382163,,,,,,2015_Dez_09_1441,P16,PLC_L_D2S1,NHG,60.0192612545,
stim/negf.jpg,stim/posf.jpg,stim/2.jpg,stim/1.jpg,stim/latef.jpg,AB,1,2,,,,,0,34,34,8,,,,,,,,,,,,,,2,1,0.93308769107,,,,,,2015_Dez_09_1441,P16,PLC_L_D2S1,NHG,60.0192612545,
stim/posf.jpg,stim/negf.jpg,stim/1.jpg,stim/2.jpg,stim/latef.jpg,AB,2,4,,,,,0,35,35,16,,,,,,,,,,,,,,4,1,0.816380358043,,,,,,2015_Dez_09_1441,P16,PLC_L_D2S1,NHG,60.0192612545,
stim/negf.jpg,stim/posf.jpg,stim/3.jpg,stim/4.jpg,stim/latef.jpg,EF,2,4,,,,,0,36,36,57,,,,,,,,,,,,,,2,0,1.14960289321,,,,,,2015_Dez_09_1441,P16,PLC_L_D2S1,NHG,60.0192612545,
stim/posf.jpg,stim/negf.jpg,stim/3.jpg,stim/4.jpg,stim/latef.jpg,EF,2,4,,,,,0,37,37,53,,,,,,,,,,,,,,2,0,0.699765875444,,,,,,2015_Dez_09_1441,P16,PLC_L_D2S1,NHG,60.0192612545,
stim/posf.jpg,stim/negf.jpg,stim/5.jpg,stim/6.jpg,stim/latef.jpg,CD,1,2,,,,,0,38,38,23,,,,,,,,,,,,,,2,1,0.633121435177,,,,,,2015_Dez_09_1441,P16,PLC_L_D2S1,NHG,60.0192612545,
stim/posf.jpg,stim/negf.jpg,stim/6.jpg,stim/5.jpg,stim/latef.jpg,CD,2,4,,,,,0,39,39,34,,,,,,,,,,,,,,4,1,0.799728747904,,,,,,2015_Dez_09_1441,P16,PLC_L_D2S1,NHG,60.0192612545,
stim/posf.jpg,stim/negf.jpg,stim/6.jpg,stim/5.jpg,stim/latef.jpg,CD,2,4,,,,,0,40,40,31,,,,,,,,,,,,,,4,1,0.999670203983,,,,,,2015_Dez_09_1441,P16,PLC_L_D2S1,NHG,60.0192612545,
stim/posf.jpg,stim/negf.jpg,stim/6.jpg,stim/5.jpg,stim/latef.jpg,CD,2,4,,,,,0,41,41,36,,,,,,,,,,,,,,4,1,1.24959828873,,,,,,2015_Dez_09_1441,P16,PLC_L_D2S1,NHG,60.0192612545,
stim/negf.jpg,stim/posf.jpg,stim/3.jpg,stim/4.jpg,stim/latef.jpg,EF,2,4,,,,,0,42,42,56,,,,,,,,,,,,,,2,0,1.01633869821,,,,,,2015_Dez_09_1441,P16,PLC_L_D2S1,NHG,60.0192612545,
stim/posf.jpg,stim/negf.jpg,stim/2.jpg,stim/1.jpg,stim/latef.jpg,AB,1,2,,,,,0,43,43,5,,,,,,,,,,,,,,4,0,0.699772070887,,,,,,2015_Dez_09_1441,P16,PLC_L_D2S1,NHG,60.0192612545,
stim/posf.jpg,stim/negf.jpg,stim/4.jpg,stim/3.jpg,stim/latef.jpg,EF,1,2,,,,,0,44,44,40,,,,,,,,,,,,,,4,0,1.13295836873,,,,,,2015_Dez_09_1441,P16,PLC_L_D2S1,NHG,60.0192612545,
stim/posf.jpg,stim/negf.jpg,stim/3.jpg,stim/4.jpg,stim/latef.jpg,EF,2,4,,,,,0,45,45,52,,,,,,,,,,,,,,2,0,0.966373173133,,,,,,2015_Dez_09_1441,P16,PLC_L_D2S1,NHG,60.0192612545,
stim/negf.jpg,stim/posf.jpg,stim/6.jpg,stim/5.jpg,stim/latef.jpg,CD,2,4,,,,,0,46,46,38,,,,,,,,,,,,,,4,1,0.918204813497,,,,,,2015_Dez_09_1441,P16,PLC_L_D2S1,NHG,60.0192612545,
stim/posf.jpg,stim/negf.jpg,stim/4.jpg,stim/3.jpg,stim/latef.jpg,EF,1,2,,,,,0,47,47,43,,,,,,,,,,,,,,4,0,0.933039790679,,,,,,2015_Dez_09_1441,P16,PLC_L_D2S1,NHG,60.0192612545,
stim/posf.jpg,stim/negf.jpg,stim/3.jpg,stim/4.jpg,stim/latef.jpg,EF,2,4,,,,,0,48,48,54,,,,,,,,,,,,,,2,0,0.883066470177,,,,,,2015_Dez_09_1441,P16,PLC_L_D2S1,NHG,60.0192612545,
stim/posf.jpg,stim/negf.jpg,stim/1.jpg,stim/2.jpg,stim/latef.jpg,AB,2,4,,,,,0,49,49,12,,,,,,,,,,,,,,4,1,1.33279713386,,,,,,2015_Dez_09_1441,P16,PLC_L_D2S1,NHG,60.0192612545,
stim/posf.jpg,stim/negf.jpg,stim/4.jpg,stim/3.jpg,stim/latef.jpg,EF,1,2,,,,,0,50,50,45,,,,,,,,,,,,,,4,0,1.54950692401,,,,,,2015_Dez_09_1441,P16,PLC_L_D2S1,NHG,60.0192612545,
stim/posf.jpg,stim/negf.jpg,stim/3.jpg,stim/4.jpg,stim/latef.jpg,EF,2,4,,,,,0,51,51,51,,,,,,,,,,,,,,4,1,1.23292295246,,,,,,2015_Dez_09_1441,P16,PLC_L_D2S1,NHG,60.0192612545,
stim/posf.jpg,stim/negf.jpg,stim/1.jpg,stim/2.jpg,stim/latef.jpg,AB,2,4,,,,,0,52,52,10,,,,,,,,,,,,,,4,1,1.49951322772,,,,,,2015_Dez_09_1441,P16,PLC_L_D2S1,NHG,60.0192612545,
stim/negf.jpg,stim/posf.jpg,stim/3.jpg,stim/4.jpg,stim/latef.jpg,EF,2,4,,,,,0,53,53,58,,,,,,,,,,,,,,2,0,1.58280785558,,,,,,2015_Dez_09_1441,P16,PLC_L_D2S1,NHG,60.0192612545,
stim/posf.jpg,stim/negf.jpg,stim/1.jpg,stim/2.jpg,stim/latef.jpg,AB,2,4,,,,,0,54,54,14,,,,,,,,,,,,,,2,0,1.29952826219,,,,,,2015_Dez_09_1441,P16,PLC_L_D2S1,NHG,60.0192612545,
stim/negf.jpg,stim/posf.jpg,stim/1.jpg,stim/2.jpg,stim/latef.jpg,AB,2,4,,,,,0,55,55,18,,,,,,,,,,,,,,4,1,0.799769929549,,,,,,2015_Dez_09_1441,P16,PLC_L_D2S1,NHG,60.0192612545,
stim/posf.jpg,stim/negf.jpg,stim/5.jpg,stim/6.jpg,stim/latef.jpg,CD,1,2,,,,,0,56,56,21,,,,,,,,,,,,,,2,1,0.882976254314,,,,,,2015_Dez_09_1441,P16,PLC_L_D2S1,NHG,60.0192612545,
stim/posf.jpg,stim/negf.jpg,stim/6.jpg,stim/5.jpg,stim/latef.jpg,CD,2,4,,,,,0,57,57,32,,,,,,,,,,,,,,4,1,0.866388330915,,,,,,2015_Dez_09_1441,P16,PLC_L_D2S1,NHG,60.0192612545,
stim/negf.jpg,stim/posf.jpg,stim/4.jpg,stim/3.jpg,stim/latef.jpg,EF,1,2,,,,,0,58,58,46,,,,,,,,,,,,,,4,0,1.44952503816,,,,,,2015_Dez_09_1441,P16,PLC_L_D2S1,NHG,60.0192612545,
stim/posf.jpg,stim/negf.jpg,stim/2.jpg,stim/1.jpg,stim/latef.jpg,AB,1,2,,,,,0,59,59,3,,,,,,,,,,,,,,4,0,0.883042028256,,,,,,2015_Dez_09_1441,P16,PLC_L_D2S1,NHG,60.0192612545,
,,,,,,,,,,,,,,,,,,,,,,,,,,,,,,,,0.9984375,1.0,0,0,1,2015_Dez_09_1441,P16,PLC_L_D2S1,NHG,60.0192612545,
stim/posf.jpg,stim/negf.jpg,stim/3.jpg,stim/4.jpg,stim/latef.jpg,EF,2,4,,,,,,,,,0,0,0,53,,,,,,,,,,2,0,1.08298238961,,,,,,2015_Dez_09_1441,P16,PLC_L_D2S1,NHG,60.0192612545,
stim/posf.jpg,stim/negf.jpg,stim/3.jpg,stim/4.jpg,stim/latef.jpg,EF,2,4,,,,,,,,,0,1,1,55,,,,,,,,,,2,0,1.14962492312,,,,,,2015_Dez_09_1441,P16,PLC_L_D2S1,NHG,60.0192612545,
stim/negf.jpg,stim/posf.jpg,stim/6.jpg,stim/5.jpg,stim/latef.jpg,CD,2,4,,,,,,,,,0,2,2,38,,,,,,,,,,4,1,0.949578231743,,,,,,2015_Dez_09_1441,P16,PLC_L_D2S1,NHG,60.0192612545,
stim/posf.jpg,stim/negf.jpg,stim/2.jpg,stim/1.jpg,stim/latef.jpg,AB,1,2,,,,,,,,,0,3,3,3,,,,,,,,,,2,1,1.18294601996,,,,,,2015_Dez_09_1441,P16,PLC_L_D2S1,NHG,60.0192612545,
stim/posf.jpg,stim/negf.jpg,stim/1.jpg,stim/2.jpg,stim/latef.jpg,AB,2,4,,,,,,,,,0,4,4,16,,,,,,,,,,4,1,1.06637554304,,,,,,2015_Dez_09_1441,P16,PLC_L_D2S1,NHG,60.0192612545,
stim/negf.jpg,stim/posf.jpg,stim/4.jpg,stim/3.jpg,stim/latef.jpg,EF,1,2,,,,,,,,,0,5,5,49,,,,,,,,,,None,0,,,,,,,2015_Dez_09_1441,P16,PLC_L_D2S1,NHG,60.0192612545,
stim/posf.jpg,stim/negf.jpg,stim/4.jpg,stim/3.jpg,stim/latef.jpg,EF,1,2,,,,,,,,,0,6,6,45,,,,,,,,,,4,0,1.04966058902,,,,,,2015_Dez_09_1441,P16,PLC_L_D2S1,NHG,60.0192612545,
stim/posf.jpg,stim/negf.jpg,stim/6.jpg,stim/5.jpg,stim/latef.jpg,CD,2,4,,,,,,,,,0,7,7,32,,,,,,,,,,4,1,0.916375654318,,,,,,2015_Dez_09_1441,P16,PLC_L_D2S1,NHG,60.0192612545,
stim/negf.jpg,stim/posf.jpg,stim/2.jpg,stim/1.jpg,stim/latef.jpg,AB,1,2,,,,,,,,,0,8,8,8,,,,,,,,,,2,1,1.19959920602,,,,,,2015_Dez_09_1441,P16,PLC_L_D2S1,NHG,60.0192612545,
stim/negf.jpg,stim/posf.jpg,stim/2.jpg,stim/1.jpg,stim/latef.jpg,AB,1,2,,,,,,,,,0,9,9,9,,,,,,,,,,2,1,1.21632952534,,,,,,2015_Dez_09_1441,P16,PLC_L_D2S1,NHG,60.0192612545,
stim/posf.jpg,stim/negf.jpg,stim/6.jpg,stim/5.jpg,stim/latef.jpg,CD,2,4,,,,,,,,,0,10,10,33,,,,,,,,,,4,1,1.01629009707,,,,,,2015_Dez_09_1441,P16,PLC_L_D2S1,NHG,60.0192612545,
stim/posf.jpg,stim/negf.jpg,stim/5.jpg,stim/6.jpg,stim/latef.jpg,CD,1,2,,,,,,,,,0,11,11,23,,,,,,,,,,2,1,1.31622743588,,,,,,2015_Dez_09_1441,P16,PLC_L_D2S1,NHG,60.0192612545,
stim/posf.jpg,stim/negf.jpg,stim/6.jpg,stim/5.jpg,stim/latef.jpg,CD,2,4,,,,,,,,,0,12,12,35,,,,,,,,,,4,1,0.999663476215,,,,,,2015_Dez_09_1441,P16,PLC_L_D2S1,NHG,60.0192612545,
stim/posf.jpg,stim/negf.jpg,stim/4.jpg,stim/3.jpg,stim/latef.jpg,EF,1,2,,,,,,,,,0,13,13,40,,,,,,,,,,4,0,1.23292803513,,,,,,2015_Dez_09_1441,P16,PLC_L_D2S1,NHG,60.0192612545,
stim/posf.jpg,stim/negf.jpg,stim/1.jpg,stim/2.jpg,stim/latef.jpg,AB,2,4,,,,,,,,,0,14,14,12,,,,,,,,,,4,1,1.39954718536,,,,,,2015_Dez_09_1441,P16,PLC_L_D2S1,NHG,60.0192612545,
stim/posf.jpg,stim/negf.jpg,stim/2.jpg,stim/1.jpg,stim/latef.jpg,AB,1,2,,,,,,,,,0,15,15,6,,,,,,,,,,2,1,0.833021357735,,,,,,2015_Dez_09_1441,P16,PLC_L_D2S1,NHG,60.0192612545,
stim/posf.jpg,stim/negf.jpg,stim/5.jpg,stim/6.jpg,stim/latef.jpg,CD,1,2,,,,,,,,,0,16,16,20,,,,,,,,,,2,1,0.99967567462,,,,,,2015_Dez_09_1441,P16,PLC_L_D2S1,NHG,60.0192612545,
stim/posf.jpg,stim/negf.jpg,stim/4.jpg,stim/3.jpg,stim/latef.jpg,EF,1,2,,,,,,,,,0,17,17,43,,,,,,,,,,4,0,1.06626213036,,,,,,2015_Dez_09_1441,P16,PLC_L_D2S1,NHG,60.0192612545,
stim/posf.jpg,stim/negf.jpg,stim/5.jpg,stim/6.jpg,stim/latef.jpg,CD,1,2,,,,,,,,,0,18,18,26,,,,,,,,,,2,1,0.733072764867,,,,,,2015_Dez_09_1441,P16,PLC_L_D2S1,NHG,60.0192612545,
stim/posf.jpg,stim/negf.jpg,stim/2.jpg,stim/1.jpg,stim/latef.jpg,AB,1,2,,,,,,,,,0,19,19,7,,,,,,,,,,2,1,1.06632219006,,,,,,2015_Dez_09_1441,P16,PLC_L_D2S1,NHG,60.0192612545,
stim/posf.jpg,stim/negf.jpg,stim/3.jpg,stim/4.jpg,stim/latef.jpg,EF,2,4,,,,,,,,,0,20,20,52,,,,,,,,,,4,1,0.91636837317,,,,,,2015_Dez_09_1441,P16,PLC_L_D2S1,NHG,60.0192612545,
stim/posf.jpg,stim/negf.jpg,stim/1.jpg,stim/2.jpg,stim/latef.jpg,AB,2,4,,,,,,,,,0,21,21,11,,,,,,,,,,4,1,1.18293939745,,,,,,2015_Dez_09_1441,P16,PLC_L_D2S1,NHG,60.0192612545,
stim/posf.jpg,stim/negf.jpg,stim/6.jpg,stim/5.jpg,stim/latef.jpg,CD,2,4,,,,,,,,,0,22,22,36,,,,,,,,,,4,1,0.949669232562,,,,,,2015_Dez_09_1441,P16,PLC_L_D2S1,NHG,60.0192612545,
stim/posf.jpg,stim/negf.jpg,stim/3.jpg,stim/4.jpg,stim/latef.jpg,EF,2,4,,,,,,,,,0,23,23,54,,,,,,,,,,4,1,0.766394264705,,,,,,2015_Dez_09_1441,P16,PLC_L_D2S1,NHG,60.0192612545,
stim/negf.jpg,stim/posf.jpg,stim/3.jpg,stim/4.jpg,stim/latef.jpg,EF,2,4,,,,,,,,,0,24,24,59,,,,,,,,,,4,1,0.833046840249,,,,,,2015_Dez_09_1441,P16,PLC_L_D2S1,NHG,60.0192612545,
stim/negf.jpg,stim/posf.jpg,stim/6.jpg,stim/5.jpg,stim/latef.jpg,CD,2,4,,,,,,,,,0,25,25,37,,,,,,,,,,4,1,0.733088385801,,,,,,2015_Dez_09_1441,P16,PLC_L_D2S1,NHG,60.0192612545,
stim/posf.jpg,stim/negf.jpg,stim/6.jpg,stim/5.jpg,stim/latef.jpg,CD,2,4,,,,,,,,,0,26,26,34,,,,,,,,,,4,1,0.516523292306,,,,,,2015_Dez_09_1441,P16,PLC_L_D2S1,NHG,60.0192612545,
stim/posf.jpg,stim/negf.jpg,stim/5.jpg,stim/6.jpg,stim/latef.jpg,CD,1,2,,,,,,,,,0,27,27,21,,,,,,,,,,2,1,0.883055992061,,,,,,2015_Dez_09_1441,P16,PLC_L_D2S1,NHG,60.0192612545,
stim/posf.jpg,stim/negf.jpg,stim/2.jpg,stim/1.jpg,stim/latef.jpg,AB,1,2,,,,,,,,,0,28,28,2,,,,,,,,,,4,0,1.09961702243,,,,,,2015_Dez_09_1441,P16,PLC_L_D2S1,NHG,60.0192612545,
stim/negf.jpg,stim/posf.jpg,stim/3.jpg,stim/4.jpg,stim/latef.jpg,EF,2,4,,,,,,,,,0,29,29,58,,,,,,,,,,2,0,1.29956708295,,,,,,2015_Dez_09_1441,P16,PLC_L_D2S1,NHG,60.0192612545,
stim/negf.jpg,stim/posf.jpg,stim/5.jpg,stim/6.jpg,stim/latef.jpg,CD,1,2,,,,,,,,,0,30,30,29,,,,,,,,,,2,1,1.13296551755,,,,,,2015_Dez_09_1441,P16,PLC_L_D2S1,NHG,60.0192612545,
stim/negf.jpg,stim/posf.jpg,stim/4.jpg,stim/3.jpg,stim/latef.jpg,EF,1,2,,,,,,,,,0,31,31,46,,,,,,,,,,4,0,0.99966330178,,,,,,2015_Dez_09_1441,P16,PLC_L_D2S1,NHG,60.0192612545,
stim/negf.jpg,stim/posf.jpg,stim/4.jpg,stim/3.jpg,stim/latef.jpg,EF,1,2,,,,,,,,,0,32,32,48,,,,,,,,,,2,1,1.29955019586,,,,,,2015_Dez_09_1441,P16,PLC_L_D2S1,NHG,60.0192612545,
stim/posf.jpg,stim/negf.jpg,stim/1.jpg,stim/2.jpg,stim/latef.jpg,AB,2,4,,,,,,,,,0,33,33,17,,,,,,,,,,4,1,0.8164066195,,,,,,2015_Dez_09_1441,P16,PLC_L_D2S1,NHG,60.0192612545,
stim/posf.jpg,stim/negf.jpg,stim/2.jpg,stim/1.jpg,stim/latef.jpg,AB,1,2,,,,,,,,,0,34,34,0,,,,,,,,,,2,1,1.01636805738,,,,,,2015_Dez_09_1441,P16,PLC_L_D2S1,NHG,60.0192612545,
stim/posf.jpg,stim/negf.jpg,stim/2.jpg,stim/1.jpg,stim/latef.jpg,AB,1,2,,,,,,,,,0,35,35,4,,,,,,,,,,2,1,1.04965921459,,,,,,2015_Dez_09_1441,P16,PLC_L_D2S1,NHG,60.0192612545,
stim/posf.jpg,stim/negf.jpg,stim/1.jpg,stim/2.jpg,stim/latef.jpg,AB,2,4,,,,,,,,,0,36,36,10,,,,,,,,,,2,0,1.11632583214,,,,,,2015_Dez_09_1441,P16,PLC_L_D2S1,NHG,60.0192612545,
stim/posf.jpg,stim/negf.jpg,stim/1.jpg,stim/2.jpg,stim/latef.jpg,AB,2,4,,,,,,,,,0,37,37,15,,,,,,,,,,4,1,0.716416763784,,,,,,2015_Dez_09_1441,P16,PLC_L_D2S1,NHG,60.0192612545,
stim/posf.jpg,stim/negf.jpg,stim/4.jpg,stim/3.jpg,stim/latef.jpg,EF,1,2,,,,,,,,,0,38,38,42,,,,,,,,,,4,0,0.949628168209,,,,,,2015_Dez_09_1441,P16,PLC_L_D2S1,NHG,60.0192612545,
stim/posf.jpg,stim/negf.jpg,stim/1.jpg,stim/2.jpg,stim/latef.jpg,AB,2,4,,,,,,,,,0,39,39,14,,,,,,,,,,4,1,1.28290448343,,,,,,2015_Dez_09_1441,P16,PLC_L_D2S1,NHG,60.0192612545,
stim/negf.jpg,stim/posf.jpg,stim/3.jpg,stim/4.jpg,stim/latef.jpg,EF,2,4,,,,,,,,,0,40,40,57,,,,,,,,,,4,1,0.916362126601,,,,,,2015_Dez_09_1441,P16,PLC_L_D2S1,NHG,60.0192612545,
stim/posf.jpg,stim/negf.jpg,stim/2.jpg,stim/1.jpg,stim/latef.jpg,AB,1,2,,,,,,,,,0,41,41,1,,,,,,,,,,2,1,0.966347158292,,,,,,2015_Dez_09_1441,P16,PLC_L_D2S1,NHG,60.0192612545,
stim/posf.jpg,stim/negf.jpg,stim/4.jpg,stim/3.jpg,stim/latef.jpg,EF,1,2,,,,,,,,,0,42,42,44,,,,,,,,,,2,1,1.11628628356,,,,,,2015_Dez_09_1441,P16,PLC_L_D2S1,NHG,60.0192612545,
stim/negf.jpg,stim/posf.jpg,stim/1.jpg,stim/2.jpg,stim/latef.jpg,AB,2,4,,,,,,,,,0,43,43,18,,,,,,,,,,4,1,1.38286793032,,,,,,2015_Dez_09_1441,P16,PLC_L_D2S1,NHG,60.0192612545,
stim/posf.jpg,stim/negf.jpg,stim/5.jpg,stim/6.jpg,stim/latef.jpg,CD,1,2,,,,,,,,,0,44,44,22,,,,,,,,,,2,1,0.749739087676,,,,,,2015_Dez_09_1441,P16,PLC_L_D2S1,NHG,60.0192612545,
stim/negf.jpg,stim/posf.jpg,stim/5.jpg,stim/6.jpg,stim/latef.jpg,CD,1,2,,,,,,,,,0,45,45,28,,,,,,,,,,2,1,0.633113050279,,,,,,2015_Dez_09_1441,P16,PLC_L_D2S1,NHG,60.0192612545,
stim/negf.jpg,stim/posf.jpg,stim/5.jpg,stim/6.jpg,stim/latef.jpg,CD,1,2,,,,,,,,,0,46,46,27,,,,,,,,,,2,1,0.633101757129,,,,,,2015_Dez_09_1441,P16,PLC_L_D2S1,NHG,60.0192612545,
stim/posf.jpg,stim/negf.jpg,stim/4.jpg,stim/3.jpg,stim/latef.jpg,EF,1,2,,,,,,,,,0,47,47,41,,,,,,,,,,4,0,1.28289978572,,,,,,2015_Dez_09_1441,P16,PLC_L_D2S1,NHG,60.0192612545,
stim/negf.jpg,stim/posf.jpg,stim/3.jpg,stim/4.jpg,stim/latef.jpg,EF,2,4,,,,,,,,,0,48,48,56,,,,,,,,,,4,1,1.16628760686,,,,,,2015_Dez_09_1441,P16,PLC_L_D2S1,NHG,60.0192612545,
stim/posf.jpg,stim/negf.jpg,stim/3.jpg,stim/4.jpg,stim/latef.jpg,EF,2,4,,,,,,,,,0,49,49,51,,,,,,,,,,2,0,1.01631702619,,,,,,2015_Dez_09_1441,P16,PLC_L_D2S1,NHG,60.0192612545,
stim/posf.jpg,stim/negf.jpg,stim/2.jpg,stim/1.jpg,stim/latef.jpg,AB,1,2,,,,,,,,,0,50,50,5,,,,,,,,,,2,1,0.933037177164,,,,,,2015_Dez_09_1441,P16,PLC_L_D2S1,NHG,60.0192612545,
stim/posf.jpg,stim/negf.jpg,stim/6.jpg,stim/5.jpg,stim/latef.jpg,CD,2,4,,,,,,,,,0,51,51,31,,,,,,,,,,4,1,0.983018981812,,,,,,2015_Dez_09_1441,P16,PLC_L_D2S1,NHG,60.0192612545,
stim/posf.jpg,stim/negf.jpg,stim/5.jpg,stim/6.jpg,stim/latef.jpg,CD,1,2,,,,,,,,,0,52,52,25,,,,,,,,,,2,1,1.13290736761,,,,,,2015_Dez_09_1441,P16,PLC_L_D2S1,NHG,60.0192612545,
stim/negf.jpg,stim/posf.jpg,stim/4.jpg,stim/3.jpg,stim/latef.jpg,EF,1,2,,,,,,,,,0,53,53,47,,,,,,,,,,4,0,0.933012037503,,,,,,2015_Dez_09_1441,P16,PLC_L_D2S1,NHG,60.0192612545,
stim/posf.jpg,stim/negf.jpg,stim/5.jpg,stim/6.jpg,stim/latef.jpg,CD,1,2,,,,,,,,,0,54,54,24,,,,,,,,,,2,1,1.56615217329,,,,,,2015_Dez_09_1441,P16,PLC_L_D2S1,NHG,60.0192612545,
stim/posf.jpg,stim/negf.jpg,stim/1.jpg,stim/2.jpg,stim/latef.jpg,AB,2,4,,,,,,,,,0,55,55,13,,,,,,,,,,4,1,1.03300210976,,,,,,2015_Dez_09_1441,P16,PLC_L_D2S1,NHG,60.0192612545,
stim/posf.jpg,stim/negf.jpg,stim/6.jpg,stim/5.jpg,stim/latef.jpg,CD,2,4,,,,,,,,,0,56,56,30,,,,,,,,,,4,1,0.883029435869,,,,,,2015_Dez_09_1441,P16,PLC_L_D2S1,NHG,60.0192612545,
stim/posf.jpg,stim/negf.jpg,stim/3.jpg,stim/4.jpg,stim/latef.jpg,EF,2,4,,,,,,,,,0,57,57,50,,,,,,,,,,4,1,1.09963828843,,,,,,2015_Dez_09_1441,P16,PLC_L_D2S1,NHG,60.0192612545,
stim/negf.jpg,stim/posf.jpg,stim/1.jpg,stim/2.jpg,stim/latef.jpg,AB,2,4,,,,,,,,,0,58,58,19,,,,,,,,,,4,1,1.49950539018,,,,,,2015_Dez_09_1441,P16,PLC_L_D2S1,NHG,60.0192612545,
stim/negf.jpg,stim/posf.jpg,stim/6.jpg,stim/5.jpg,stim/latef.jpg,CD,2,4,,,,,,,,,0,59,59,39,,,,,,,,,,4,1,0.866428102045,,,,,,2015_Dez_09_1441,P16,PLC_L_D2S1,NHG,60.0192612545,
,,,,,,,,,,,,,,,,,,,,,,,,,,,,,,,,0.9984375,1.0,0,0,1,2015_Dez_09_1441,P16,PLC_L_D2S1,NHG,60.0192612545,
stim/negf.jpg,stim/posf.jpg,stim/1.jpg,stim/2.jpg,stim/latef.jpg,AB,2,4,,,,,,,,,,,,,0,0,0,18,,,,,,4,1,0.99966087473,,,,,,2015_Dez_09_1441,P16,PLC_L_D2S1,NHG,60.0192612545,
stim/posf.jpg,stim/negf.jpg,stim/1.jpg,stim/2.jpg,stim/latef.jpg,AB,2,4,,,,,,,,,,,,,0,1,1,13,,,,,,4,1,0.666461097286,,,,,,2015_Dez_09_1441,P16,PLC_L_D2S1,NHG,60.0192612545,
stim/posf.jpg,stim/negf.jpg,stim/3.jpg,stim/4.jpg,stim/latef.jpg,EF,2,4,,,,,,,,,,,,,0,2,2,51,,,,,,4,1,1.26626193487,,,,,,2015_Dez_09_1441,P16,PLC_L_D2S1,NHG,60.0192612545,
stim/posf.jpg,stim/negf.jpg,stim/4.jpg,stim/3.jpg,stim/latef.jpg,EF,1,2,,,,,,,,,,,,,0,3,3,43,,,,,,2,1,0.999615299133,,,,,,2015_Dez_09_1441,P16,PLC_L_D2S1,NHG,60.0192612545,
stim/negf.jpg,stim/posf.jpg,stim/3.jpg,stim/4.jpg,stim/latef.jpg,EF,2,4,,,,,,,,,,,,,0,4,4,58,,,,,,4,1,0.733130487741,,,,,,2015_Dez_09_1441,P16,PLC_L_D2S1,NHG,60.0192612545,
stim/posf.jpg,stim/negf.jpg,stim/4.jpg,stim/3.jpg,stim/latef.jpg,EF,1,2,,,,,,,,,,,,,0,5,5,45,,,,,,2,1,0.816367519041,,,,,,2015_Dez_09_1441,P16,PLC_L_D2S1,NHG,60.0192612545,
stim/posf.jpg,stim/negf.jpg,stim/1.jpg,stim/2.jpg,stim/latef.jpg,AB,2,4,,,,,,,,,,,,,0,6,6,16,,,,,,4,1,0.999657046187,,,,,,2015_Dez_09_1441,P16,PLC_L_D2S1,NHG,60.0192612545,
stim/negf.jpg,stim/posf.jpg,stim/6.jpg,stim/5.jpg,stim/latef.jpg,CD,2,4,,,,,,,,,,,,,0,7,7,37,,,,,,4,1,1.16629314366,,,,,,2015_Dez_09_1441,P16,PLC_L_D2S1,NHG,60.0192612545,
stim/posf.jpg,stim/negf.jpg,stim/4.jpg,stim/3.jpg,stim/latef.jpg,EF,1,2,,,,,,,,,,,,,0,8,8,41,,,,,,2,1,1.13296751152,,,,,,2015_Dez_09_1441,P16,PLC_L_D2S1,NHG,60.0192612545,
stim/posf.jpg,stim/negf.jpg,stim/1.jpg,stim/2.jpg,stim/latef.jpg,AB,2,4,,,,,,,,,,,,,0,9,9,11,,,,,,4,1,0.799689424892,,,,,,2015_Dez_09_1441,P16,PLC_L_D2S1,NHG,60.0192612545,
stim/negf.jpg,stim/posf.jpg,stim/5.jpg,stim/6.jpg,stim/latef.jpg,CD,1,2,,,,,,,,,,,,,0,10,10,29,,,,,,2,1,0.733056193562,,,,,,2015_Dez_09_1441,P16,PLC_L_D2S1,NHG,60.0192612545,
stim/posf.jpg,stim/negf.jpg,stim/6.jpg,stim/5.jpg,stim/latef.jpg,CD,2,4,,,,,,,,,,,,,0,11,11,31,,,,,,4,1,0.649807285659,,,,,,2015_Dez_09_1441,P16,PLC_L_D2S1,NHG,60.0192612545,
stim/negf.jpg,stim/posf.jpg,stim/5.jpg,stim/6.jpg,stim/latef.jpg,CD,1,2,,,,,,,,,,,,,0,12,12,28,,,,,,2,1,0.833048707904,,,,,,2015_Dez_09_1441,P16,PLC_L_D2S1,NHG,60.0192612545,
stim/negf.jpg,stim/posf.jpg,stim/3.jpg,stim/4.jpg,stim/latef.jpg,EF,2,4,,,,,,,,,,,,,0,13,13,56,,,,,,4,1,1.03298616401,,,,,,2015_Dez_09_1441,P16,PLC_L_D2S1,NHG,60.0192612545,
stim/posf.jpg,stim/negf.jpg,stim/1.jpg,stim/2.jpg,stim/latef.jpg,AB,2,4,,,,,,,,,,,,,0,14,14,12,,,,,,4,1,0.733086340704,,,,,,2015_Dez_09_1441,P16,PLC_L_D2S1,NHG,60.0192612545,
stim/negf.jpg,stim/posf.jpg,stim/4.jpg,stim/3.jpg,stim/latef.jpg,EF,1,2,,,,,,,,,,,,,0,15,15,49,,,,,,2,1,0.949684664025,,,,,,2015_Dez_09_1441,P16,PLC_L_D2S1,NHG,60.0192612545,
stim/posf.jpg,stim/negf.jpg,stim/2.jpg,stim/1.jpg,stim/latef.jpg,AB,1,2,,,,,,,,,,,,,0,16,16,1,,,,,,2,1,0.64978308133,,,,,,2015_Dez_09_1441,P16,PLC_L_D2S1,NHG,60.0192612545,
stim/posf.jpg,stim/negf.jpg,stim/2.jpg,stim/1.jpg,stim/latef.jpg,AB,1,2,,,,,,,,,,,,,0,17,17,3,,,,,,2,1,1.01632611785,,,,,,2015_Dez_09_1441,P16,PLC_L_D2S1,NHG,60.0192612545,
stim/negf.jpg,stim/posf.jpg,stim/4.jpg,stim/3.jpg,stim/latef.jpg,EF,1,2,,,,,,,,,,,,,0,18,18,48,,,,,,2,1,0.93302518327,,,,,,2015_Dez_09_1441,P16,PLC_L_D2S1,NHG,60.0192612545,
stim/posf.jpg,stim/negf.jpg,stim/3.jpg,stim/4.jpg,stim/latef.jpg,EF,2,4,,,,,,,,,,,,,0,19,19,50,,,,,,4,1,0.733136623033,,,,,,2015_Dez_09_1441,P16,PLC_L_D2S1,NHG,60.0192612545,
stim/posf.jpg,stim/negf.jpg,stim/6.jpg,stim/5.jpg,stim/latef.jpg,CD,2,4,,,,,,,,,,,,,0,20,20,34,,,,,,4,1,1.04969429703,,,,,,2015_Dez_09_1441,P16,PLC_L_D2S1,NHG,60.0192612545,
stim/posf.jpg,stim/negf.jpg,stim/5.jpg,stim/6.jpg,stim/latef.jpg,CD,1,2,,,,,,,,,,,,,0,21,21,26,,,,,,2,1,0.683046765062,,,,,,2015_Dez_09_1441,P16,PLC_L_D2S1,NHG,60.0192612545,
stim/posf.jpg,stim/negf.jpg,stim/2.jpg,stim/1.jpg,stim/latef.jpg,AB,1,2,,,,,,,,,,,,,0,22,22,2,,,,,,2,1,1.13295849806,,,,,,2015_Dez_09_1441,P16,PLC_L_D2S1,NHG,60.0192612545,
stim/posf.jpg,stim/negf.jpg,stim/1.jpg,stim/2.jpg,stim/latef.jpg,AB,2,4,,,,,,,,,,,,,0,23,23,10,,,,,,4,1,1.06628593469,,,,,,2015_Dez_09_1441,P16,PLC_L_D2S1,NHG,60.0192612545,
stim/posf.jpg,stim/negf.jpg,stim/2.jpg,stim/1.jpg,stim/latef.jpg,AB,1,2,,,,,,,,,,,,,0,24,24,7,,,,,,2,1,1.01633281254,,,,,,2015_Dez_09_1441,P16,PLC_L_D2S1,NHG,60.0192612545,
stim/posf.jpg,stim/negf.jpg,stim/2.jpg,stim/1.jpg,stim/latef.jpg,AB,1,2,,,,,,,,,,,,,0,25,25,6,,,,,,2,1,1.31622713213,,,,,,2015_Dez_09_1441,P16,PLC_L_D2S1,NHG,60.0192612545,
stim/negf.jpg,stim/posf.jpg,stim/3.jpg,stim/4.jpg,stim/latef.jpg,EF,2,4,,,,,,,,,,,,,0,26,26,57,,,,,,4,1,1.46617284081,,,,,,2015_Dez_09_1441,P16,PLC_L_D2S1,NHG,60.0192612545,
stim/posf.jpg,stim/negf.jpg,stim/6.jpg,stim/5.jpg,stim/latef.jpg,CD,2,4,,,,,,,,,,,,,0,27,27,30,,,,,,4,1,0.79971844723,,,,,,2015_Dez_09_1441,P16,PLC_L_D2S1,NHG,60.0192612545,
stim/negf.jpg,stim/posf.jpg,stim/2.jpg,stim/1.jpg,stim/latef.jpg,AB,1,2,,,,,,,,,,,,,0,28,28,8,,,,,,2,1,0.833068981437,,,,,,2015_Dez_09_1441,P16,PLC_L_D2S1,NHG,60.0192612545,
stim/posf.jpg,stim/negf.jpg,stim/1.jpg,stim/2.jpg,stim/latef.jpg,AB,2,4,,,,,,,,,,,,,0,29,29,17,,,,,,4,1,1.16628743543,,,,,,2015_Dez_09_1441,P16,PLC_L_D2S1,NHG,60.0192612545,
stim/posf.jpg,stim/negf.jpg,stim/6.jpg,stim/5.jpg,stim/latef.jpg,CD,2,4,,,,,,,,,,,,,0,30,30,33,,,,,,4,1,0.83305382967,,,,,,2015_Dez_09_1441,P16,PLC_L_D2S1,NHG,60.0192612545,
stim/posf.jpg,stim/negf.jpg,stim/4.jpg,stim/3.jpg,stim/latef.jpg,EF,1,2,,,,,,,,,,,,,0,31,31,40,,,,,,4,0,0.983057309344,,,,,,2015_Dez_09_1441,P16,PLC_L_D2S1,NHG,60.0192612545,
stim/posf.jpg,stim/negf.jpg,stim/5.jpg,stim/6.jpg,stim/latef.jpg,CD,1,2,,,,,,,,,,,,,0,32,32,21,,,,,,2,1,0.883035348606,,,,,,2015_Dez_09_1441,P16,PLC_L_D2S1,NHG,60.0192612545,
stim/posf.jpg,stim/negf.jpg,stim/1.jpg,stim/2.jpg,stim/latef.jpg,AB,2,4,,,,,,,,,,,,,0,33,33,14,,,,,,4,1,0.54981361644,,,,,,2015_Dez_09_1441,P16,PLC_L_D2S1,NHG,60.0192612545,
stim/negf.jpg,stim/posf.jpg,stim/1.jpg,stim/2.jpg,stim/latef.jpg,AB,2,4,,,,,,,,,,,,,0,34,34,19,,,,,,4,1,0.616517313403,,,,,,2015_Dez_09_1441,P16,PLC_L_D2S1,NHG,60.0192612545,
stim/negf.jpg,stim/posf.jpg,stim/4.jpg,stim/3.jpg,stim/latef.jpg,EF,1,2,,,,,,,,,,,,,0,35,35,47,,,,,,2,1,0.88305034699,,,,,,2015_Dez_09_1441,P16,PLC_L_D2S1,NHG,60.0192612545,
stim/posf.jpg,stim/negf.jpg,stim/2.jpg,stim/1.jpg,stim/latef.jpg,AB,1,2,,,,,,,,,,,,,0,36,36,0,,,,,,2,1,1.13298309938,,,,,,2015_Dez_09_1441,P16,PLC_L_D2S1,NHG,60.0192612545,
stim/posf.jpg,stim/negf.jpg,stim/6.jpg,stim/5.jpg,stim/latef.jpg,CD,2,4,,,,,,,,,,,,,0,37,37,35,,,,,,4,1,1.01634927858,,,,,,2015_Dez_09_1441,P16,PLC_L_D2S1,NHG,60.0192612545,
stim/posf.jpg,stim/negf.jpg,stim/5.jpg,stim/6.jpg,stim/latef.jpg,CD,1,2,,,,,,,,,,,,,0,38,38,25,,,,,,2,1,0.816392890279,,,,,,2015_Dez_09_1441,P16,PLC_L_D2S1,NHG,60.0192612545,
stim/negf.jpg,stim/posf.jpg,stim/4.jpg,stim/3.jpg,stim/latef.jpg,EF,1,2,,,,,,,,,,,,,0,39,39,46,,,,,,4,0,1.08297082578,,,,,,2015_Dez_09_1441,P16,PLC_L_D2S1,NHG,60.0192612545,
stim/negf.jpg,stim/posf.jpg,stim/6.jpg,stim/5.jpg,stim/latef.jpg,CD,2,4,,,,,,,,,,,,,0,40,40,38,,,,,,4,1,1.1163048338,,,,,,2015_Dez_09_1441,P16,PLC_L_D2S1,NHG,60.0192612545,
stim/posf.jpg,stim/negf.jpg,stim/5.jpg,stim/6.jpg,stim/latef.jpg,CD,1,2,,,,,,,,,,,,,0,41,41,22,,,,,,2,1,0.733062945392,,,,,,2015_Dez_09_1441,P16,PLC_L_D2S1,NHG,60.0192612545,
stim/posf.jpg,stim/negf.jpg,stim/2.jpg,stim/1.jpg,stim/latef.jpg,AB,1,2,,,,,,,,,,,,,0,42,42,4,,,,,,2,1,0.94970977361,,,,,,2015_Dez_09_1441,P16,PLC_L_D2S1,NHG,60.0192612545,
stim/posf.jpg,stim/negf.jpg,stim/3.jpg,stim/4.jpg,stim/latef.jpg,EF,2,4,,,,,,,,,,,,,0,43,43,52,,,,,,4,1,1.14964415606,,,,,,2015_Dez_09_1441,P16,PLC_L_D2S1,NHG,60.0192612545,
stim/posf.jpg,stim/negf.jpg,stim/4.jpg,stim/3.jpg,stim/latef.jpg,EF,1,2,,,,,,,,,,,,,0,44,44,44,,,,,,2,1,0.599798825573,,,,,,2015_Dez_09_1441,P16,PLC_L_D2S1,NHG,60.0192612545,
stim/posf.jpg,stim/negf.jpg,stim/2.jpg,stim/1.jpg,stim/latef.jpg,AB,1,2,,,,,,,,,,,,,0,45,45,5,,,,,,2,1,1.09964895903,,,,,,2015_Dez_09_1441,P16,PLC_L_D2S1,NHG,60.0192612545,
stim/posf.jpg,stim/negf.jpg,stim/4.jpg,stim/3.jpg,stim/latef.jpg,EF,1,2,,,,,,,,,,,,,0,46,46,42,,,,,,2,1,0.649809595417,,,,,,2015_Dez_09_1441,P16,PLC_L_D2S1,NHG,60.0192612545,
stim/posf.jpg,stim/negf.jpg,stim/3.jpg,stim/4.jpg,stim/latef.jpg,EF,2,4,,,,,,,,,,,,,0,47,47,54,,,,,,4,1,0.699776302434,,,,,,2015_Dez_09_1441,P16,PLC_L_D2S1,NHG,60.0192612545,
stim/posf.jpg,stim/negf.jpg,stim/3.jpg,stim/4.jpg,stim/latef.jpg,EF,2,4,,,,,,,,,,,,,0,48,48,55,,,,,,4,1,0.616459776994,,,,,,2015_Dez_09_1441,P16,PLC_L_D2S1,NHG,60.0192612545,
stim/negf.jpg,stim/posf.jpg,stim/6.jpg,stim/5.jpg,stim/latef.jpg,CD,2,4,,,,,,,,,,,,,0,49,49,39,,,,,,4,1,0.716424300569,,,,,,2015_Dez_09_1441,P16,PLC_L_D2S1,NHG,60.0192612545,
stim/posf.jpg,stim/negf.jpg,stim/5.jpg,stim/6.jpg,stim/latef.jpg,CD,1,2,,,,,,,,,,,,,0,50,50,20,,,,,,2,1,0.81639612033,,,,,,2015_Dez_09_1441,P16,PLC_L_D2S1,NHG,60.0192612545,
stim/posf.jpg,stim/negf.jpg,stim/3.jpg,stim/4.jpg,stim/latef.jpg,EF,2,4,,,,,,,,,,,,,0,51,51,53,,,,,,4,1,0.766425350185,,,,,,2015_Dez_09_1441,P16,PLC_L_D2S1,NHG,60.0192612545,
stim/posf.jpg,stim/negf.jpg,stim/6.jpg,stim/5.jpg,stim/latef.jpg,CD,2,4,,,,,,,,,,,,,0,52,52,32,,,,,,4,1,1.01458840761,,,,,,2015_Dez_09_1441,P16,PLC_L_D2S1,NHG,60.0192612545,
stim/posf.jpg,stim/negf.jpg,stim/6.jpg,stim/5.jpg,stim/latef.jpg,CD,2,4,,,,,,,,,,,,,0,53,53,36,,,,,,4,1,1.11625294847,,,,,,2015_Dez_09_1441,P16,PLC_L_D2S1,NHG,60.0192612545,
stim/negf.jpg,stim/posf.jpg,stim/3.jpg,stim/4.jpg,stim/latef.jpg,EF,2,4,,,,,,,,,,,,,0,54,54,59,,,,,,4,1,0.983013685611,,,,,,2015_Dez_09_1441,P16,PLC_L_D2S1,NHG,60.0192612545,
stim/negf.jpg,stim/posf.jpg,stim/2.jpg,stim/1.jpg,stim/latef.jpg,AB,1,2,,,,,,,,,,,,,0,55,55,9,,,,,,2,1,1.26626533034,,,,,,2015_Dez_09_1441,P16,PLC_L_D2S1,NHG,60.0192612545,
stim/posf.jpg,stim/negf.jpg,stim/5.jpg,stim/6.jpg,stim/latef.jpg,CD,1,2,,,,,,,,,,,,,0,56,56,23,,,,,,2,1,0.749756326644,,,,,,2015_Dez_09_1441,P16,PLC_L_D2S1,NHG,60.0192612545,
stim/negf.jpg,stim/posf.jpg,stim/5.jpg,stim/6.jpg,stim/latef.jpg,CD,1,2,,,,,,,,,,,,,0,57,57,27,,,,,,2,1,0.633115772062,,,,,,2015_Dez_09_1441,P16,PLC_L_D2S1,NHG,60.0192612545,
stim/posf.jpg,stim/negf.jpg,stim/1.jpg,stim/2.jpg,stim/latef.jpg,AB,2,4,,,,,,,,,,,,,0,58,58,15,,,,,,4,1,0.799749529702,,,,,,2015_Dez_09_1441,P16,PLC_L_D2S1,NHG,60.0192612545,
stim/posf.jpg,stim/negf.jpg,stim/5.jpg,stim/6.jpg,stim/latef.jpg,CD,1,2,,,,,,,,,,,,,0,59,59,24,,,,,,2,1,0.766384788084,,,,,,2015_Dez_09_1441,P16,PLC_L_D2S1,NHG,60.0192612545,
