fb_corr,fb_incorr,symbol2,symbol1,fb_late,pair,position,correct,block_01.thisRepN,block_01.thisTrialN,block_01.thisN,block_01.thisIndex,block_02.thisRepN,block_02.thisTrialN,block_02.thisN,block_02.thisIndex,block_03.thisRepN,block_03.thisTrialN,block_03.thisN,block_03.thisIndex,block_04.thisRepN,block_04.thisTrialN,block_04.thisN,block_04.thisIndex,mouse.x,mouse.y,mouse.leftButton,mouse.midButton,mouse.rightButton,buttonBox_2.keys,buttonBox_2.corr,buttonBox_2.rt,mouse_2.x,mouse_2.y,mouse_2.leftButton,mouse_2.midButton,mouse_2.rightButton,date,Participant,expName,Group,frameRate,
,,,,,,,,,,,,,,,,,,,,,,,,0.9984375,1.0,1,0,0,,,,,,,,,2015_Nov_04_1352,P1,PLC_L_D2S1,NHG,60.012293674,
stim/posf.jpg,stim/negf.jpg,stim/4.jpg,stim/6.jpg,stim/latef.jpg,CD,1,2,0,0,0,21,,,,,,,,,,,,,,,,,,4,0,0.833111158561,,,,,,2015_Nov_04_1352,P1,PLC_L_D2S1,NHG,60.012293674,
stim/posf.jpg,stim/negf.jpg,stim/3.jpg,stim/5.jpg,stim/latef.jpg,AB,1,2,0,1,1,3,,,,,,,,,,,,,,,,,,4,0,0.816412249533,,,,,,2015_Nov_04_1352,P1,PLC_L_D2S1,NHG,60.012293674,
stim/posf.jpg,stim/negf.jpg,stim/6.jpg,stim/4.jpg,stim/latef.jpg,CD,2,4,0,2,2,34,,,,,,,,,,,,,,,,,,4,1,0.833067044608,,,,,,2015_Nov_04_1352,P1,PLC_L_D2S1,NHG,60.012293674,
stim/posf.jpg,stim/negf.jpg,stim/3.jpg,stim/5.jpg,stim/latef.jpg,AB,1,2,0,3,3,1,,,,,,,,,,,,,,,,,,4,0,1.08296952053,,,,,,2015_Nov_04_1352,P1,PLC_L_D2S1,NHG,60.012293674,
stim/posf.jpg,stim/negf.jpg,stim/3.jpg,stim/5.jpg,stim/latef.jpg,AB,1,2,0,4,4,2,,,,,,,,,,,,,,,,,,4,0,0.899682742234,,,,,,2015_Nov_04_1352,P1,PLC_L_D2S1,NHG,60.012293674,
stim/posf.jpg,stim/negf.jpg,stim/6.jpg,stim/4.jpg,stim/latef.jpg,CD,2,4,0,5,5,35,,,,,,,,,,,,,,,,,,4,1,0.883020130677,,,,,,2015_Nov_04_1352,P1,PLC_L_D2S1,NHG,60.012293674,
stim/posf.jpg,stim/negf.jpg,stim/4.jpg,stim/6.jpg,stim/latef.jpg,CD,1,2,0,6,6,25,,,,,,,,,,,,,,,,,,2,1,0.74974457335,,,,,,2015_Nov_04_1352,P1,PLC_L_D2S1,NHG,60.012293674,
stim/posf.jpg,stim/negf.jpg,stim/2.jpg,stim/1.jpg,stim/latef.jpg,EF,2,4,0,7,7,53,,,,,,,,,,,,,,,,,,2,0,0.999669960376,,,,,,2015_Nov_04_1352,P1,PLC_L_D2S1,NHG,60.012293674,
stim/posf.jpg,stim/negf.jpg,stim/3.jpg,stim/5.jpg,stim/latef.jpg,AB,1,2,0,8,8,4,,,,,,,,,,,,,,,,,,4,0,0.983030302028,,,,,,2015_Nov_04_1352,P1,PLC_L_D2S1,NHG,60.012293674,
stim/negf.jpg,stim/posf.jpg,stim/4.jpg,stim/6.jpg,stim/latef.jpg,CD,1,2,0,9,9,29,,,,,,,,,,,,,,,,,,2,1,0.933013327722,,,,,,2015_Nov_04_1352,P1,PLC_L_D2S1,NHG,60.012293674,
stim/negf.jpg,stim/posf.jpg,stim/5.jpg,stim/3.jpg,stim/latef.jpg,AB,2,4,0,10,10,18,,,,,,,,,,,,,,,,,,4,1,0.88304336659,,,,,,2015_Nov_04_1352,P1,PLC_L_D2S1,NHG,60.012293674,
stim/negf.jpg,stim/posf.jpg,stim/2.jpg,stim/1.jpg,stim/latef.jpg,EF,2,4,0,11,11,57,,,,,,,,,,,,,,,,,,2,0,0.833050356014,,,,,,2015_Nov_04_1352,P1,PLC_L_D2S1,NHG,60.012293674,
stim/negf.jpg,stim/posf.jpg,stim/2.jpg,stim/1.jpg,stim/latef.jpg,EF,2,4,0,12,12,56,,,,,,,,,,,,,,,,,,2,0,0.583141750813,,,,,,2015_Nov_04_1352,P1,PLC_L_D2S1,NHG,60.012293674,
stim/posf.jpg,stim/negf.jpg,stim/3.jpg,stim/5.jpg,stim/latef.jpg,AB,1,2,0,13,13,7,,,,,,,,,,,,,,,,,,2,1,0.966337555357,,,,,,2015_Nov_04_1352,P1,PLC_L_D2S1,NHG,60.012293674,
stim/posf.jpg,stim/negf.jpg,stim/5.jpg,stim/3.jpg,stim/latef.jpg,AB,2,4,0,14,14,16,,,,,,,,,,,,,,,,,,4,1,0.849601813523,,,,,,2015_Nov_04_1352,P1,PLC_L_D2S1,NHG,60.012293674,
stim/negf.jpg,stim/posf.jpg,stim/1.jpg,stim/2.jpg,stim/latef.jpg,EF,1,2,0,15,15,47,,,,,,,,,,,,,,,,,,4,0,1.01638676401,,,,,,2015_Nov_04_1352,P1,PLC_L_D2S1,NHG,60.012293674,
stim/posf.jpg,stim/negf.jpg,stim/3.jpg,stim/5.jpg,stim/latef.jpg,AB,1,2,0,16,16,5,,,,,,,,,,,,,,,,,,4,0,0.766411867582,,,,,,2015_Nov_04_1352,P1,PLC_L_D2S1,NHG,60.012293674,
stim/posf.jpg,stim/negf.jpg,stim/5.jpg,stim/3.jpg,stim/latef.jpg,AB,2,4,0,17,17,11,,,,,,,,,,,,,,,,,,4,1,1.01625161615,,,,,,2015_Nov_04_1352,P1,PLC_L_D2S1,NHG,60.012293674,
stim/negf.jpg,stim/posf.jpg,stim/2.jpg,stim/1.jpg,stim/latef.jpg,EF,2,4,0,18,18,59,,,,,,,,,,,,,,,,,,4,1,0.899689761733,,,,,,2015_Nov_04_1352,P1,PLC_L_D2S1,NHG,60.012293674,
stim/posf.jpg,stim/negf.jpg,stim/2.jpg,stim/1.jpg,stim/latef.jpg,EF,2,4,0,19,19,54,,,,,,,,,,,,,,,,,,4,1,0.899695274471,,,,,,2015_Nov_04_1352,P1,PLC_L_D2S1,NHG,60.012293674,
stim/posf.jpg,stim/negf.jpg,stim/1.jpg,stim/2.jpg,stim/latef.jpg,EF,1,2,0,20,20,45,,,,,,,,,,,,,,,,,,2,1,0.899746425966,,,,,,2015_Nov_04_1352,P1,PLC_L_D2S1,NHG,60.012293674,
stim/posf.jpg,stim/negf.jpg,stim/2.jpg,stim/1.jpg,stim/latef.jpg,EF,2,4,0,21,21,51,,,,,,,,,,,,,,,,,,4,1,0.699788693317,,,,,,2015_Nov_04_1352,P1,PLC_L_D2S1,NHG,60.012293674,
stim/posf.jpg,stim/negf.jpg,stim/3.jpg,stim/5.jpg,stim/latef.jpg,AB,1,2,0,22,22,0,,,,,,,,,,,,,,,,,,2,1,1.06631504124,,,,,,2015_Nov_04_1352,P1,PLC_L_D2S1,NHG,60.012293674,
stim/negf.jpg,stim/posf.jpg,stim/2.jpg,stim/1.jpg,stim/latef.jpg,EF,2,4,0,23,23,58,,,,,,,,,,,,,,,,,,4,1,1.06629246096,,,,,,2015_Nov_04_1352,P1,PLC_L_D2S1,NHG,60.012293674,
stim/posf.jpg,stim/negf.jpg,stim/5.jpg,stim/3.jpg,stim/latef.jpg,AB,2,4,0,24,24,13,,,,,,,,,,,,,,,,,,4,1,0.999679876091,,,,,,2015_Nov_04_1352,P1,PLC_L_D2S1,NHG,60.012293674,
stim/posf.jpg,stim/negf.jpg,stim/1.jpg,stim/2.jpg,stim/latef.jpg,EF,1,2,0,25,25,42,,,,,,,,,,,,,,,,,,4,0,1.21629794663,,,,,,2015_Nov_04_1352,P1,PLC_L_D2S1,NHG,60.012293674,
stim/posf.jpg,stim/negf.jpg,stim/5.jpg,stim/3.jpg,stim/latef.jpg,AB,2,4,0,26,26,12,,,,,,,,,,,,,,,,,,4,1,0.883045318456,,,,,,2015_Nov_04_1352,P1,PLC_L_D2S1,NHG,60.012293674,
stim/posf.jpg,stim/negf.jpg,stim/5.jpg,stim/3.jpg,stim/latef.jpg,AB,2,4,0,27,27,14,,,,,,,,,,,,,,,,,,4,1,0.99969128954,,,,,,2015_Nov_04_1352,P1,PLC_L_D2S1,NHG,60.012293674,
stim/posf.jpg,stim/negf.jpg,stim/2.jpg,stim/1.jpg,stim/latef.jpg,EF,2,4,0,28,28,52,,,,,,,,,,,,,,,,,,4,1,0.74973906963,,,,,,2015_Nov_04_1352,P1,PLC_L_D2S1,NHG,60.012293674,
stim/posf.jpg,stim/negf.jpg,stim/5.jpg,stim/3.jpg,stim/latef.jpg,AB,2,4,0,29,29,10,,,,,,,,,,,,,,,,,,4,1,0.783080686611,,,,,,2015_Nov_04_1352,P1,PLC_L_D2S1,NHG,60.012293674,
stim/posf.jpg,stim/negf.jpg,stim/4.jpg,stim/6.jpg,stim/latef.jpg,CD,1,2,0,30,30,22,,,,,,,,,,,,,,,,,,4,0,0.949694988758,,,,,,2015_Nov_04_1352,P1,PLC_L_D2S1,NHG,60.012293674,
stim/posf.jpg,stim/negf.jpg,stim/6.jpg,stim/4.jpg,stim/latef.jpg,CD,2,4,0,31,31,36,,,,,,,,,,,,,,,,,,4,1,0.599738302721,,,,,,2015_Nov_04_1352,P1,PLC_L_D2S1,NHG,60.012293674,
stim/negf.jpg,stim/posf.jpg,stim/1.jpg,stim/2.jpg,stim/latef.jpg,EF,1,2,0,32,32,48,,,,,,,,,,,,,,,,,,2,1,0.749741680138,,,,,,2015_Nov_04_1352,P1,PLC_L_D2S1,NHG,60.012293674,
stim/negf.jpg,stim/posf.jpg,stim/4.jpg,stim/6.jpg,stim/latef.jpg,CD,1,2,0,33,33,28,,,,,,,,,,,,,,,,,,4,0,0.499808416476,,,,,,2015_Nov_04_1352,P1,PLC_L_D2S1,NHG,60.012293674,
stim/posf.jpg,stim/negf.jpg,stim/5.jpg,stim/3.jpg,stim/latef.jpg,AB,2,4,0,34,34,15,,,,,,,,,,,,,,,,,,4,1,0.399868560387,,,,,,2015_Nov_04_1352,P1,PLC_L_D2S1,NHG,60.012293674,
stim/negf.jpg,stim/posf.jpg,stim/1.jpg,stim/2.jpg,stim/latef.jpg,EF,1,2,0,35,35,46,,,,,,,,,,,,,,,,,,4,0,0.433189398576,,,,,,2015_Nov_04_1352,P1,PLC_L_D2S1,NHG,60.012293674,
stim/posf.jpg,stim/negf.jpg,stim/2.jpg,stim/1.jpg,stim/latef.jpg,EF,2,4,0,36,36,55,,,,,,,,,,,,,,,,,,4,1,0.516497894001,,,,,,2015_Nov_04_1352,P1,PLC_L_D2S1,NHG,60.012293674,
stim/posf.jpg,stim/negf.jpg,stim/6.jpg,stim/4.jpg,stim/latef.jpg,CD,2,4,0,37,37,33,,,,,,,,,,,,,,,,,,4,1,0.566549779323,,,,,,2015_Nov_04_1352,P1,PLC_L_D2S1,NHG,60.012293674,
stim/posf.jpg,stim/negf.jpg,stim/4.jpg,stim/6.jpg,stim/latef.jpg,CD,1,2,0,38,38,20,,,,,,,,,,,,,,,,,,4,0,0.44980920745,,,,,,2015_Nov_04_1352,P1,PLC_L_D2S1,NHG,60.012293674,
stim/posf.jpg,stim/negf.jpg,stim/4.jpg,stim/6.jpg,stim/latef.jpg,CD,1,2,0,39,39,23,,,,,,,,,,,,,,,,,,2,1,0.399870214511,,,,,,2015_Nov_04_1352,P1,PLC_L_D2S1,NHG,60.012293674,
stim/negf.jpg,stim/posf.jpg,stim/6.jpg,stim/4.jpg,stim/latef.jpg,CD,2,4,0,40,40,38,,,,,,,,,,,,,,,,,,2,0,0.649778088886,,,,,,2015_Nov_04_1352,P1,PLC_L_D2S1,NHG,60.012293674,
stim/posf.jpg,stim/negf.jpg,stim/1.jpg,stim/2.jpg,stim/latef.jpg,EF,1,2,0,41,41,43,,,,,,,,,,,,,,,,,,2,1,0.533154658988,,,,,,2015_Nov_04_1352,P1,PLC_L_D2S1,NHG,60.012293674,
stim/posf.jpg,stim/negf.jpg,stim/4.jpg,stim/6.jpg,stim/latef.jpg,CD,1,2,0,42,42,24,,,,,,,,,,,,,,,,,,2,1,0.516446862803,,,,,,2015_Nov_04_1352,P1,PLC_L_D2S1,NHG,60.012293674,
stim/negf.jpg,stim/posf.jpg,stim/6.jpg,stim/4.jpg,stim/latef.jpg,CD,2,4,0,43,43,39,,,,,,,,,,,,,,,,,,2,0,0.566481821941,,,,,,2015_Nov_04_1352,P1,PLC_L_D2S1,NHG,60.012293674,
stim/negf.jpg,stim/posf.jpg,stim/3.jpg,stim/5.jpg,stim/latef.jpg,AB,1,2,0,44,44,9,,,,,,,,,,,,,,,,,,2,1,0.633117606634,,,,,,2015_Nov_04_1352,P1,PLC_L_D2S1,NHG,60.012293674,
stim/posf.jpg,stim/negf.jpg,stim/6.jpg,stim/4.jpg,stim/latef.jpg,CD,2,4,0,45,45,32,,,,,,,,,,,,,,,,,,4,1,0.599731193,,,,,,2015_Nov_04_1352,P1,PLC_L_D2S1,NHG,60.012293674,
stim/posf.jpg,stim/negf.jpg,stim/5.jpg,stim/3.jpg,stim/latef.jpg,AB,2,4,0,46,46,17,,,,,,,,,,,,,,,,,,4,1,0.649780780594,,,,,,2015_Nov_04_1352,P1,PLC_L_D2S1,NHG,60.012293674,
stim/negf.jpg,stim/posf.jpg,stim/4.jpg,stim/6.jpg,stim/latef.jpg,CD,1,2,0,47,47,27,,,,,,,,,,,,,,,,,,4,0,0.699782308402,,,,,,2015_Nov_04_1352,P1,PLC_L_D2S1,NHG,60.012293674,
stim/negf.jpg,stim/posf.jpg,stim/1.jpg,stim/2.jpg,stim/latef.jpg,EF,1,2,0,48,48,49,,,,,,,,,,,,,,,,,,2,1,0.766418905121,,,,,,2015_Nov_04_1352,P1,PLC_L_D2S1,NHG,60.012293674,
stim/posf.jpg,stim/negf.jpg,stim/1.jpg,stim/2.jpg,stim/latef.jpg,EF,1,2,0,49,49,40,,,,,,,,,,,,,,,,,,4,0,0.433177521973,,,,,,2015_Nov_04_1352,P1,PLC_L_D2S1,NHG,60.012293674,
stim/posf.jpg,stim/negf.jpg,stim/2.jpg,stim/1.jpg,stim/latef.jpg,EF,2,4,0,50,50,50,,,,,,,,,,,,,,,,,,2,0,0.399884851995,,,,,,2015_Nov_04_1352,P1,PLC_L_D2S1,NHG,60.012293674,
stim/posf.jpg,stim/negf.jpg,stim/6.jpg,stim/4.jpg,stim/latef.jpg,CD,2,4,0,51,51,31,,,,,,,,,,,,,,,,,,4,1,0.466511764575,,,,,,2015_Nov_04_1352,P1,PLC_L_D2S1,NHG,60.012293674,
stim/posf.jpg,stim/negf.jpg,stim/1.jpg,stim/2.jpg,stim/latef.jpg,EF,1,2,0,52,52,44,,,,,,,,,,,,,,,,,,4,0,0.499799309782,,,,,,2015_Nov_04_1352,P1,PLC_L_D2S1,NHG,60.012293674,
stim/posf.jpg,stim/negf.jpg,stim/6.jpg,stim/4.jpg,stim/latef.jpg,CD,2,4,0,53,53,30,,,,,,,,,,,,,,,,,,2,0,0.349879949772,,,,,,2015_Nov_04_1352,P1,PLC_L_D2S1,NHG,60.012293674,
stim/posf.jpg,stim/negf.jpg,stim/4.jpg,stim/6.jpg,stim/latef.jpg,CD,1,2,0,54,54,26,,,,,,,,,,,,,,,,,,2,1,0.849778341515,,,,,,2015_Nov_04_1352,P1,PLC_L_D2S1,NHG,60.012293674,
stim/negf.jpg,stim/posf.jpg,stim/3.jpg,stim/5.jpg,stim/latef.jpg,AB,1,2,0,55,55,8,,,,,,,,,,,,,,,,,,2,1,0.999669674664,,,,,,2015_Nov_04_1352,P1,PLC_L_D2S1,NHG,60.012293674,
stim/negf.jpg,stim/posf.jpg,stim/6.jpg,stim/4.jpg,stim/latef.jpg,CD,2,4,0,56,56,37,,,,,,,,,,,,,,,,,,4,1,0.699821432921,,,,,,2015_Nov_04_1352,P1,PLC_L_D2S1,NHG,60.012293674,
stim/posf.jpg,stim/negf.jpg,stim/1.jpg,stim/2.jpg,stim/latef.jpg,EF,1,2,0,57,57,41,,,,,,,,,,,,,,,,,,4,0,0.916358280014,,,,,,2015_Nov_04_1352,P1,PLC_L_D2S1,NHG,60.012293674,
stim/negf.jpg,stim/posf.jpg,stim/5.jpg,stim/3.jpg,stim/latef.jpg,AB,2,4,0,58,58,19,,,,,,,,,,,,,,,,,,4,1,0.733071955852,,,,,,2015_Nov_04_1352,P1,PLC_L_D2S1,NHG,60.012293674,
stim/posf.jpg,stim/negf.jpg,stim/3.jpg,stim/5.jpg,stim/latef.jpg,AB,1,2,0,59,59,6,,,,,,,,,,,,,,,,,,4,0,0.433206463109,,,,,,2015_Nov_04_1352,P1,PLC_L_D2S1,NHG,60.012293674,
,,,,,,,,,,,,,,,,,,,,,,,,,,,,,,,,0.9984375,1.0,1,0,0,2015_Nov_04_1352,P1,PLC_L_D2S1,NHG,60.012293674,
stim/posf.jpg,stim/negf.jpg,stim/2.jpg,stim/1.jpg,stim/latef.jpg,EF,2,4,,,,,0,0,0,55,,,,,,,,,,,,,,4,1,0.666471596454,,,,,,2015_Nov_04_1352,P1,PLC_L_D2S1,NHG,60.012293674,
stim/posf.jpg,stim/negf.jpg,stim/3.jpg,stim/5.jpg,stim/latef.jpg,AB,1,2,,,,,0,1,1,1,,,,,,,,,,,,,,4,0,0.633136574914,,,,,,2015_Nov_04_1352,P1,PLC_L_D2S1,NHG,60.012293674,
stim/negf.jpg,stim/posf.jpg,stim/2.jpg,stim/1.jpg,stim/latef.jpg,EF,2,4,,,,,0,2,2,56,,,,,,,,,,,,,,2,0,0.349864431097,,,,,,2015_Nov_04_1352,P1,PLC_L_D2S1,NHG,60.012293674,
stim/posf.jpg,stim/negf.jpg,stim/5.jpg,stim/3.jpg,stim/latef.jpg,AB,2,4,,,,,0,3,3,14,,,,,,,,,,,,,,2,0,0.349878109188,,,,,,2015_Nov_04_1352,P1,PLC_L_D2S1,NHG,60.012293674,
stim/posf.jpg,stim/negf.jpg,stim/2.jpg,stim/1.jpg,stim/latef.jpg,EF,2,4,,,,,0,4,4,54,,,,,,,,,,,,,,4,1,0.366553054489,,,,,,2015_Nov_04_1352,P1,PLC_L_D2S1,NHG,60.012293674,
stim/negf.jpg,stim/posf.jpg,stim/5.jpg,stim/3.jpg,stim/latef.jpg,AB,2,4,,,,,0,5,5,19,,,,,,,,,,,,,,2,0,0.399879736244,,,,,,2015_Nov_04_1352,P1,PLC_L_D2S1,NHG,60.012293674,
stim/negf.jpg,stim/posf.jpg,stim/2.jpg,stim/1.jpg,stim/latef.jpg,EF,2,4,,,,,0,6,6,57,,,,,,,,,,,,,,2,0,0.616472655092,,,,,,2015_Nov_04_1352,P1,PLC_L_D2S1,NHG,60.012293674,
stim/posf.jpg,stim/negf.jpg,stim/5.jpg,stim/3.jpg,stim/latef.jpg,AB,2,4,,,,,0,7,7,13,,,,,,,,,,,,,,2,0,0.383220781801,,,,,,2015_Nov_04_1352,P1,PLC_L_D2S1,NHG,60.012293674,
stim/negf.jpg,stim/posf.jpg,stim/3.jpg,stim/5.jpg,stim/latef.jpg,AB,1,2,,,,,0,8,8,9,,,,,,,,,,,,,,4,0,0.449849865792,,,,,,2015_Nov_04_1352,P1,PLC_L_D2S1,NHG,60.012293674,
stim/posf.jpg,stim/negf.jpg,stim/4.jpg,stim/6.jpg,stim/latef.jpg,CD,1,2,,,,,0,9,9,25,,,,,,,,,,,,,,4,0,0.316493268474,,,,,,2015_Nov_04_1352,P1,PLC_L_D2S1,NHG,60.012293674,
stim/negf.jpg,stim/posf.jpg,stim/2.jpg,stim/1.jpg,stim/latef.jpg,EF,2,4,,,,,0,10,10,58,,,,,,,,,,,,,,2,0,0.316632680959,,,,,,2015_Nov_04_1352,P1,PLC_L_D2S1,NHG,60.012293674,
stim/negf.jpg,stim/posf.jpg,stim/1.jpg,stim/2.jpg,stim/latef.jpg,EF,1,2,,,,,0,11,11,46,,,,,,,,,,,,,,2,1,0.483164698009,,,,,,2015_Nov_04_1352,P1,PLC_L_D2S1,NHG,60.012293674,
stim/posf.jpg,stim/negf.jpg,stim/5.jpg,stim/3.jpg,stim/latef.jpg,AB,2,4,,,,,0,12,12,15,,,,,,,,,,,,,,4,1,0.316552651482,,,,,,2015_Nov_04_1352,P1,PLC_L_D2S1,NHG,60.012293674,
stim/posf.jpg,stim/negf.jpg,stim/3.jpg,stim/5.jpg,stim/latef.jpg,AB,1,2,,,,,0,13,13,7,,,,,,,,,,,,,,4,0,0.366538714745,,,,,,2015_Nov_04_1352,P1,PLC_L_D2S1,NHG,60.012293674,
stim/negf.jpg,stim/posf.jpg,stim/6.jpg,stim/4.jpg,stim/latef.jpg,CD,2,4,,,,,0,14,14,39,,,,,,,,,,,,,,2,0,0.383208002946,,,,,,2015_Nov_04_1352,P1,PLC_L_D2S1,NHG,60.012293674,
stim/posf.jpg,stim/negf.jpg,stim/3.jpg,stim/5.jpg,stim/latef.jpg,AB,1,2,,,,,0,15,15,2,,,,,,,,,,,,,,4,0,0.266569177675,,,,,,2015_Nov_04_1352,P1,PLC_L_D2S1,NHG,60.012293674,
stim/posf.jpg,stim/negf.jpg,stim/2.jpg,stim/1.jpg,stim/latef.jpg,EF,2,4,,,,,0,16,16,52,,,,,,,,,,,,,,2,0,0.316498907527,,,,,,2015_Nov_04_1352,P1,PLC_L_D2S1,NHG,60.012293674,
stim/posf.jpg,stim/negf.jpg,stim/4.jpg,stim/6.jpg,stim/latef.jpg,CD,1,2,,,,,0,17,17,24,,,,,,,,,,,,,,4,0,0.333194457184,,,,,,2015_Nov_04_1352,P1,PLC_L_D2S1,NHG,60.012293674,
stim/posf.jpg,stim/negf.jpg,stim/1.jpg,stim/2.jpg,stim/latef.jpg,EF,1,2,,,,,0,18,18,45,,,,,,,,,,,,,,2,1,0.316564549139,,,,,,2015_Nov_04_1352,P1,PLC_L_D2S1,NHG,60.012293674,
stim/posf.jpg,stim/negf.jpg,stim/5.jpg,stim/3.jpg,stim/latef.jpg,AB,2,4,,,,,0,19,19,10,,,,,,,,,,,,,,4,1,0.466503728545,,,,,,2015_Nov_04_1352,P1,PLC_L_D2S1,NHG,60.012293674,
stim/posf.jpg,stim/negf.jpg,stim/5.jpg,stim/3.jpg,stim/latef.jpg,AB,2,4,,,,,0,20,20,16,,,,,,,,,,,,,,4,1,0.383254228163,,,,,,2015_Nov_04_1352,P1,PLC_L_D2S1,NHG,60.012293674,
stim/posf.jpg,stim/negf.jpg,stim/4.jpg,stim/6.jpg,stim/latef.jpg,CD,1,2,,,,,0,21,21,22,,,,,,,,,,,,,,4,0,0.299928953918,,,,,,2015_Nov_04_1352,P1,PLC_L_D2S1,NHG,60.012293674,
stim/posf.jpg,stim/negf.jpg,stim/1.jpg,stim/2.jpg,stim/latef.jpg,EF,1,2,,,,,0,22,22,41,,,,,,,,,,,,,,2,1,0.39985546274,,,,,,2015_Nov_04_1352,P1,PLC_L_D2S1,NHG,60.012293674,
stim/posf.jpg,stim/negf.jpg,stim/2.jpg,stim/1.jpg,stim/latef.jpg,EF,2,4,,,,,0,23,23,53,,,,,,,,,,,,,,4,1,0.316557270995,,,,,,2015_Nov_04_1352,P1,PLC_L_D2S1,NHG,60.012293674,
stim/posf.jpg,stim/negf.jpg,stim/3.jpg,stim/5.jpg,stim/latef.jpg,AB,1,2,,,,,0,24,24,3,,,,,,,,,,,,,,2,1,0.28323211705,,,,,,2015_Nov_04_1352,P1,PLC_L_D2S1,NHG,60.012293674,
stim/posf.jpg,stim/negf.jpg,stim/6.jpg,stim/4.jpg,stim/latef.jpg,CD,2,4,,,,,0,25,25,31,,,,,,,,,,,,,,4,1,0.283236820775,,,,,,2015_Nov_04_1352,P1,PLC_L_D2S1,NHG,60.012293674,
stim/posf.jpg,stim/negf.jpg,stim/3.jpg,stim/5.jpg,stim/latef.jpg,AB,1,2,,,,,0,26,26,6,,,,,,,,,,,,,,2,1,0.316552955243,,,,,,2015_Nov_04_1352,P1,PLC_L_D2S1,NHG,60.012293674,
stim/negf.jpg,stim/posf.jpg,stim/1.jpg,stim/2.jpg,stim/latef.jpg,EF,1,2,,,,,0,27,27,47,,,,,,,,,,,,,,4,0,0.333210252553,,,,,,2015_Nov_04_1352,P1,PLC_L_D2S1,NHG,60.012293674,
stim/posf.jpg,stim/negf.jpg,stim/1.jpg,stim/2.jpg,stim/latef.jpg,EF,1,2,,,,,0,28,28,40,,,,,,,,,,,,,,4,0,0.299903266892,,,,,,2015_Nov_04_1352,P1,PLC_L_D2S1,NHG,60.012293674,
stim/negf.jpg,stim/posf.jpg,stim/4.jpg,stim/6.jpg,stim/latef.jpg,CD,1,2,,,,,0,29,29,27,,,,,,,,,,,,,,2,1,0.299900722552,,,,,,2015_Nov_04_1352,P1,PLC_L_D2S1,NHG,60.012293674,
stim/negf.jpg,stim/posf.jpg,stim/1.jpg,stim/2.jpg,stim/latef.jpg,EF,1,2,,,,,0,30,30,49,,,,,,,,,,,,,,4,0,0.28319604514,,,,,,2015_Nov_04_1352,P1,PLC_L_D2S1,NHG,60.012293674,
stim/posf.jpg,stim/negf.jpg,stim/5.jpg,stim/3.jpg,stim/latef.jpg,AB,2,4,,,,,0,31,31,17,,,,,,,,,,,,,,2,0,0.299894346659,,,,,,2015_Nov_04_1352,P1,PLC_L_D2S1,NHG,60.012293674,
stim/negf.jpg,stim/posf.jpg,stim/2.jpg,stim/1.jpg,stim/latef.jpg,EF,2,4,,,,,0,32,32,59,,,,,,,,,,,,,,4,1,0.316600323305,,,,,,2015_Nov_04_1352,P1,PLC_L_D2S1,NHG,60.012293674,
stim/posf.jpg,stim/negf.jpg,stim/2.jpg,stim/1.jpg,stim/latef.jpg,EF,2,4,,,,,0,33,33,51,,,,,,,,,,,,,,2,0,0.299946334238,,,,,,2015_Nov_04_1352,P1,PLC_L_D2S1,NHG,60.012293674,
stim/posf.jpg,stim/negf.jpg,stim/2.jpg,stim/1.jpg,stim/latef.jpg,EF,2,4,,,,,0,34,34,50,,,,,,,,,,,,,,4,1,0.266564419817,,,,,,2015_Nov_04_1352,P1,PLC_L_D2S1,NHG,60.012293674,
stim/posf.jpg,stim/negf.jpg,stim/4.jpg,stim/6.jpg,stim/latef.jpg,CD,1,2,,,,,0,35,35,23,,,,,,,,,,,,,,2,1,0.316545066577,,,,,,2015_Nov_04_1352,P1,PLC_L_D2S1,NHG,60.012293674,
stim/negf.jpg,stim/posf.jpg,stim/6.jpg,stim/4.jpg,stim/latef.jpg,CD,2,4,,,,,0,36,36,37,,,,,,,,,,,,,,4,1,1.01634145307,,,,,,2015_Nov_04_1352,P1,PLC_L_D2S1,NHG,60.012293674,
stim/posf.jpg,stim/negf.jpg,stim/3.jpg,stim/5.jpg,stim/latef.jpg,AB,1,2,,,,,0,37,37,0,,,,,,,,,,,,,,4,0,0.833027324607,,,,,,2015_Nov_04_1352,P1,PLC_L_D2S1,NHG,60.012293674,
stim/posf.jpg,stim/negf.jpg,stim/3.jpg,stim/5.jpg,stim/latef.jpg,AB,1,2,,,,,0,38,38,4,,,,,,,,,,,,,,2,1,0.666461025106,,,,,,2015_Nov_04_1352,P1,PLC_L_D2S1,NHG,60.012293674,
stim/posf.jpg,stim/negf.jpg,stim/5.jpg,stim/3.jpg,stim/latef.jpg,AB,2,4,,,,,0,39,39,11,,,,,,,,,,,,,,4,1,0.88303232607,,,,,,2015_Nov_04_1352,P1,PLC_L_D2S1,NHG,60.012293674,
stim/posf.jpg,stim/negf.jpg,stim/1.jpg,stim/2.jpg,stim/latef.jpg,EF,1,2,,,,,0,40,40,44,,,,,,,,,,,,,,4,0,0.98300031729,,,,,,2015_Nov_04_1352,P1,PLC_L_D2S1,NHG,60.012293674,
stim/negf.jpg,stim/posf.jpg,stim/3.jpg,stim/5.jpg,stim/latef.jpg,AB,1,2,,,,,0,41,41,8,,,,,,,,,,,,,,2,1,1.19958126631,,,,,,2015_Nov_04_1352,P1,PLC_L_D2S1,NHG,60.012293674,
stim/posf.jpg,stim/negf.jpg,stim/6.jpg,stim/4.jpg,stim/latef.jpg,CD,2,4,,,,,0,42,42,35,,,,,,,,,,,,,,2,0,1.24959276998,,,,,,2015_Nov_04_1352,P1,PLC_L_D2S1,NHG,60.012293674,
stim/posf.jpg,stim/negf.jpg,stim/6.jpg,stim/4.jpg,stim/latef.jpg,CD,2,4,,,,,0,43,43,32,,,,,,,,,,,,,,4,1,0.649792239157,,,,,,2015_Nov_04_1352,P1,PLC_L_D2S1,NHG,60.012293674,
stim/posf.jpg,stim/negf.jpg,stim/4.jpg,stim/6.jpg,stim/latef.jpg,CD,1,2,,,,,0,44,44,21,,,,,,,,,,,,,,4,0,0.766418914143,,,,,,2015_Nov_04_1352,P1,PLC_L_D2S1,NHG,60.012293674,
stim/posf.jpg,stim/negf.jpg,stim/6.jpg,stim/4.jpg,stim/latef.jpg,CD,2,4,,,,,0,45,45,33,,,,,,,,,,,,,,2,0,0.449831071946,,,,,,2015_Nov_04_1352,P1,PLC_L_D2S1,NHG,60.012293674,
stim/posf.jpg,stim/negf.jpg,stim/4.jpg,stim/6.jpg,stim/latef.jpg,CD,1,2,,,,,0,46,46,26,,,,,,,,,,,,,,4,0,0.299946376341,,,,,,2015_Nov_04_1352,P1,PLC_L_D2S1,NHG,60.012293674,
stim/posf.jpg,stim/negf.jpg,stim/6.jpg,stim/4.jpg,stim/latef.jpg,CD,2,4,,,,,0,47,47,30,,,,,,,,,,,,,,2,0,0.433211774351,,,,,,2015_Nov_04_1352,P1,PLC_L_D2S1,NHG,60.012293674,
stim/posf.jpg,stim/negf.jpg,stim/3.jpg,stim/5.jpg,stim/latef.jpg,AB,1,2,,,,,0,48,48,5,,,,,,,,,,,,,,4,0,0.266667471671,,,,,,2015_Nov_04_1352,P1,PLC_L_D2S1,NHG,60.012293674,
stim/negf.jpg,stim/posf.jpg,stim/4.jpg,stim/6.jpg,stim/latef.jpg,CD,1,2,,,,,0,49,49,29,,,,,,,,,,,,,,2,1,0.966357140172,,,,,,2015_Nov_04_1352,P1,PLC_L_D2S1,NHG,60.012293674,
stim/posf.jpg,stim/negf.jpg,stim/5.jpg,stim/3.jpg,stim/latef.jpg,AB,2,4,,,,,0,50,50,12,,,,,,,,,,,,,,4,1,0.716445906419,,,,,,2015_Nov_04_1352,P1,PLC_L_D2S1,NHG,60.012293674,
stim/posf.jpg,stim/negf.jpg,stim/1.jpg,stim/2.jpg,stim/latef.jpg,EF,1,2,,,,,0,51,51,43,,,,,,,,,,,,,,4,0,0.799752880052,,,,,,2015_Nov_04_1352,P1,PLC_L_D2S1,NHG,60.012293674,
stim/posf.jpg,stim/negf.jpg,stim/1.jpg,stim/2.jpg,stim/latef.jpg,EF,1,2,,,,,0,52,52,42,,,,,,,,,,,,,,2,1,0.516488411366,,,,,,2015_Nov_04_1352,P1,PLC_L_D2S1,NHG,60.012293674,
stim/posf.jpg,stim/negf.jpg,stim/4.jpg,stim/6.jpg,stim/latef.jpg,CD,1,2,,,,,0,53,53,20,,,,,,,,,,,,,,2,1,1.18293665461,,,,,,2015_Nov_04_1352,P1,PLC_L_D2S1,NHG,60.012293674,
stim/posf.jpg,stim/negf.jpg,stim/6.jpg,stim/4.jpg,stim/latef.jpg,CD,2,4,,,,,0,54,54,34,,,,,,,,,,,,,,2,0,0.649781087362,,,,,,2015_Nov_04_1352,P1,PLC_L_D2S1,NHG,60.012293674,
stim/negf.jpg,stim/posf.jpg,stim/4.jpg,stim/6.jpg,stim/latef.jpg,CD,1,2,,,,,0,55,55,28,,,,,,,,,,,,,,2,1,0.999679512184,,,,,,2015_Nov_04_1352,P1,PLC_L_D2S1,NHG,60.012293674,
stim/negf.jpg,stim/posf.jpg,stim/5.jpg,stim/3.jpg,stim/latef.jpg,AB,2,4,,,,,0,56,56,18,,,,,,,,,,,,,,4,1,0.916414586354,,,,,,2015_Nov_04_1352,P1,PLC_L_D2S1,NHG,60.012293674,
stim/posf.jpg,stim/negf.jpg,stim/6.jpg,stim/4.jpg,stim/latef.jpg,CD,2,4,,,,,0,57,57,36,,,,,,,,,,,,,,4,1,0.949708230764,,,,,,2015_Nov_04_1352,P1,PLC_L_D2S1,NHG,60.012293674,
stim/negf.jpg,stim/posf.jpg,stim/6.jpg,stim/4.jpg,stim/latef.jpg,CD,2,4,,,,,0,58,58,38,,,,,,,,,,,,,,4,1,0.649776019731,,,,,,2015_Nov_04_1352,P1,PLC_L_D2S1,NHG,60.012293674,
stim/negf.jpg,stim/posf.jpg,stim/1.jpg,stim/2.jpg,stim/latef.jpg,EF,1,2,,,,,0,59,59,48,,,,,,,,,,,,,,4,0,0.883024566734,,,,,,2015_Nov_04_1352,P1,PLC_L_D2S1,NHG,60.012293674,
,,,,,,,,,,,,,,,,,,,,,,,,,,,,,,,,0.9984375,1.0,1,0,0,2015_Nov_04_1352,P1,PLC_L_D2S1,NHG,60.012293674,
stim/posf.jpg,stim/negf.jpg,stim/1.jpg,stim/2.jpg,stim/latef.jpg,EF,1,2,,,,,,,,,0,0,0,43,,,,,,,,,,4,0,0.633123356965,,,,,,2015_Nov_04_1352,P1,PLC_L_D2S1,NHG,60.012293674,
stim/posf.jpg,stim/negf.jpg,stim/6.jpg,stim/4.jpg,stim/latef.jpg,CD,2,4,,,,,,,,,0,1,1,35,,,,,,,,,,2,0,0.56646601755,,,,,,2015_Nov_04_1352,P1,PLC_L_D2S1,NHG,60.012293674,
stim/negf.jpg,stim/posf.jpg,stim/1.jpg,stim/2.jpg,stim/latef.jpg,EF,1,2,,,,,,,,,0,2,2,48,,,,,,,,,,4,0,0.966354941691,,,,,,2015_Nov_04_1352,P1,PLC_L_D2S1,NHG,60.012293674,
stim/posf.jpg,stim/negf.jpg,stim/2.jpg,stim/1.jpg,stim/latef.jpg,EF,2,4,,,,,,,,,0,3,3,53,,,,,,,,,,2,0,0.849739550831,,,,,,2015_Nov_04_1352,P1,PLC_L_D2S1,NHG,60.012293674,
stim/negf.jpg,stim/posf.jpg,stim/4.jpg,stim/6.jpg,stim/latef.jpg,CD,1,2,,,,,,,,,0,4,4,29,,,,,,,,,,4,0,0.533210559322,,,,,,2015_Nov_04_1352,P1,PLC_L_D2S1,NHG,60.012293674,
stim/negf.jpg,stim/posf.jpg,stim/2.jpg,stim/1.jpg,stim/latef.jpg,EF,2,4,,,,,,,,,0,5,5,57,,,,,,,,,,4,1,0.299874298689,,,,,,2015_Nov_04_1352,P1,PLC_L_D2S1,NHG,60.012293674,
stim/negf.jpg,stim/posf.jpg,stim/5.jpg,stim/3.jpg,stim/latef.jpg,AB,2,4,,,,,,,,,0,6,6,19,,,,,,,,,,4,1,0.916326974984,,,,,,2015_Nov_04_1352,P1,PLC_L_D2S1,NHG,60.012293674,
stim/posf.jpg,stim/negf.jpg,stim/5.jpg,stim/3.jpg,stim/latef.jpg,AB,2,4,,,,,,,,,0,7,7,10,,,,,,,,,,4,1,0.849678249033,,,,,,2015_Nov_04_1352,P1,PLC_L_D2S1,NHG,60.012293674,
stim/negf.jpg,stim/posf.jpg,stim/2.jpg,stim/1.jpg,stim/latef.jpg,EF,2,4,,,,,,,,,0,8,8,56,,,,,,,,,,4,1,0.749752804866,,,,,,2015_Nov_04_1352,P1,PLC_L_D2S1,NHG,60.012293674,
stim/posf.jpg,stim/negf.jpg,stim/3.jpg,stim/5.jpg,stim/latef.jpg,AB,1,2,,,,,,,,,0,9,9,7,,,,,,,,,,4,0,0.833054371018,,,,,,2015_Nov_04_1352,P1,PLC_L_D2S1,NHG,60.012293674,
stim/posf.jpg,stim/negf.jpg,stim/6.jpg,stim/4.jpg,stim/latef.jpg,CD,2,4,,,,,,,,,0,10,10,34,,,,,,,,,,4,1,1.01627611522,,,,,,2015_Nov_04_1352,P1,PLC_L_D2S1,NHG,60.012293674,
stim/posf.jpg,stim/negf.jpg,stim/3.jpg,stim/5.jpg,stim/latef.jpg,AB,1,2,,,,,,,,,0,11,11,2,,,,,,,,,,2,1,0.98299946617,,,,,,2015_Nov_04_1352,P1,PLC_L_D2S1,NHG,60.012293674,
stim/posf.jpg,stim/negf.jpg,stim/5.jpg,stim/3.jpg,stim/latef.jpg,AB,2,4,,,,,,,,,0,12,12,12,,,,,,,,,,4,1,0.766414417936,,,,,,2015_Nov_04_1352,P1,PLC_L_D2S1,NHG,60.012293674,
stim/posf.jpg,stim/negf.jpg,stim/4.jpg,stim/6.jpg,stim/latef.jpg,CD,1,2,,,,,,,,,0,13,13,20,,,,,,,,,,4,0,0.749766064917,,,,,,2015_Nov_04_1352,P1,PLC_L_D2S1,NHG,60.012293674,
stim/posf.jpg,stim/negf.jpg,stim/5.jpg,stim/3.jpg,stim/latef.jpg,AB,2,4,,,,,,,,,0,14,14,17,,,,,,,,,,4,1,0.833013123211,,,,,,2015_Nov_04_1352,P1,PLC_L_D2S1,NHG,60.012293674,
stim/posf.jpg,stim/negf.jpg,stim/3.jpg,stim/5.jpg,stim/latef.jpg,AB,1,2,,,,,,,,,0,15,15,4,,,,,,,,,,2,1,0.783067297241,,,,,,2015_Nov_04_1352,P1,PLC_L_D2S1,NHG,60.012293674,
stim/posf.jpg,stim/negf.jpg,stim/3.jpg,stim/5.jpg,stim/latef.jpg,AB,1,2,,,,,,,,,0,16,16,1,,,,,,,,,,2,1,0.649764786729,,,,,,2015_Nov_04_1352,P1,PLC_L_D2S1,NHG,60.012293674,
stim/negf.jpg,stim/posf.jpg,stim/2.jpg,stim/1.jpg,stim/latef.jpg,EF,2,4,,,,,,,,,0,17,17,59,,,,,,,,,,2,0,0.766418613395,,,,,,2015_Nov_04_1352,P1,PLC_L_D2S1,NHG,60.012293674,
stim/negf.jpg,stim/posf.jpg,stim/6.jpg,stim/4.jpg,stim/latef.jpg,CD,2,4,,,,,,,,,0,18,18,37,,,,,,,,,,2,0,0.849719280308,,,,,,2015_Nov_04_1352,P1,PLC_L_D2S1,NHG,60.012293674,
stim/posf.jpg,stim/negf.jpg,stim/6.jpg,stim/4.jpg,stim/latef.jpg,CD,2,4,,,,,,,,,0,19,19,32,,,,,,,,,,2,0,0.699805890181,,,,,,2015_Nov_04_1352,P1,PLC_L_D2S1,NHG,60.012293674,
stim/posf.jpg,stim/negf.jpg,stim/5.jpg,stim/3.jpg,stim/latef.jpg,AB,2,4,,,,,,,,,0,20,20,16,,,,,,,,,,4,1,1.0496416839,,,,,,2015_Nov_04_1352,P1,PLC_L_D2S1,NHG,60.012293674,
stim/posf.jpg,stim/negf.jpg,stim/4.jpg,stim/6.jpg,stim/latef.jpg,CD,1,2,,,,,,,,,0,21,21,25,,,,,,,,,,4,0,0.866333895236,,,,,,2015_Nov_04_1352,P1,PLC_L_D2S1,NHG,60.012293674,
stim/negf.jpg,stim/posf.jpg,stim/3.jpg,stim/5.jpg,stim/latef.jpg,AB,1,2,,,,,,,,,0,22,22,8,,,,,,,,,,2,1,1.11628971812,,,,,,2015_Nov_04_1352,P1,PLC_L_D2S1,NHG,60.012293674,
stim/posf.jpg,stim/negf.jpg,stim/2.jpg,stim/1.jpg,stim/latef.jpg,EF,2,4,,,,,,,,,0,23,23,51,,,,,,,,,,2,0,0.733112960053,,,,,,2015_Nov_04_1352,P1,PLC_L_D2S1,NHG,60.012293674,
stim/posf.jpg,stim/negf.jpg,stim/2.jpg,stim/1.jpg,stim/latef.jpg,EF,2,4,,,,,,,,,0,24,24,50,,,,,,,,,,4,1,0.499903760123,,,,,,2015_Nov_04_1352,P1,PLC_L_D2S1,NHG,60.012293674,
stim/posf.jpg,stim/negf.jpg,stim/2.jpg,stim/1.jpg,stim/latef.jpg,EF,2,4,,,,,,,,,0,25,25,54,,,,,,,,,,4,1,0.533170120525,,,,,,2015_Nov_04_1352,P1,PLC_L_D2S1,NHG,60.012293674,
stim/posf.jpg,stim/negf.jpg,stim/3.jpg,stim/5.jpg,stim/latef.jpg,AB,1,2,,,,,,,,,0,26,26,5,,,,,,,,,,2,1,0.783077585882,,,,,,2015_Nov_04_1352,P1,PLC_L_D2S1,NHG,60.012293674,
stim/posf.jpg,stim/negf.jpg,stim/5.jpg,stim/3.jpg,stim/latef.jpg,AB,2,4,,,,,,,,,0,27,27,14,,,,,,,,,,4,1,0.699760585259,,,,,,2015_Nov_04_1352,P1,PLC_L_D2S1,NHG,60.012293674,
stim/posf.jpg,stim/negf.jpg,stim/1.jpg,stim/2.jpg,stim/latef.jpg,EF,1,2,,,,,,,,,0,28,28,40,,,,,,,,,,2,1,1.26625838603,,,,,,2015_Nov_04_1352,P1,PLC_L_D2S1,NHG,60.012293674,
stim/posf.jpg,stim/negf.jpg,stim/5.jpg,stim/3.jpg,stim/latef.jpg,AB,2,4,,,,,,,,,0,29,29,15,,,,,,,,,,2,0,0.533185191089,,,,,,2015_Nov_04_1352,P1,PLC_L_D2S1,NHG,60.012293674,
stim/posf.jpg,stim/negf.jpg,stim/4.jpg,stim/6.jpg,stim/latef.jpg,CD,1,2,,,,,,,,,0,30,30,23,,,,,,,,,,4,0,1.23292684115,,,,,,2015_Nov_04_1352,P1,PLC_L_D2S1,NHG,60.012293674,
stim/posf.jpg,stim/negf.jpg,stim/1.jpg,stim/2.jpg,stim/latef.jpg,EF,1,2,,,,,,,,,0,31,31,42,,,,,,,,,,2,1,0.766401566907,,,,,,2015_Nov_04_1352,P1,PLC_L_D2S1,NHG,60.012293674,
stim/posf.jpg,stim/negf.jpg,stim/6.jpg,stim/4.jpg,stim/latef.jpg,CD,2,4,,,,,,,,,0,32,32,30,,,,,,,,,,4,1,1.53283270351,,,,,,2015_Nov_04_1352,P1,PLC_L_D2S1,NHG,60.012293674,
stim/negf.jpg,stim/posf.jpg,stim/4.jpg,stim/6.jpg,stim/latef.jpg,CD,1,2,,,,,,,,,0,33,33,27,,,,,,,,,,4,0,1.1163537808,,,,,,2015_Nov_04_1352,P1,PLC_L_D2S1,NHG,60.012293674,
stim/posf.jpg,stim/negf.jpg,stim/2.jpg,stim/1.jpg,stim/latef.jpg,EF,2,4,,,,,,,,,0,34,34,52,,,,,,,,,,2,0,1.21625402817,,,,,,2015_Nov_04_1352,P1,PLC_L_D2S1,NHG,60.012293674,
stim/posf.jpg,stim/negf.jpg,stim/4.jpg,stim/6.jpg,stim/latef.jpg,CD,1,2,,,,,,,,,0,35,35,22,,,,,,,,,,4,0,1.09967709717,,,,,,2015_Nov_04_1352,P1,PLC_L_D2S1,NHG,60.012293674,
stim/posf.jpg,stim/negf.jpg,stim/5.jpg,stim/3.jpg,stim/latef.jpg,AB,2,4,,,,,,,,,0,36,36,13,,,,,,,,,,4,1,1.13293882001,,,,,,2015_Nov_04_1352,P1,PLC_L_D2S1,NHG,60.012293674,
stim/negf.jpg,stim/posf.jpg,stim/4.jpg,stim/6.jpg,stim/latef.jpg,CD,1,2,,,,,,,,,0,37,37,28,,,,,,,,,,4,0,1.16634252374,,,,,,2015_Nov_04_1352,P1,PLC_L_D2S1,NHG,60.012293674,
stim/negf.jpg,stim/posf.jpg,stim/2.jpg,stim/1.jpg,stim/latef.jpg,EF,2,4,,,,,,,,,0,38,38,58,,,,,,,,,,4,1,0.833037598215,,,,,,2015_Nov_04_1352,P1,PLC_L_D2S1,NHG,60.012293674,
stim/posf.jpg,stim/negf.jpg,stim/6.jpg,stim/4.jpg,stim/latef.jpg,CD,2,4,,,,,,,,,0,39,39,33,,,,,,,,,,4,1,0.766417467537,,,,,,2015_Nov_04_1352,P1,PLC_L_D2S1,NHG,60.012293674,
stim/posf.jpg,stim/negf.jpg,stim/4.jpg,stim/6.jpg,stim/latef.jpg,CD,1,2,,,,,,,,,0,40,40,21,,,,,,,,,,4,0,0.466567806256,,,,,,2015_Nov_04_1352,P1,PLC_L_D2S1,NHG,60.012293674,
stim/posf.jpg,stim/negf.jpg,stim/1.jpg,stim/2.jpg,stim/latef.jpg,EF,1,2,,,,,,,,,0,41,41,45,,,,,,,,,,2,1,0.416524236662,,,,,,2015_Nov_04_1352,P1,PLC_L_D2S1,NHG,60.012293674,
stim/negf.jpg,stim/posf.jpg,stim/6.jpg,stim/4.jpg,stim/latef.jpg,CD,2,4,,,,,,,,,0,42,42,39,,,,,,,,,,4,1,0.399793207569,,,,,,2015_Nov_04_1352,P1,PLC_L_D2S1,NHG,60.012293674,
stim/posf.jpg,stim/negf.jpg,stim/1.jpg,stim/2.jpg,stim/latef.jpg,EF,1,2,,,,,,,,,0,43,43,44,,,,,,,,,,2,1,0.333205067629,,,,,,2015_Nov_04_1352,P1,PLC_L_D2S1,NHG,60.012293674,
stim/negf.jpg,stim/posf.jpg,stim/6.jpg,stim/4.jpg,stim/latef.jpg,CD,2,4,,,,,,,,,0,44,44,38,,,,,,,,,,2,0,0.333206607469,,,,,,2015_Nov_04_1352,P1,PLC_L_D2S1,NHG,60.012293674,
stim/negf.jpg,stim/posf.jpg,stim/3.jpg,stim/5.jpg,stim/latef.jpg,AB,1,2,,,,,,,,,0,45,45,9,,,,,,,,,,4,0,0.549816293111,,,,,,2015_Nov_04_1352,P1,PLC_L_D2S1,NHG,60.012293674,
stim/negf.jpg,stim/posf.jpg,stim/1.jpg,stim/2.jpg,stim/latef.jpg,EF,1,2,,,,,,,,,0,46,46,47,,,,,,,,,,4,0,1.01634125458,,,,,,2015_Nov_04_1352,P1,PLC_L_D2S1,NHG,60.012293674,
stim/posf.jpg,stim/negf.jpg,stim/6.jpg,stim/4.jpg,stim/latef.jpg,CD,2,4,,,,,,,,,0,47,47,31,,,,,,,,,,4,1,0.74976564086,,,,,,2015_Nov_04_1352,P1,PLC_L_D2S1,NHG,60.012293674,
stim/negf.jpg,stim/posf.jpg,stim/1.jpg,stim/2.jpg,stim/latef.jpg,EF,1,2,,,,,,,,,0,48,48,49,,,,,,,,,,4,0,0.566516191608,,,,,,2015_Nov_04_1352,P1,PLC_L_D2S1,NHG,60.012293674,
stim/negf.jpg,stim/posf.jpg,stim/5.jpg,stim/3.jpg,stim/latef.jpg,AB,2,4,,,,,,,,,0,49,49,18,,,,,,,,,,4,1,0.483157886028,,,,,,2015_Nov_04_1352,P1,PLC_L_D2S1,NHG,60.012293674,
stim/posf.jpg,stim/negf.jpg,stim/6.jpg,stim/4.jpg,stim/latef.jpg,CD,2,4,,,,,,,,,0,50,50,36,,,,,,,,,,4,1,0.533119784061,,,,,,2015_Nov_04_1352,P1,PLC_L_D2S1,NHG,60.012293674,
stim/posf.jpg,stim/negf.jpg,stim/3.jpg,stim/5.jpg,stim/latef.jpg,AB,1,2,,,,,,,,,0,51,51,3,,,,,,,,,,2,1,0.883049423686,,,,,,2015_Nov_04_1352,P1,PLC_L_D2S1,NHG,60.012293674,
stim/posf.jpg,stim/negf.jpg,stim/2.jpg,stim/1.jpg,stim/latef.jpg,EF,2,4,,,,,,,,,0,52,52,55,,,,,,,,,,2,0,0.766410851043,,,,,,2015_Nov_04_1352,P1,PLC_L_D2S1,NHG,60.012293674,
stim/posf.jpg,stim/negf.jpg,stim/1.jpg,stim/2.jpg,stim/latef.jpg,EF,1,2,,,,,,,,,0,53,53,41,,,,,,,,,,4,0,0.566482988848,,,,,,2015_Nov_04_1352,P1,PLC_L_D2S1,NHG,60.012293674,
stim/posf.jpg,stim/negf.jpg,stim/4.jpg,stim/6.jpg,stim/latef.jpg,CD,1,2,,,,,,,,,0,54,54,24,,,,,,,,,,4,0,0.566482528706,,,,,,2015_Nov_04_1352,P1,PLC_L_D2S1,NHG,60.012293674,
stim/posf.jpg,stim/negf.jpg,stim/4.jpg,stim/6.jpg,stim/latef.jpg,CD,1,2,,,,,,,,,0,55,55,26,,,,,,,,,,2,1,0.3665434305,,,,,,2015_Nov_04_1352,P1,PLC_L_D2S1,NHG,60.012293674,
stim/posf.jpg,stim/negf.jpg,stim/3.jpg,stim/5.jpg,stim/latef.jpg,AB,1,2,,,,,,,,,0,56,56,6,,,,,,,,,,2,1,0.832957379269,,,,,,2015_Nov_04_1352,P1,PLC_L_D2S1,NHG,60.012293674,
stim/negf.jpg,stim/posf.jpg,stim/1.jpg,stim/2.jpg,stim/latef.jpg,EF,1,2,,,,,,,,,0,57,57,46,,,,,,,,,,2,1,0.933050987587,,,,,,2015_Nov_04_1352,P1,PLC_L_D2S1,NHG,60.012293674,
stim/posf.jpg,stim/negf.jpg,stim/5.jpg,stim/3.jpg,stim/latef.jpg,AB,2,4,,,,,,,,,0,58,58,11,,,,,,,,,,4,1,0.666419046473,,,,,,2015_Nov_04_1352,P1,PLC_L_D2S1,NHG,60.012293674,
stim/posf.jpg,stim/negf.jpg,stim/3.jpg,stim/5.jpg,stim/latef.jpg,AB,1,2,,,,,,,,,0,59,59,0,,,,,,,,,,2,1,0.949695647403,,,,,,2015_Nov_04_1352,P1,PLC_L_D2S1,NHG,60.012293674,
,,,,,,,,,,,,,,,,,,,,,,,,,,,,,,,,0.9984375,1.0,1,0,0,2015_Nov_04_1352,P1,PLC_L_D2S1,NHG,60.012293674,
stim/posf.jpg,stim/negf.jpg,stim/3.jpg,stim/5.jpg,stim/latef.jpg,AB,1,2,,,,,,,,,,,,,0,0,0,4,,,,,,2,1,0.999686552736,,,,,,2015_Nov_04_1352,P1,PLC_L_D2S1,NHG,60.012293674,
stim/posf.jpg,stim/negf.jpg,stim/1.jpg,stim/2.jpg,stim/latef.jpg,EF,1,2,,,,,,,,,,,,,0,1,1,44,,,,,,2,1,0.74974854926,,,,,,2015_Nov_04_1352,P1,PLC_L_D2S1,NHG,60.012293674,
stim/posf.jpg,stim/negf.jpg,stim/5.jpg,stim/3.jpg,stim/latef.jpg,AB,2,4,,,,,,,,,,,,,0,2,2,12,,,,,,2,0,1.03296927091,,,,,,2015_Nov_04_1352,P1,PLC_L_D2S1,NHG,60.012293674,
stim/posf.jpg,stim/negf.jpg,stim/3.jpg,stim/5.jpg,stim/latef.jpg,AB,1,2,,,,,,,,,,,,,0,3,3,2,,,,,,2,1,1.38280005113,,,,,,2015_Nov_04_1352,P1,PLC_L_D2S1,NHG,60.012293674,
stim/negf.jpg,stim/posf.jpg,stim/5.jpg,stim/3.jpg,stim/latef.jpg,AB,2,4,,,,,,,,,,,,,0,4,4,18,,,,,,4,1,0.81637240923,,,,,,2015_Nov_04_1352,P1,PLC_L_D2S1,NHG,60.012293674,
stim/posf.jpg,stim/negf.jpg,stim/2.jpg,stim/1.jpg,stim/latef.jpg,EF,2,4,,,,,,,,,,,,,0,5,5,53,,,,,,2,0,0.949677379871,,,,,,2015_Nov_04_1352,P1,PLC_L_D2S1,NHG,60.012293674,
stim/posf.jpg,stim/negf.jpg,stim/3.jpg,stim/5.jpg,stim/latef.jpg,AB,1,2,,,,,,,,,,,,,0,6,6,5,,,,,,2,1,0.849715951008,,,,,,2015_Nov_04_1352,P1,PLC_L_D2S1,NHG,60.012293674,
stim/posf.jpg,stim/negf.jpg,stim/6.jpg,stim/4.jpg,stim/latef.jpg,CD,2,4,,,,,,,,,,,,,0,7,7,32,,,,,,2,0,0.666458122872,,,,,,2015_Nov_04_1352,P1,PLC_L_D2S1,NHG,60.012293674,
stim/negf.jpg,stim/posf.jpg,stim/1.jpg,stim/2.jpg,stim/latef.jpg,EF,1,2,,,,,,,,,,,,,0,8,8,48,,,,,,2,1,0.283232697497,,,,,,2015_Nov_04_1352,P1,PLC_L_D2S1,NHG,60.012293674,
stim/negf.jpg,stim/posf.jpg,stim/3.jpg,stim/5.jpg,stim/latef.jpg,AB,1,2,,,,,,,,,,,,,0,9,9,8,,,,,,4,0,0.433192366974,,,,,,2015_Nov_04_1352,P1,PLC_L_D2S1,NHG,60.012293674,
stim/negf.jpg,stim/posf.jpg,stim/1.jpg,stim/2.jpg,stim/latef.jpg,EF,1,2,,,,,,,,,,,,,0,10,10,47,,,,,,4,0,0.333264501773,,,,,,2015_Nov_04_1352,P1,PLC_L_D2S1,NHG,60.012293674,
stim/posf.jpg,stim/negf.jpg,stim/6.jpg,stim/4.jpg,stim/latef.jpg,CD,2,4,,,,,,,,,,,,,0,11,11,34,,,,,,4,1,0.6996708927,,,,,,2015_Nov_04_1352,P1,PLC_L_D2S1,NHG,60.012293674,
stim/negf.jpg,stim/posf.jpg,stim/1.jpg,stim/2.jpg,stim/latef.jpg,EF,1,2,,,,,,,,,,,,,0,12,12,46,,,,,,4,0,0.533117188595,,,,,,2015_Nov_04_1352,P1,PLC_L_D2S1,NHG,60.012293674,
stim/posf.jpg,stim/negf.jpg,stim/4.jpg,stim/6.jpg,stim/latef.jpg,CD,1,2,,,,,,,,,,,,,0,13,13,23,,,,,,4,0,0.416460952925,,,,,,2015_Nov_04_1352,P1,PLC_L_D2S1,NHG,60.012293674,
stim/posf.jpg,stim/negf.jpg,stim/3.jpg,stim/5.jpg,stim/latef.jpg,AB,1,2,,,,,,,,,,,,,0,14,14,1,,,,,,4,0,0.366526272734,,,,,,2015_Nov_04_1352,P1,PLC_L_D2S1,NHG,60.012293674,
stim/posf.jpg,stim/negf.jpg,stim/1.jpg,stim/2.jpg,stim/latef.jpg,EF,1,2,,,,,,,,,,,,,0,15,15,40,,,,,,4,0,0.599905639807,,,,,,2015_Nov_04_1352,P1,PLC_L_D2S1,NHG,60.012293674,
stim/posf.jpg,stim/negf.jpg,stim/1.jpg,stim/2.jpg,stim/latef.jpg,EF,1,2,,,,,,,,,,,,,0,16,16,42,,,,,,4,0,0.333231840363,,,,,,2015_Nov_04_1352,P1,PLC_L_D2S1,NHG,60.012293674,
stim/posf.jpg,stim/negf.jpg,stim/6.jpg,stim/4.jpg,stim/latef.jpg,CD,2,4,,,,,,,,,,,,,0,17,17,35,,,,,,2,0,0.699780491876,,,,,,2015_Nov_04_1352,P1,PLC_L_D2S1,NHG,60.012293674,
stim/posf.jpg,stim/negf.jpg,stim/2.jpg,stim/1.jpg,stim/latef.jpg,EF,2,4,,,,,,,,,,,,,0,18,18,52,,,,,,4,1,1.31622377877,,,,,,2015_Nov_04_1352,P1,PLC_L_D2S1,NHG,60.012293674,
stim/posf.jpg,stim/negf.jpg,stim/4.jpg,stim/6.jpg,stim/latef.jpg,CD,1,2,,,,,,,,,,,,,0,19,19,22,,,,,,2,1,0.833070674656,,,,,,2015_Nov_04_1352,P1,PLC_L_D2S1,NHG,60.012293674,
stim/posf.jpg,stim/negf.jpg,stim/1.jpg,stim/2.jpg,stim/latef.jpg,EF,1,2,,,,,,,,,,,,,0,20,20,41,,,,,,2,1,0.633149206395,,,,,,2015_Nov_04_1352,P1,PLC_L_D2S1,NHG,60.012293674,
stim/posf.jpg,stim/negf.jpg,stim/2.jpg,stim/1.jpg,stim/latef.jpg,EF,2,4,,,,,,,,,,,,,0,21,21,50,,,,,,4,1,0.983000073684,,,,,,2015_Nov_04_1352,P1,PLC_L_D2S1,NHG,60.012293674,
stim/posf.jpg,stim/negf.jpg,stim/4.jpg,stim/6.jpg,stim/latef.jpg,CD,1,2,,,,,,,,,,,,,0,22,22,20,,,,,,2,1,0.616470381425,,,,,,2015_Nov_04_1352,P1,PLC_L_D2S1,NHG,60.012293674,
stim/posf.jpg,stim/negf.jpg,stim/3.jpg,stim/5.jpg,stim/latef.jpg,AB,1,2,,,,,,,,,,,,,0,23,23,6,,,,,,4,0,0.449837495958,,,,,,2015_Nov_04_1352,P1,PLC_L_D2S1,NHG,60.012293674,
stim/posf.jpg,stim/negf.jpg,stim/3.jpg,stim/5.jpg,stim/latef.jpg,AB,1,2,,,,,,,,,,,,,0,24,24,0,,,,,,2,1,0.983018975796,,,,,,2015_Nov_04_1352,P1,PLC_L_D2S1,NHG,60.012293674,
stim/posf.jpg,stim/negf.jpg,stim/6.jpg,stim/4.jpg,stim/latef.jpg,CD,2,4,,,,,,,,,,,,,0,25,25,31,,,,,,2,0,0.599790690296,,,,,,2015_Nov_04_1352,P1,PLC_L_D2S1,NHG,60.012293674,
stim/posf.jpg,stim/negf.jpg,stim/5.jpg,stim/3.jpg,stim/latef.jpg,AB,2,4,,,,,,,,,,,,,0,26,26,11,,,,,,4,1,1.0829724378,,,,,,2015_Nov_04_1352,P1,PLC_L_D2S1,NHG,60.012293674,
stim/posf.jpg,stim/negf.jpg,stim/4.jpg,stim/6.jpg,stim/latef.jpg,CD,1,2,,,,,,,,,,,,,0,27,27,24,,,,,,4,0,0.616488044452,,,,,,2015_Nov_04_1352,P1,PLC_L_D2S1,NHG,60.012293674,
stim/posf.jpg,stim/negf.jpg,stim/5.jpg,stim/3.jpg,stim/latef.jpg,AB,2,4,,,,,,,,,,,,,0,28,28,13,,,,,,4,1,1.09964556658,,,,,,2015_Nov_04_1352,P1,PLC_L_D2S1,NHG,60.012293674,
stim/posf.jpg,stim/negf.jpg,stim/2.jpg,stim/1.jpg,stim/latef.jpg,EF,2,4,,,,,,,,,,,,,0,29,29,55,,,,,,4,1,0.849702086452,,,,,,2015_Nov_04_1352,P1,PLC_L_D2S1,NHG,60.012293674,
stim/negf.jpg,stim/posf.jpg,stim/6.jpg,stim/4.jpg,stim/latef.jpg,CD,2,4,,,,,,,,,,,,,0,30,30,37,,,,,,4,1,0.799737986934,,,,,,2015_Nov_04_1352,P1,PLC_L_D2S1,NHG,60.012293674,
stim/negf.jpg,stim/posf.jpg,stim/2.jpg,stim/1.jpg,stim/latef.jpg,EF,2,4,,,,,,,,,,,,,0,31,31,57,,,,,,4,1,0.949693214337,,,,,,2015_Nov_04_1352,P1,PLC_L_D2S1,NHG,60.012293674,
stim/negf.jpg,stim/posf.jpg,stim/3.jpg,stim/5.jpg,stim/latef.jpg,AB,1,2,,,,,,,,,,,,,0,32,32,9,,,,,,2,1,0.533159260456,,,,,,2015_Nov_04_1352,P1,PLC_L_D2S1,NHG,60.012293674,
stim/posf.jpg,stim/negf.jpg,stim/4.jpg,stim/6.jpg,stim/latef.jpg,CD,1,2,,,,,,,,,,,,,0,33,33,26,,,,,,4,0,0.516505133044,,,,,,2015_Nov_04_1352,P1,PLC_L_D2S1,NHG,60.012293674,
stim/posf.jpg,stim/negf.jpg,stim/3.jpg,stim/5.jpg,stim/latef.jpg,AB,1,2,,,,,,,,,,,,,0,34,34,7,,,,,,2,1,0.649782726443,,,,,,2015_Nov_04_1352,P1,PLC_L_D2S1,NHG,60.012293674,
stim/posf.jpg,stim/negf.jpg,stim/5.jpg,stim/3.jpg,stim/latef.jpg,AB,2,4,,,,,,,,,,,,,0,35,35,16,,,,,,2,0,0.616461085254,,,,,,2015_Nov_04_1352,P1,PLC_L_D2S1,NHG,60.012293674,
stim/posf.jpg,stim/negf.jpg,stim/6.jpg,stim/4.jpg,stim/latef.jpg,CD,2,4,,,,,,,,,,,,,0,36,36,33,,,,,,4,1,0.583181401646,,,,,,2015_Nov_04_1352,P1,PLC_L_D2S1,NHG,60.012293674,
stim/negf.jpg,stim/posf.jpg,stim/1.jpg,stim/2.jpg,stim/latef.jpg,EF,1,2,,,,,,,,,,,,,0,37,37,49,,,,,,4,0,0.766410460074,,,,,,2015_Nov_04_1352,P1,PLC_L_D2S1,NHG,60.012293674,
stim/posf.jpg,stim/negf.jpg,stim/5.jpg,stim/3.jpg,stim/latef.jpg,AB,2,4,,,,,,,,,,,,,0,38,38,17,,,,,,2,0,0.683123221632,,,,,,2015_Nov_04_1352,P1,PLC_L_D2S1,NHG,60.012293674,
stim/posf.jpg,stim/negf.jpg,stim/5.jpg,stim/3.jpg,stim/latef.jpg,AB,2,4,,,,,,,,,,,,,0,39,39,10,,,,,,4,1,0.73300923151,,,,,,2015_Nov_04_1352,P1,PLC_L_D2S1,NHG,60.012293674,
stim/posf.jpg,stim/negf.jpg,stim/1.jpg,stim/2.jpg,stim/latef.jpg,EF,1,2,,,,,,,,,,,,,0,40,40,43,,,,,,4,0,1.31622972158,,,,,,2015_Nov_04_1352,P1,PLC_L_D2S1,NHG,60.012293674,
stim/negf.jpg,stim/posf.jpg,stim/5.jpg,stim/3.jpg,stim/latef.jpg,AB,2,4,,,,,,,,,,,,,0,41,41,19,,,,,,4,1,1.13295950857,,,,,,2015_Nov_04_1352,P1,PLC_L_D2S1,NHG,60.012293674,
stim/posf.jpg,stim/negf.jpg,stim/2.jpg,stim/1.jpg,stim/latef.jpg,EF,2,4,,,,,,,,,,,,,0,42,42,54,,,,,,4,1,1.19957034909,,,,,,2015_Nov_04_1352,P1,PLC_L_D2S1,NHG,60.012293674,
stim/posf.jpg,stim/negf.jpg,stim/6.jpg,stim/4.jpg,stim/latef.jpg,CD,2,4,,,,,,,,,,,,,0,43,43,36,,,,,,4,1,1.24963388245,,,,,,2015_Nov_04_1352,P1,PLC_L_D2S1,NHG,60.012293674,
stim/negf.jpg,stim/posf.jpg,stim/4.jpg,stim/6.jpg,stim/latef.jpg,CD,1,2,,,,,,,,,,,,,0,44,44,29,,,,,,4,0,0.733129573462,,,,,,2015_Nov_04_1352,P1,PLC_L_D2S1,NHG,60.012293674,
stim/negf.jpg,stim/posf.jpg,stim/2.jpg,stim/1.jpg,stim/latef.jpg,EF,2,4,,,,,,,,,,,,,0,45,45,58,,,,,,4,1,0.466505542063,,,,,,2015_Nov_04_1352,P1,PLC_L_D2S1,NHG,60.012293674,
stim/negf.jpg,stim/posf.jpg,stim/4.jpg,stim/6.jpg,stim/latef.jpg,CD,1,2,,,,,,,,,,,,,0,46,46,27,,,,,,4,0,0.699751643973,,,,,,2015_Nov_04_1352,P1,PLC_L_D2S1,NHG,60.012293674,
stim/posf.jpg,stim/negf.jpg,stim/6.jpg,stim/4.jpg,stim/latef.jpg,CD,2,4,,,,,,,,,,,,,0,47,47,30,,,,,,4,1,1.08298637755,,,,,,2015_Nov_04_1352,P1,PLC_L_D2S1,NHG,60.012293674,
stim/negf.jpg,stim/posf.jpg,stim/6.jpg,stim/4.jpg,stim/latef.jpg,CD,2,4,,,,,,,,,,,,,0,48,48,39,,,,,,4,1,0.716424595303,,,,,,2015_Nov_04_1352,P1,PLC_L_D2S1,NHG,60.012293674,
stim/negf.jpg,stim/posf.jpg,stim/6.jpg,stim/4.jpg,stim/latef.jpg,CD,2,4,,,,,,,,,,,,,0,49,49,38,,,,,,4,1,0.183213572833,,,,,,2015_Nov_04_1352,P1,PLC_L_D2S1,NHG,60.012293674,
stim/negf.jpg,stim/posf.jpg,stim/2.jpg,stim/1.jpg,stim/latef.jpg,EF,2,4,,,,,,,,,,,,,0,50,50,59,,,,,,4,1,1.11627612424,,,,,,2015_Nov_04_1352,P1,PLC_L_D2S1,NHG,60.012293674,
stim/posf.jpg,stim/negf.jpg,stim/5.jpg,stim/3.jpg,stim/latef.jpg,AB,2,4,,,,,,,,,,,,,0,51,51,15,,,,,,4,1,1.34955932061,,,,,,2015_Nov_04_1352,P1,PLC_L_D2S1,NHG,60.012293674,
stim/posf.jpg,stim/negf.jpg,stim/3.jpg,stim/5.jpg,stim/latef.jpg,AB,1,2,,,,,,,,,,,,,0,52,52,3,,,,,,None,0,,,,,,,2015_Nov_04_1352,P1,PLC_L_D2S1,NHG,60.012293674,
stim/posf.jpg,stim/negf.jpg,stim/2.jpg,stim/1.jpg,stim/latef.jpg,EF,2,4,,,,,,,,,,,,,0,53,53,51,,,,,,4,1,0.549838037306,,,,,,2015_Nov_04_1352,P1,PLC_L_D2S1,NHG,60.012293674,
stim/posf.jpg,stim/negf.jpg,stim/1.jpg,stim/2.jpg,stim/latef.jpg,EF,1,2,,,,,,,,,,,,,0,54,54,45,,,,,,2,1,1.03298670536,,,,,,2015_Nov_04_1352,P1,PLC_L_D2S1,NHG,60.012293674,
stim/posf.jpg,stim/negf.jpg,stim/4.jpg,stim/6.jpg,stim/latef.jpg,CD,1,2,,,,,,,,,,,,,0,55,55,21,,,,,,4,0,1.44951512244,,,,,,2015_Nov_04_1352,P1,PLC_L_D2S1,NHG,60.012293674,
stim/posf.jpg,stim/negf.jpg,stim/5.jpg,stim/3.jpg,stim/latef.jpg,AB,2,4,,,,,,,,,,,,,0,56,56,14,,,,,,4,1,0.966341152322,,,,,,2015_Nov_04_1352,P1,PLC_L_D2S1,NHG,60.012293674,
stim/negf.jpg,stim/posf.jpg,stim/4.jpg,stim/6.jpg,stim/latef.jpg,CD,1,2,,,,,,,,,,,,,0,57,57,28,,,,,,2,1,0.86639993083,,,,,,2015_Nov_04_1352,P1,PLC_L_D2S1,NHG,60.012293674,
stim/negf.jpg,stim/posf.jpg,stim/2.jpg,stim/1.jpg,stim/latef.jpg,EF,2,4,,,,,,,,,,,,,0,58,58,56,,,,,,4,1,0.583085188835,,,,,,2015_Nov_04_1352,P1,PLC_L_D2S1,NHG,60.012293674,
stim/posf.jpg,stim/negf.jpg,stim/4.jpg,stim/6.jpg,stim/latef.jpg,CD,1,2,,,,,,,,,,,,,0,59,59,25,,,,,,2,1,0.449899973682,,,,,,2015_Nov_04_1352,P1,PLC_L_D2S1,NHG,60.012293674,
