fb_corr,fb_incorr,symbol2,symbol1,fb_late,pair,position,correct,block_01.thisRepN,block_01.thisTrialN,block_01.thisN,block_01.thisIndex,block_02.thisRepN,block_02.thisTrialN,block_02.thisN,block_02.thisIndex,block_03.thisRepN,block_03.thisTrialN,block_03.thisN,block_03.thisIndex,block_04.thisRepN,block_04.thisTrialN,block_04.thisN,block_04.thisIndex,mouse.x,mouse.y,mouse.leftButton,mouse.midButton,mouse.rightButton,buttonBox_2.keys,buttonBox_2.corr,buttonBox_2.rt,mouse_2.x,mouse_2.y,mouse_2.leftButton,mouse_2.midButton,mouse_2.rightButton,date,Participant,expName,Group,frameRate,
,,,,,,,,,,,,,,,,,,,,,,,,0.9984375,1.0,1,0,0,,,,,,,,,2015_Nov_04_1500,P2,PLC_L_D2S1,NHG,60.0211984255,
stim/posf.jpg,stim/negf.jpg,stim/5.jpg,stim/1.jpg,stim/latef.jpg,CD,2,4,0,0,0,32,,,,,,,,,,,,,,,,,,4,1,0.733126045667,,,,,,2015_Nov_04_1500,P2,PLC_L_D2S1,NHG,60.0211984255,
stim/posf.jpg,stim/negf.jpg,stim/2.jpg,stim/4.jpg,stim/latef.jpg,AB,1,2,0,1,1,5,,,,,,,,,,,,,,,,,,2,1,0.983020494583,,,,,,2015_Nov_04_1500,P2,PLC_L_D2S1,NHG,60.0211984255,
stim/posf.jpg,stim/negf.jpg,stim/4.jpg,stim/2.jpg,stim/latef.jpg,AB,2,4,0,2,2,14,,,,,,,,,,,,,,,,,,4,1,1.06632302314,,,,,,2015_Nov_04_1500,P2,PLC_L_D2S1,NHG,60.0211984255,
stim/negf.jpg,stim/posf.jpg,stim/3.jpg,stim/6.jpg,stim/latef.jpg,EF,2,4,0,3,3,58,,,,,,,,,,,,,,,,,,2,0,1.01632575996,,,,,,2015_Nov_04_1500,P2,PLC_L_D2S1,NHG,60.0211984255,
stim/negf.jpg,stim/posf.jpg,stim/2.jpg,stim/4.jpg,stim/latef.jpg,AB,1,2,0,4,4,8,,,,,,,,,,,,,,,,,,2,1,0.783049931957,,,,,,2015_Nov_04_1500,P2,PLC_L_D2S1,NHG,60.0211984255,
stim/posf.jpg,stim/negf.jpg,stim/2.jpg,stim/4.jpg,stim/latef.jpg,AB,1,2,0,5,5,3,,,,,,,,,,,,,,,,,,2,1,0.716452604112,,,,,,2015_Nov_04_1500,P2,PLC_L_D2S1,NHG,60.0211984255,
stim/posf.jpg,stim/negf.jpg,stim/4.jpg,stim/2.jpg,stim/latef.jpg,AB,2,4,0,6,6,10,,,,,,,,,,,,,,,,,,4,1,0.633126605062,,,,,,2015_Nov_04_1500,P2,PLC_L_D2S1,NHG,60.0211984255,
stim/posf.jpg,stim/negf.jpg,stim/2.jpg,stim/4.jpg,stim/latef.jpg,AB,1,2,0,7,7,0,,,,,,,,,,,,,,,,,,2,1,0.649708976627,,,,,,2015_Nov_04_1500,P2,PLC_L_D2S1,NHG,60.0211984255,
stim/negf.jpg,stim/posf.jpg,stim/3.jpg,stim/6.jpg,stim/latef.jpg,EF,2,4,0,8,8,59,,,,,,,,,,,,,,,,,,2,0,0.783141332773,,,,,,2015_Nov_04_1500,P2,PLC_L_D2S1,NHG,60.0211984255,
stim/posf.jpg,stim/negf.jpg,stim/1.jpg,stim/5.jpg,stim/latef.jpg,CD,1,2,0,9,9,25,,,,,,,,,,,,,,,,,,2,1,0.81633429222,,,,,,2015_Nov_04_1500,P2,PLC_L_D2S1,NHG,60.0211984255,
stim/posf.jpg,stim/negf.jpg,stim/3.jpg,stim/6.jpg,stim/latef.jpg,EF,2,4,0,10,10,52,,,,,,,,,,,,,,,,,,2,0,0.899717490847,,,,,,2015_Nov_04_1500,P2,PLC_L_D2S1,NHG,60.0211984255,
stim/posf.jpg,stim/negf.jpg,stim/3.jpg,stim/6.jpg,stim/latef.jpg,EF,2,4,0,11,11,51,,,,,,,,,,,,,,,,,,2,0,0.666427404303,,,,,,2015_Nov_04_1500,P2,PLC_L_D2S1,NHG,60.0211984255,
stim/posf.jpg,stim/negf.jpg,stim/2.jpg,stim/4.jpg,stim/latef.jpg,AB,1,2,0,12,12,2,,,,,,,,,,,,,,,,,,2,1,0.716411248035,,,,,,2015_Nov_04_1500,P2,PLC_L_D2S1,NHG,60.0211984255,
stim/posf.jpg,stim/negf.jpg,stim/1.jpg,stim/5.jpg,stim/latef.jpg,CD,1,2,0,13,13,20,,,,,,,,,,,,,,,,,,2,1,0.949681930211,,,,,,2015_Nov_04_1500,P2,PLC_L_D2S1,NHG,60.0211984255,
stim/negf.jpg,stim/posf.jpg,stim/5.jpg,stim/1.jpg,stim/latef.jpg,CD,2,4,0,14,14,37,,,,,,,,,,,,,,,,,,4,1,0.783094226361,,,,,,2015_Nov_04_1500,P2,PLC_L_D2S1,NHG,60.0211984255,
stim/posf.jpg,stim/negf.jpg,stim/5.jpg,stim/1.jpg,stim/latef.jpg,CD,2,4,0,15,15,30,,,,,,,,,,,,,,,,,,4,1,0.683107760095,,,,,,2015_Nov_04_1500,P2,PLC_L_D2S1,NHG,60.0211984255,
stim/negf.jpg,stim/posf.jpg,stim/1.jpg,stim/5.jpg,stim/latef.jpg,CD,1,2,0,16,16,29,,,,,,,,,,,,,,,,,,2,1,0.766409987893,,,,,,2015_Nov_04_1500,P2,PLC_L_D2S1,NHG,60.0211984255,
stim/posf.jpg,stim/negf.jpg,stim/1.jpg,stim/5.jpg,stim/latef.jpg,CD,1,2,0,17,17,21,,,,,,,,,,,,,,,,,,2,1,0.633127937384,,,,,,2015_Nov_04_1500,P2,PLC_L_D2S1,NHG,60.0211984255,
stim/posf.jpg,stim/negf.jpg,stim/1.jpg,stim/5.jpg,stim/latef.jpg,CD,1,2,0,18,18,24,,,,,,,,,,,,,,,,,,2,1,0.883041489913,,,,,,2015_Nov_04_1500,P2,PLC_L_D2S1,NHG,60.0211984255,
stim/posf.jpg,stim/negf.jpg,stim/1.jpg,stim/5.jpg,stim/latef.jpg,CD,1,2,0,19,19,22,,,,,,,,,,,,,,,,,,2,1,0.599800843604,,,,,,2015_Nov_04_1500,P2,PLC_L_D2S1,NHG,60.0211984255,
stim/posf.jpg,stim/negf.jpg,stim/4.jpg,stim/2.jpg,stim/latef.jpg,AB,2,4,0,20,20,16,,,,,,,,,,,,,,,,,,4,1,0.849708856324,,,,,,2015_Nov_04_1500,P2,PLC_L_D2S1,NHG,60.0211984255,
stim/posf.jpg,stim/negf.jpg,stim/3.jpg,stim/6.jpg,stim/latef.jpg,EF,2,4,0,21,21,54,,,,,,,,,,,,,,,,,,2,0,1.19961250818,,,,,,2015_Nov_04_1500,P2,PLC_L_D2S1,NHG,60.0211984255,
stim/negf.jpg,stim/posf.jpg,stim/1.jpg,stim/5.jpg,stim/latef.jpg,CD,1,2,0,22,22,28,,,,,,,,,,,,,,,,,,2,1,0.799755556724,,,,,,2015_Nov_04_1500,P2,PLC_L_D2S1,NHG,60.0211984255,
stim/negf.jpg,stim/posf.jpg,stim/6.jpg,stim/3.jpg,stim/latef.jpg,EF,1,2,0,23,23,49,,,,,,,,,,,,,,,,,,4,0,0.932968058885,,,,,,2015_Nov_04_1500,P2,PLC_L_D2S1,NHG,60.0211984255,
stim/posf.jpg,stim/negf.jpg,stim/2.jpg,stim/4.jpg,stim/latef.jpg,AB,1,2,0,24,24,6,,,,,,,,,,,,,,,,,,2,1,0.866406790927,,,,,,2015_Nov_04_1500,P2,PLC_L_D2S1,NHG,60.0211984255,
stim/posf.jpg,stim/negf.jpg,stim/5.jpg,stim/1.jpg,stim/latef.jpg,CD,2,4,0,25,25,33,,,,,,,,,,,,,,,,,,4,1,0.733156866489,,,,,,2015_Nov_04_1500,P2,PLC_L_D2S1,NHG,60.0211984255,
stim/posf.jpg,stim/negf.jpg,stim/6.jpg,stim/3.jpg,stim/latef.jpg,EF,1,2,0,26,26,41,,,,,,,,,,,,,,,,,,4,0,0.749742462085,,,,,,2015_Nov_04_1500,P2,PLC_L_D2S1,NHG,60.0211984255,
stim/negf.jpg,stim/posf.jpg,stim/5.jpg,stim/1.jpg,stim/latef.jpg,CD,2,4,0,27,27,39,,,,,,,,,,,,,,,,,,4,1,0.666442462836,,,,,,2015_Nov_04_1500,P2,PLC_L_D2S1,NHG,60.0211984255,
stim/posf.jpg,stim/negf.jpg,stim/5.jpg,stim/1.jpg,stim/latef.jpg,CD,2,4,0,28,28,36,,,,,,,,,,,,,,,,,,4,1,0.649756861978,,,,,,2015_Nov_04_1500,P2,PLC_L_D2S1,NHG,60.0211984255,
stim/posf.jpg,stim/negf.jpg,stim/6.jpg,stim/3.jpg,stim/latef.jpg,EF,1,2,0,29,29,44,,,,,,,,,,,,,,,,,,4,0,0.76640999391,,,,,,2015_Nov_04_1500,P2,PLC_L_D2S1,NHG,60.0211984255,
stim/negf.jpg,stim/posf.jpg,stim/4.jpg,stim/2.jpg,stim/latef.jpg,AB,2,4,0,30,30,19,,,,,,,,,,,,,,,,,,4,1,0.816291309085,,,,,,2015_Nov_04_1500,P2,PLC_L_D2S1,NHG,60.0211984255,
stim/negf.jpg,stim/posf.jpg,stim/5.jpg,stim/1.jpg,stim/latef.jpg,CD,2,4,0,31,31,38,,,,,,,,,,,,,,,,,,4,1,0.799730386989,,,,,,2015_Nov_04_1500,P2,PLC_L_D2S1,NHG,60.0211984255,
stim/negf.jpg,stim/posf.jpg,stim/2.jpg,stim/4.jpg,stim/latef.jpg,AB,1,2,0,32,32,9,,,,,,,,,,,,,,,,,,2,1,0.966370153608,,,,,,2015_Nov_04_1500,P2,PLC_L_D2S1,NHG,60.0211984255,
stim/posf.jpg,stim/negf.jpg,stim/4.jpg,stim/2.jpg,stim/latef.jpg,AB,2,4,0,33,33,11,,,,,,,,,,,,,,,,,,4,1,0.666440910969,,,,,,2015_Nov_04_1500,P2,PLC_L_D2S1,NHG,60.0211984255,
stim/posf.jpg,stim/negf.jpg,stim/2.jpg,stim/4.jpg,stim/latef.jpg,AB,1,2,0,34,34,7,,,,,,,,,,,,,,,,,,2,1,0.46650715408,,,,,,2015_Nov_04_1500,P2,PLC_L_D2S1,NHG,60.0211984255,
stim/posf.jpg,stim/negf.jpg,stim/5.jpg,stim/1.jpg,stim/latef.jpg,CD,2,4,0,35,35,31,,,,,,,,,,,,,,,,,,4,1,0.699824656956,,,,,,2015_Nov_04_1500,P2,PLC_L_D2S1,NHG,60.0211984255,
stim/posf.jpg,stim/negf.jpg,stim/3.jpg,stim/6.jpg,stim/latef.jpg,EF,2,4,0,36,36,50,,,,,,,,,,,,,,,,,,2,0,0.699765713038,,,,,,2015_Nov_04_1500,P2,PLC_L_D2S1,NHG,60.0211984255,
stim/posf.jpg,stim/negf.jpg,stim/6.jpg,stim/3.jpg,stim/latef.jpg,EF,1,2,0,37,37,43,,,,,,,,,,,,,,,,,,4,0,1.49950307742,,,,,,2015_Nov_04_1500,P2,PLC_L_D2S1,NHG,60.0211984255,
stim/posf.jpg,stim/negf.jpg,stim/1.jpg,stim/5.jpg,stim/latef.jpg,CD,1,2,0,38,38,26,,,,,,,,,,,,,,,,,,2,1,0.933016398376,,,,,,2015_Nov_04_1500,P2,PLC_L_D2S1,NHG,60.0211984255,
stim/posf.jpg,stim/negf.jpg,stim/6.jpg,stim/3.jpg,stim/latef.jpg,EF,1,2,0,39,39,40,,,,,,,,,,,,,,,,,,4,0,0.982990179022,,,,,,2015_Nov_04_1500,P2,PLC_L_D2S1,NHG,60.0211984255,
stim/posf.jpg,stim/negf.jpg,stim/2.jpg,stim/4.jpg,stim/latef.jpg,AB,1,2,0,40,40,4,,,,,,,,,,,,,,,,,,2,1,0.766389380533,,,,,,2015_Nov_04_1500,P2,PLC_L_D2S1,NHG,60.0211984255,
stim/negf.jpg,stim/posf.jpg,stim/6.jpg,stim/3.jpg,stim/latef.jpg,EF,1,2,0,41,41,48,,,,,,,,,,,,,,,,,,4,0,0.966359332637,,,,,,2015_Nov_04_1500,P2,PLC_L_D2S1,NHG,60.0211984255,
stim/posf.jpg,stim/negf.jpg,stim/3.jpg,stim/6.jpg,stim/latef.jpg,EF,2,4,0,42,42,55,,,,,,,,,,,,,,,,,,2,0,0.949683713654,,,,,,2015_Nov_04_1500,P2,PLC_L_D2S1,NHG,60.0211984255,
stim/posf.jpg,stim/negf.jpg,stim/4.jpg,stim/2.jpg,stim/latef.jpg,AB,2,4,0,43,43,15,,,,,,,,,,,,,,,,,,4,1,0.81638687228,,,,,,2015_Nov_04_1500,P2,PLC_L_D2S1,NHG,60.0211984255,
stim/negf.jpg,stim/posf.jpg,stim/1.jpg,stim/5.jpg,stim/latef.jpg,CD,1,2,0,44,44,27,,,,,,,,,,,,,,,,,,2,1,0.783069679175,,,,,,2015_Nov_04_1500,P2,PLC_L_D2S1,NHG,60.0211984255,
stim/posf.jpg,stim/negf.jpg,stim/1.jpg,stim/5.jpg,stim/latef.jpg,CD,1,2,0,45,45,23,,,,,,,,,,,,,,,,,,2,1,0.849700065413,,,,,,2015_Nov_04_1500,P2,PLC_L_D2S1,NHG,60.0211984255,
stim/negf.jpg,stim/posf.jpg,stim/3.jpg,stim/6.jpg,stim/latef.jpg,EF,2,4,0,46,46,57,,,,,,,,,,,,,,,,,,2,0,1.18299891881,,,,,,2015_Nov_04_1500,P2,PLC_L_D2S1,NHG,60.0211984255,
stim/negf.jpg,stim/posf.jpg,stim/6.jpg,stim/3.jpg,stim/latef.jpg,EF,1,2,0,47,47,47,,,,,,,,,,,,,,,,,,4,0,1.08296564086,,,,,,2015_Nov_04_1500,P2,PLC_L_D2S1,NHG,60.0211984255,
stim/posf.jpg,stim/negf.jpg,stim/5.jpg,stim/1.jpg,stim/latef.jpg,CD,2,4,0,48,48,34,,,,,,,,,,,,,,,,,,4,1,1.34956440327,,,,,,2015_Nov_04_1500,P2,PLC_L_D2S1,NHG,60.0211984255,
stim/posf.jpg,stim/negf.jpg,stim/5.jpg,stim/1.jpg,stim/latef.jpg,CD,2,4,0,49,49,35,,,,,,,,,,,,,,,,,,4,1,0.916366388221,,,,,,2015_Nov_04_1500,P2,PLC_L_D2S1,NHG,60.0211984255,
stim/posf.jpg,stim/negf.jpg,stim/6.jpg,stim/3.jpg,stim/latef.jpg,EF,1,2,0,50,50,42,,,,,,,,,,,,,,,,,,4,0,1.16627506259,,,,,,2015_Nov_04_1500,P2,PLC_L_D2S1,NHG,60.0211984255,
stim/negf.jpg,stim/posf.jpg,stim/3.jpg,stim/6.jpg,stim/latef.jpg,EF,2,4,0,51,51,56,,,,,,,,,,,,,,,,,,2,0,0.8997009015,,,,,,2015_Nov_04_1500,P2,PLC_L_D2S1,NHG,60.0211984255,
stim/posf.jpg,stim/negf.jpg,stim/4.jpg,stim/2.jpg,stim/latef.jpg,AB,2,4,0,52,52,13,,,,,,,,,,,,,,,,,,4,1,0.699764389741,,,,,,2015_Nov_04_1500,P2,PLC_L_D2S1,NHG,60.0211984255,
stim/posf.jpg,stim/negf.jpg,stim/3.jpg,stim/6.jpg,stim/latef.jpg,EF,2,4,0,53,53,53,,,,,,,,,,,,,,,,,,2,0,0.883032431335,,,,,,2015_Nov_04_1500,P2,PLC_L_D2S1,NHG,60.0211984255,
stim/posf.jpg,stim/negf.jpg,stim/6.jpg,stim/3.jpg,stim/latef.jpg,EF,1,2,0,54,54,45,,,,,,,,,,,,,,,,,,4,0,0.649822365245,,,,,,2015_Nov_04_1500,P2,PLC_L_D2S1,NHG,60.0211984255,
stim/posf.jpg,stim/negf.jpg,stim/4.jpg,stim/2.jpg,stim/latef.jpg,AB,2,4,0,55,55,12,,,,,,,,,,,,,,,,,,4,1,0.916355738678,,,,,,2015_Nov_04_1500,P2,PLC_L_D2S1,NHG,60.0211984255,
stim/negf.jpg,stim/posf.jpg,stim/6.jpg,stim/3.jpg,stim/latef.jpg,EF,1,2,0,56,56,46,,,,,,,,,,,,,,,,,,4,0,0.966346770325,,,,,,2015_Nov_04_1500,P2,PLC_L_D2S1,NHG,60.0211984255,
stim/posf.jpg,stim/negf.jpg,stim/2.jpg,stim/4.jpg,stim/latef.jpg,AB,1,2,0,57,57,1,,,,,,,,,,,,,,,,,,2,1,0.91628150766,,,,,,2015_Nov_04_1500,P2,PLC_L_D2S1,NHG,60.0211984255,
stim/negf.jpg,stim/posf.jpg,stim/4.jpg,stim/2.jpg,stim/latef.jpg,AB,2,4,0,58,58,18,,,,,,,,,,,,,,,,,,4,1,0.733092927123,,,,,,2015_Nov_04_1500,P2,PLC_L_D2S1,NHG,60.0211984255,
stim/posf.jpg,stim/negf.jpg,stim/4.jpg,stim/2.jpg,stim/latef.jpg,AB,2,4,0,59,59,17,,,,,,,,,,,,,,,,,,4,1,0.699757824379,,,,,,2015_Nov_04_1500,P2,PLC_L_D2S1,NHG,60.0211984255,
,,,,,,,,,,,,,,,,,,,,,,,,,,,,,,,,0.9984375,1.0,1,0,0,2015_Nov_04_1500,P2,PLC_L_D2S1,NHG,60.0211984255,
stim/posf.jpg,stim/negf.jpg,stim/6.jpg,stim/3.jpg,stim/latef.jpg,EF,1,2,,,,,0,0,0,44,,,,,,,,,,,,,,4,0,1.29955358832,,,,,,2015_Nov_04_1500,P2,PLC_L_D2S1,NHG,60.0211984255,
stim/negf.jpg,stim/posf.jpg,stim/5.jpg,stim/1.jpg,stim/latef.jpg,CD,2,4,,,,,0,1,1,38,,,,,,,,,,,,,,4,1,1.03298545425,,,,,,2015_Nov_04_1500,P2,PLC_L_D2S1,NHG,60.0211984255,
stim/posf.jpg,stim/negf.jpg,stim/1.jpg,stim/5.jpg,stim/latef.jpg,CD,1,2,,,,,0,2,2,20,,,,,,,,,,,,,,2,1,0.633113805161,,,,,,2015_Nov_04_1500,P2,PLC_L_D2S1,NHG,60.0211984255,
stim/posf.jpg,stim/negf.jpg,stim/1.jpg,stim/5.jpg,stim/latef.jpg,CD,1,2,,,,,0,3,3,24,,,,,,,,,,,,,,2,1,0.783096286494,,,,,,2015_Nov_04_1500,P2,PLC_L_D2S1,NHG,60.0211984255,
stim/negf.jpg,stim/posf.jpg,stim/3.jpg,stim/6.jpg,stim/latef.jpg,EF,2,4,,,,,0,4,4,59,,,,,,,,,,,,,,2,0,0.883040377139,,,,,,2015_Nov_04_1500,P2,PLC_L_D2S1,NHG,60.0211984255,
stim/posf.jpg,stim/negf.jpg,stim/6.jpg,stim/3.jpg,stim/latef.jpg,EF,1,2,,,,,0,5,5,41,,,,,,,,,,,,,,4,0,0.683119083318,,,,,,2015_Nov_04_1500,P2,PLC_L_D2S1,NHG,60.0211984255,
stim/posf.jpg,stim/negf.jpg,stim/4.jpg,stim/2.jpg,stim/latef.jpg,AB,2,4,,,,,0,6,6,14,,,,,,,,,,,,,,2,0,0.5164962489,,,,,,2015_Nov_04_1500,P2,PLC_L_D2S1,NHG,60.0211984255,
stim/posf.jpg,stim/negf.jpg,stim/6.jpg,stim/3.jpg,stim/latef.jpg,EF,1,2,,,,,0,7,7,40,,,,,,,,,,,,,,4,0,0.799731752391,,,,,,2015_Nov_04_1500,P2,PLC_L_D2S1,NHG,60.0211984255,
stim/posf.jpg,stim/negf.jpg,stim/2.jpg,stim/4.jpg,stim/latef.jpg,AB,1,2,,,,,0,8,8,7,,,,,,,,,,,,,,2,1,0.866382388103,,,,,,2015_Nov_04_1500,P2,PLC_L_D2S1,NHG,60.0211984255,
stim/negf.jpg,stim/posf.jpg,stim/3.jpg,stim/6.jpg,stim/latef.jpg,EF,2,4,,,,,0,9,9,58,,,,,,,,,,,,,,2,0,0.749730759919,,,,,,2015_Nov_04_1500,P2,PLC_L_D2S1,NHG,60.0211984255,
stim/posf.jpg,stim/negf.jpg,stim/2.jpg,stim/4.jpg,stim/latef.jpg,AB,1,2,,,,,0,10,10,2,,,,,,,,,,,,,,2,1,0.766423389297,,,,,,2015_Nov_04_1500,P2,PLC_L_D2S1,NHG,60.0211984255,
stim/posf.jpg,stim/negf.jpg,stim/1.jpg,stim/5.jpg,stim/latef.jpg,CD,1,2,,,,,0,11,11,23,,,,,,,,,,,,,,2,1,0.749729881729,,,,,,2015_Nov_04_1500,P2,PLC_L_D2S1,NHG,60.0211984255,
stim/posf.jpg,stim/negf.jpg,stim/3.jpg,stim/6.jpg,stim/latef.jpg,EF,2,4,,,,,0,12,12,52,,,,,,,,,,,,,,2,0,0.683160150678,,,,,,2015_Nov_04_1500,P2,PLC_L_D2S1,NHG,60.0211984255,
stim/posf.jpg,stim/negf.jpg,stim/5.jpg,stim/1.jpg,stim/latef.jpg,CD,2,4,,,,,0,13,13,30,,,,,,,,,,,,,,4,1,0.733088906098,,,,,,2015_Nov_04_1500,P2,PLC_L_D2S1,NHG,60.0211984255,
stim/posf.jpg,stim/negf.jpg,stim/5.jpg,stim/1.jpg,stim/latef.jpg,CD,2,4,,,,,0,14,14,32,,,,,,,,,,,,,,4,1,0.916348466551,,,,,,2015_Nov_04_1500,P2,PLC_L_D2S1,NHG,60.0211984255,
stim/posf.jpg,stim/negf.jpg,stim/4.jpg,stim/2.jpg,stim/latef.jpg,AB,2,4,,,,,0,15,15,16,,,,,,,,,,,,,,4,1,0.899699713536,,,,,,2015_Nov_04_1500,P2,PLC_L_D2S1,NHG,60.0211984255,
stim/posf.jpg,stim/negf.jpg,stim/4.jpg,stim/2.jpg,stim/latef.jpg,AB,2,4,,,,,0,16,16,17,,,,,,,,,,,,,,4,1,0.749750880066,,,,,,2015_Nov_04_1500,P2,PLC_L_D2S1,NHG,60.0211984255,
stim/posf.jpg,stim/negf.jpg,stim/1.jpg,stim/5.jpg,stim/latef.jpg,CD,1,2,,,,,0,17,17,22,,,,,,,,,,,,,,2,1,0.616475268605,,,,,,2015_Nov_04_1500,P2,PLC_L_D2S1,NHG,60.0211984255,
stim/posf.jpg,stim/negf.jpg,stim/2.jpg,stim/4.jpg,stim/latef.jpg,AB,1,2,,,,,0,18,18,1,,,,,,,,,,,,,,2,1,0.649802332315,,,,,,2015_Nov_04_1500,P2,PLC_L_D2S1,NHG,60.0211984255,
stim/negf.jpg,stim/posf.jpg,stim/6.jpg,stim/3.jpg,stim/latef.jpg,EF,1,2,,,,,0,19,19,46,,,,,,,,,,,,,,4,0,0.866375368609,,,,,,2015_Nov_04_1500,P2,PLC_L_D2S1,NHG,60.0211984255,
stim/posf.jpg,stim/negf.jpg,stim/3.jpg,stim/6.jpg,stim/latef.jpg,EF,2,4,,,,,0,20,20,54,,,,,,,,,,,,,,2,0,0.599803565387,,,,,,2015_Nov_04_1500,P2,PLC_L_D2S1,NHG,60.0211984255,
stim/posf.jpg,stim/negf.jpg,stim/2.jpg,stim/4.jpg,stim/latef.jpg,AB,1,2,,,,,0,21,21,4,,,,,,,,,,,,,,2,1,0.81639328727,,,,,,2015_Nov_04_1500,P2,PLC_L_D2S1,NHG,60.0211984255,
stim/posf.jpg,stim/negf.jpg,stim/5.jpg,stim/1.jpg,stim/latef.jpg,CD,2,4,,,,,0,22,22,33,,,,,,,,,,,,,,4,1,0.649814016437,,,,,,2015_Nov_04_1500,P2,PLC_L_D2S1,NHG,60.0211984255,
stim/posf.jpg,stim/negf.jpg,stim/5.jpg,stim/1.jpg,stim/latef.jpg,CD,2,4,,,,,0,23,23,31,,,,,,,,,,,,,,4,1,1.1829435508,,,,,,2015_Nov_04_1500,P2,PLC_L_D2S1,NHG,60.0211984255,
stim/posf.jpg,stim/negf.jpg,stim/1.jpg,stim/5.jpg,stim/latef.jpg,CD,1,2,,,,,0,24,24,21,,,,,,,,,,,,,,2,1,1.08296094917,,,,,,2015_Nov_04_1500,P2,PLC_L_D2S1,NHG,60.0211984255,
stim/negf.jpg,stim/posf.jpg,stim/5.jpg,stim/1.jpg,stim/latef.jpg,CD,2,4,,,,,0,25,25,39,,,,,,,,,,,,,,4,1,1.04964953045,,,,,,2015_Nov_04_1500,P2,PLC_L_D2S1,NHG,60.0211984255,
stim/negf.jpg,stim/posf.jpg,stim/3.jpg,stim/6.jpg,stim/latef.jpg,EF,2,4,,,,,0,26,26,56,,,,,,,,,,,,,,2,0,0.733097297016,,,,,,2015_Nov_04_1500,P2,PLC_L_D2S1,NHG,60.0211984255,
stim/negf.jpg,stim/posf.jpg,stim/6.jpg,stim/3.jpg,stim/latef.jpg,EF,1,2,,,,,0,27,27,47,,,,,,,,,,,,,,4,0,0.949691897054,,,,,,2015_Nov_04_1500,P2,PLC_L_D2S1,NHG,60.0211984255,
stim/posf.jpg,stim/negf.jpg,stim/3.jpg,stim/6.jpg,stim/latef.jpg,EF,2,4,,,,,0,28,28,50,,,,,,,,,,,,,,2,0,1.04965009586,,,,,,2015_Nov_04_1500,P2,PLC_L_D2S1,NHG,60.0211984255,
stim/negf.jpg,stim/posf.jpg,stim/4.jpg,stim/2.jpg,stim/latef.jpg,AB,2,4,,,,,0,29,29,19,,,,,,,,,,,,,,4,1,0.8830402809,,,,,,2015_Nov_04_1500,P2,PLC_L_D2S1,NHG,60.0211984255,
stim/posf.jpg,stim/negf.jpg,stim/4.jpg,stim/2.jpg,stim/latef.jpg,AB,2,4,,,,,0,30,30,11,,,,,,,,,,,,,,4,1,0.499832659905,,,,,,2015_Nov_04_1500,P2,PLC_L_D2S1,NHG,60.0211984255,
stim/posf.jpg,stim/negf.jpg,stim/4.jpg,stim/2.jpg,stim/latef.jpg,AB,2,4,,,,,0,31,31,10,,,,,,,,,,,,,,4,1,0.566466339351,,,,,,2015_Nov_04_1500,P2,PLC_L_D2S1,NHG,60.0211984255,
stim/posf.jpg,stim/negf.jpg,stim/1.jpg,stim/5.jpg,stim/latef.jpg,CD,1,2,,,,,0,32,32,25,,,,,,,,,,,,,,2,1,1.29958188285,,,,,,2015_Nov_04_1500,P2,PLC_L_D2S1,NHG,60.0211984255,
stim/posf.jpg,stim/negf.jpg,stim/6.jpg,stim/3.jpg,stim/latef.jpg,EF,1,2,,,,,0,33,33,43,,,,,,,,,,,,,,2,1,0.716385515898,,,,,,2015_Nov_04_1500,P2,PLC_L_D2S1,NHG,60.0211984255,
stim/posf.jpg,stim/negf.jpg,stim/3.jpg,stim/6.jpg,stim/latef.jpg,EF,2,4,,,,,0,34,34,55,,,,,,,,,,,,,,2,0,1.24958606627,,,,,,2015_Nov_04_1500,P2,PLC_L_D2S1,NHG,60.0211984255,
stim/posf.jpg,stim/negf.jpg,stim/5.jpg,stim/1.jpg,stim/latef.jpg,CD,2,4,,,,,0,35,35,34,,,,,,,,,,,,,,4,1,0.633063628095,,,,,,2015_Nov_04_1500,P2,PLC_L_D2S1,NHG,60.0211984255,
stim/posf.jpg,stim/negf.jpg,stim/1.jpg,stim/5.jpg,stim/latef.jpg,CD,1,2,,,,,0,36,36,26,,,,,,,,,,,,,,2,1,0.883022410359,,,,,,2015_Nov_04_1500,P2,PLC_L_D2S1,NHG,60.0211984255,
stim/negf.jpg,stim/posf.jpg,stim/6.jpg,stim/3.jpg,stim/latef.jpg,EF,1,2,,,,,0,37,37,49,,,,,,,,,,,,,,4,0,0.966354039443,,,,,,2015_Nov_04_1500,P2,PLC_L_D2S1,NHG,60.0211984255,
stim/negf.jpg,stim/posf.jpg,stim/2.jpg,stim/4.jpg,stim/latef.jpg,AB,1,2,,,,,0,38,38,8,,,,,,,,,,,,,,2,1,0.64979650078,,,,,,2015_Nov_04_1500,P2,PLC_L_D2S1,NHG,60.0211984255,
stim/posf.jpg,stim/negf.jpg,stim/4.jpg,stim/2.jpg,stim/latef.jpg,AB,2,4,,,,,0,39,39,12,,,,,,,,,,,,,,4,1,0.566488922639,,,,,,2015_Nov_04_1500,P2,PLC_L_D2S1,NHG,60.0211984255,
stim/negf.jpg,stim/posf.jpg,stim/6.jpg,stim/3.jpg,stim/latef.jpg,EF,1,2,,,,,0,40,40,48,,,,,,,,,,,,,,4,0,0.74976644386,,,,,,2015_Nov_04_1500,P2,PLC_L_D2S1,NHG,60.0211984255,
stim/posf.jpg,stim/negf.jpg,stim/3.jpg,stim/6.jpg,stim/latef.jpg,EF,2,4,,,,,0,41,41,51,,,,,,,,,,,,,,2,0,0.649783767039,,,,,,2015_Nov_04_1500,P2,PLC_L_D2S1,NHG,60.0211984255,
stim/negf.jpg,stim/posf.jpg,stim/2.jpg,stim/4.jpg,stim/latef.jpg,AB,1,2,,,,,0,42,42,9,,,,,,,,,,,,,,2,1,0.633122845691,,,,,,2015_Nov_04_1500,P2,PLC_L_D2S1,NHG,60.0211984255,
stim/negf.jpg,stim/posf.jpg,stim/1.jpg,stim/5.jpg,stim/latef.jpg,CD,1,2,,,,,0,43,43,27,,,,,,,,,,,,,,2,1,0.866351946224,,,,,,2015_Nov_04_1500,P2,PLC_L_D2S1,NHG,60.0211984255,
stim/posf.jpg,stim/negf.jpg,stim/6.jpg,stim/3.jpg,stim/latef.jpg,EF,1,2,,,,,0,44,44,42,,,,,,,,,,,,,,4,0,0.716427741147,,,,,,2015_Nov_04_1500,P2,PLC_L_D2S1,NHG,60.0211984255,
stim/posf.jpg,stim/negf.jpg,stim/2.jpg,stim/4.jpg,stim/latef.jpg,AB,1,2,,,,,0,45,45,6,,,,,,,,,,,,,,2,1,0.766414709666,,,,,,2015_Nov_04_1500,P2,PLC_L_D2S1,NHG,60.0211984255,
stim/negf.jpg,stim/posf.jpg,stim/1.jpg,stim/5.jpg,stim/latef.jpg,CD,1,2,,,,,0,46,46,28,,,,,,,,,,,,,,2,1,0.783071209993,,,,,,2015_Nov_04_1500,P2,PLC_L_D2S1,NHG,60.0211984255,
stim/negf.jpg,stim/posf.jpg,stim/5.jpg,stim/1.jpg,stim/latef.jpg,CD,2,4,,,,,0,47,47,37,,,,,,,,,,,,,,4,1,0.8163944632,,,,,,2015_Nov_04_1500,P2,PLC_L_D2S1,NHG,60.0211984255,
stim/negf.jpg,stim/posf.jpg,stim/4.jpg,stim/2.jpg,stim/latef.jpg,AB,2,4,,,,,0,48,48,18,,,,,,,,,,,,,,4,1,0.733093372233,,,,,,2015_Nov_04_1500,P2,PLC_L_D2S1,NHG,60.0211984255,
stim/posf.jpg,stim/negf.jpg,stim/5.jpg,stim/1.jpg,stim/latef.jpg,CD,2,4,,,,,0,49,49,36,,,,,,,,,,,,,,4,1,0.833002136824,,,,,,2015_Nov_04_1500,P2,PLC_L_D2S1,NHG,60.0211984255,
stim/posf.jpg,stim/negf.jpg,stim/4.jpg,stim/2.jpg,stim/latef.jpg,AB,2,4,,,,,0,50,50,15,,,,,,,,,,,,,,4,1,0.899705939053,,,,,,2015_Nov_04_1500,P2,PLC_L_D2S1,NHG,60.0211984255,
stim/posf.jpg,stim/negf.jpg,stim/6.jpg,stim/3.jpg,stim/latef.jpg,EF,1,2,,,,,0,51,51,45,,,,,,,,,,,,,,4,0,0.783052674789,,,,,,2015_Nov_04_1500,P2,PLC_L_D2S1,NHG,60.0211984255,
stim/posf.jpg,stim/negf.jpg,stim/5.jpg,stim/1.jpg,stim/latef.jpg,CD,2,4,,,,,0,52,52,35,,,,,,,,,,,,,,4,1,0.816382905392,,,,,,2015_Nov_04_1500,P2,PLC_L_D2S1,NHG,60.0211984255,
stim/posf.jpg,stim/negf.jpg,stim/2.jpg,stim/4.jpg,stim/latef.jpg,AB,1,2,,,,,0,53,53,0,,,,,,,,,,,,,,2,1,0.699713957038,,,,,,2015_Nov_04_1500,P2,PLC_L_D2S1,NHG,60.0211984255,
stim/negf.jpg,stim/posf.jpg,stim/1.jpg,stim/5.jpg,stim/latef.jpg,CD,1,2,,,,,0,54,54,29,,,,,,,,,,,,,,2,1,0.649781938482,,,,,,2015_Nov_04_1500,P2,PLC_L_D2S1,NHG,60.0211984255,
stim/posf.jpg,stim/negf.jpg,stim/2.jpg,stim/4.jpg,stim/latef.jpg,AB,1,2,,,,,0,55,55,5,,,,,,,,,,,,,,2,1,0.566510859317,,,,,,2015_Nov_04_1500,P2,PLC_L_D2S1,NHG,60.0211984255,
stim/posf.jpg,stim/negf.jpg,stim/4.jpg,stim/2.jpg,stim/latef.jpg,AB,2,4,,,,,0,56,56,13,,,,,,,,,,,,,,4,1,0.633085612892,,,,,,2015_Nov_04_1500,P2,PLC_L_D2S1,NHG,60.0211984255,
stim/posf.jpg,stim/negf.jpg,stim/2.jpg,stim/4.jpg,stim/latef.jpg,AB,1,2,,,,,0,57,57,3,,,,,,,,,,,,,,2,1,0.499876139278,,,,,,2015_Nov_04_1500,P2,PLC_L_D2S1,NHG,60.0211984255,
stim/posf.jpg,stim/negf.jpg,stim/3.jpg,stim/6.jpg,stim/latef.jpg,EF,2,4,,,,,0,58,58,53,,,,,,,,,,,,,,2,0,0.699767716033,,,,,,2015_Nov_04_1500,P2,PLC_L_D2S1,NHG,60.0211984255,
stim/negf.jpg,stim/posf.jpg,stim/3.jpg,stim/6.jpg,stim/latef.jpg,EF,2,4,,,,,0,59,59,57,,,,,,,,,,,,,,2,0,0.783077059568,,,,,,2015_Nov_04_1500,P2,PLC_L_D2S1,NHG,60.0211984255,
,,,,,,,,,,,,,,,,,,,,,,,,,,,,,,,,0.9984375,1.0,1,0,0,2015_Nov_04_1500,P2,PLC_L_D2S1,NHG,60.0211984255,
stim/posf.jpg,stim/negf.jpg,stim/2.jpg,stim/4.jpg,stim/latef.jpg,AB,1,2,,,,,,,,,0,0,0,7,,,,,,,,,,2,1,0.749744176359,,,,,,2015_Nov_04_1500,P2,PLC_L_D2S1,NHG,60.0211984255,
stim/posf.jpg,stim/negf.jpg,stim/2.jpg,stim/4.jpg,stim/latef.jpg,AB,1,2,,,,,,,,,0,1,1,4,,,,,,,,,,2,1,0.599753475537,,,,,,2015_Nov_04_1500,P2,PLC_L_D2S1,NHG,60.0211984255,
stim/posf.jpg,stim/negf.jpg,stim/1.jpg,stim/5.jpg,stim/latef.jpg,CD,1,2,,,,,,,,,0,2,2,24,,,,,,,,,,2,1,0.66642558176,,,,,,2015_Nov_04_1500,P2,PLC_L_D2S1,NHG,60.0211984255,
stim/posf.jpg,stim/negf.jpg,stim/1.jpg,stim/5.jpg,stim/latef.jpg,CD,1,2,,,,,,,,,0,3,3,25,,,,,,,,,,2,1,0.64979435944,,,,,,2015_Nov_04_1500,P2,PLC_L_D2S1,NHG,60.0211984255,
stim/posf.jpg,stim/negf.jpg,stim/6.jpg,stim/3.jpg,stim/latef.jpg,EF,1,2,,,,,,,,,0,4,4,44,,,,,,,,,,4,0,0.649767448365,,,,,,2015_Nov_04_1500,P2,PLC_L_D2S1,NHG,60.0211984255,
stim/posf.jpg,stim/negf.jpg,stim/5.jpg,stim/1.jpg,stim/latef.jpg,CD,2,4,,,,,,,,,0,5,5,34,,,,,,,,,,4,1,0.74977102127,,,,,,2015_Nov_04_1500,P2,PLC_L_D2S1,NHG,60.0211984255,
stim/posf.jpg,stim/negf.jpg,stim/3.jpg,stim/6.jpg,stim/latef.jpg,EF,2,4,,,,,,,,,0,6,6,51,,,,,,,,,,2,0,0.549742883137,,,,,,2015_Nov_04_1500,P2,PLC_L_D2S1,NHG,60.0211984255,
stim/negf.jpg,stim/posf.jpg,stim/4.jpg,stim/2.jpg,stim/latef.jpg,AB,2,4,,,,,,,,,0,7,7,18,,,,,,,,,,4,1,0.983007839037,,,,,,2015_Nov_04_1500,P2,PLC_L_D2S1,NHG,60.0211984255,
stim/posf.jpg,stim/negf.jpg,stim/4.jpg,stim/2.jpg,stim/latef.jpg,AB,2,4,,,,,,,,,0,8,8,11,,,,,,,,,,4,1,0.849709881881,,,,,,2015_Nov_04_1500,P2,PLC_L_D2S1,NHG,60.0211984255,
stim/posf.jpg,stim/negf.jpg,stim/1.jpg,stim/5.jpg,stim/latef.jpg,CD,1,2,,,,,,,,,0,9,9,23,,,,,,,,,,2,1,0.783066960397,,,,,,2015_Nov_04_1500,P2,PLC_L_D2S1,NHG,60.0211984255,
stim/posf.jpg,stim/negf.jpg,stim/4.jpg,stim/2.jpg,stim/latef.jpg,AB,2,4,,,,,,,,,0,10,10,10,,,,,,,,,,4,1,0.983000942848,,,,,,2015_Nov_04_1500,P2,PLC_L_D2S1,NHG,60.0211984255,
stim/posf.jpg,stim/negf.jpg,stim/4.jpg,stim/2.jpg,stim/latef.jpg,AB,2,4,,,,,,,,,0,11,11,16,,,,,,,,,,4,1,0.616464643124,,,,,,2015_Nov_04_1500,P2,PLC_L_D2S1,NHG,60.0211984255,
stim/negf.jpg,stim/posf.jpg,stim/2.jpg,stim/4.jpg,stim/latef.jpg,AB,1,2,,,,,,,,,0,12,12,8,,,,,,,,,,2,1,0.616471340818,,,,,,2015_Nov_04_1500,P2,PLC_L_D2S1,NHG,60.0211984255,
stim/posf.jpg,stim/negf.jpg,stim/2.jpg,stim/4.jpg,stim/latef.jpg,AB,1,2,,,,,,,,,0,13,13,5,,,,,,,,,,2,1,0.533142782384,,,,,,2015_Nov_04_1500,P2,PLC_L_D2S1,NHG,60.0211984255,
stim/negf.jpg,stim/posf.jpg,stim/3.jpg,stim/6.jpg,stim/latef.jpg,EF,2,4,,,,,,,,,0,14,14,59,,,,,,,,,,2,0,0.7497074819,,,,,,2015_Nov_04_1500,P2,PLC_L_D2S1,NHG,60.0211984255,
stim/posf.jpg,stim/negf.jpg,stim/4.jpg,stim/2.jpg,stim/latef.jpg,AB,2,4,,,,,,,,,0,15,15,12,,,,,,,,,,4,1,0.916314304406,,,,,,2015_Nov_04_1500,P2,PLC_L_D2S1,NHG,60.0211984255,
stim/negf.jpg,stim/posf.jpg,stim/5.jpg,stim/1.jpg,stim/latef.jpg,CD,2,4,,,,,,,,,0,16,16,39,,,,,,,,,,4,1,0.766419139705,,,,,,2015_Nov_04_1500,P2,PLC_L_D2S1,NHG,60.0211984255,
stim/posf.jpg,stim/negf.jpg,stim/2.jpg,stim/4.jpg,stim/latef.jpg,AB,1,2,,,,,,,,,0,17,17,6,,,,,,,,,,2,1,0.599783117421,,,,,,2015_Nov_04_1500,P2,PLC_L_D2S1,NHG,60.0211984255,
stim/posf.jpg,stim/negf.jpg,stim/1.jpg,stim/5.jpg,stim/latef.jpg,CD,1,2,,,,,,,,,0,18,18,20,,,,,,,,,,2,1,0.916362171713,,,,,,2015_Nov_04_1500,P2,PLC_L_D2S1,NHG,60.0211984255,
stim/negf.jpg,stim/posf.jpg,stim/6.jpg,stim/3.jpg,stim/latef.jpg,EF,1,2,,,,,,,,,0,19,19,47,,,,,,,,,,4,0,0.733097814304,,,,,,2015_Nov_04_1500,P2,PLC_L_D2S1,NHG,60.0211984255,
stim/negf.jpg,stim/posf.jpg,stim/1.jpg,stim/5.jpg,stim/latef.jpg,CD,1,2,,,,,,,,,0,20,20,29,,,,,,,,,,2,1,0.949671166381,,,,,,2015_Nov_04_1500,P2,PLC_L_D2S1,NHG,60.0211984255,
stim/posf.jpg,stim/negf.jpg,stim/3.jpg,stim/6.jpg,stim/latef.jpg,EF,2,4,,,,,,,,,0,21,21,50,,,,,,,,,,2,0,0.633127047164,,,,,,2015_Nov_04_1500,P2,PLC_L_D2S1,NHG,60.0211984255,
stim/posf.jpg,stim/negf.jpg,stim/4.jpg,stim/2.jpg,stim/latef.jpg,AB,2,4,,,,,,,,,0,22,22,14,,,,,,,,,,4,1,0.683023294561,,,,,,2015_Nov_04_1500,P2,PLC_L_D2S1,NHG,60.0211984255,
stim/negf.jpg,stim/posf.jpg,stim/6.jpg,stim/3.jpg,stim/latef.jpg,EF,1,2,,,,,,,,,0,23,23,49,,,,,,,,,,4,0,0.949669716771,,,,,,2015_Nov_04_1500,P2,PLC_L_D2S1,NHG,60.0211984255,
stim/posf.jpg,stim/negf.jpg,stim/3.jpg,stim/6.jpg,stim/latef.jpg,EF,2,4,,,,,,,,,0,24,24,52,,,,,,,,,,2,0,0.999676567848,,,,,,2015_Nov_04_1500,P2,PLC_L_D2S1,NHG,60.0211984255,
stim/posf.jpg,stim/negf.jpg,stim/3.jpg,stim/6.jpg,stim/latef.jpg,EF,2,4,,,,,,,,,0,25,25,55,,,,,,,,,,2,0,0.499889206847,,,,,,2015_Nov_04_1500,P2,PLC_L_D2S1,NHG,60.0211984255,
stim/posf.jpg,stim/negf.jpg,stim/1.jpg,stim/5.jpg,stim/latef.jpg,CD,1,2,,,,,,,,,0,26,26,26,,,,,,,,,,2,1,0.833060373985,,,,,,2015_Nov_04_1500,P2,PLC_L_D2S1,NHG,60.0211984255,
stim/negf.jpg,stim/posf.jpg,stim/6.jpg,stim/3.jpg,stim/latef.jpg,EF,1,2,,,,,,,,,0,27,27,46,,,,,,,,,,4,0,0.649781950513,,,,,,2015_Nov_04_1500,P2,PLC_L_D2S1,NHG,60.0211984255,
stim/posf.jpg,stim/negf.jpg,stim/6.jpg,stim/3.jpg,stim/latef.jpg,EF,1,2,,,,,,,,,0,28,28,41,,,,,,,,,,4,0,0.599803508245,,,,,,2015_Nov_04_1500,P2,PLC_L_D2S1,NHG,60.0211984255,
stim/posf.jpg,stim/negf.jpg,stim/6.jpg,stim/3.jpg,stim/latef.jpg,EF,1,2,,,,,,,,,0,29,29,42,,,,,,,,,,4,0,0.549821249464,,,,,,2015_Nov_04_1500,P2,PLC_L_D2S1,NHG,60.0211984255,
stim/posf.jpg,stim/negf.jpg,stim/6.jpg,stim/3.jpg,stim/latef.jpg,EF,1,2,,,,,,,,,0,30,30,45,,,,,,,,,,4,0,0.483168556628,,,,,,2015_Nov_04_1500,P2,PLC_L_D2S1,NHG,60.0211984255,
stim/posf.jpg,stim/negf.jpg,stim/6.jpg,stim/3.jpg,stim/latef.jpg,EF,1,2,,,,,,,,,0,31,31,40,,,,,,,,,,4,0,0.599794344402,,,,,,2015_Nov_04_1500,P2,PLC_L_D2S1,NHG,60.0211984255,
stim/posf.jpg,stim/negf.jpg,stim/1.jpg,stim/5.jpg,stim/latef.jpg,CD,1,2,,,,,,,,,0,32,32,22,,,,,,,,,,2,1,0.833098587227,,,,,,2015_Nov_04_1500,P2,PLC_L_D2S1,NHG,60.0211984255,
stim/posf.jpg,stim/negf.jpg,stim/2.jpg,stim/4.jpg,stim/latef.jpg,AB,1,2,,,,,,,,,0,33,33,3,,,,,,,,,,2,1,0.84971242923,,,,,,2015_Nov_04_1500,P2,PLC_L_D2S1,NHG,60.0211984255,
stim/posf.jpg,stim/negf.jpg,stim/2.jpg,stim/4.jpg,stim/latef.jpg,AB,1,2,,,,,,,,,0,34,34,1,,,,,,,,,,2,1,0.566478276105,,,,,,2015_Nov_04_1500,P2,PLC_L_D2S1,NHG,60.0211984255,
stim/posf.jpg,stim/negf.jpg,stim/4.jpg,stim/2.jpg,stim/latef.jpg,AB,2,4,,,,,,,,,0,35,35,13,,,,,,,,,,4,1,1.03298328284,,,,,,2015_Nov_04_1500,P2,PLC_L_D2S1,NHG,60.0211984255,
stim/negf.jpg,stim/posf.jpg,stim/3.jpg,stim/6.jpg,stim/latef.jpg,EF,2,4,,,,,,,,,0,36,36,58,,,,,,,,,,2,0,0.916342995919,,,,,,2015_Nov_04_1500,P2,PLC_L_D2S1,NHG,60.0211984255,
stim/posf.jpg,stim/negf.jpg,stim/2.jpg,stim/4.jpg,stim/latef.jpg,AB,1,2,,,,,,,,,0,37,37,2,,,,,,,,,,2,1,0.666438195203,,,,,,2015_Nov_04_1500,P2,PLC_L_D2S1,NHG,60.0211984255,
stim/negf.jpg,stim/posf.jpg,stim/1.jpg,stim/5.jpg,stim/latef.jpg,CD,1,2,,,,,,,,,0,38,38,27,,,,,,,,,,2,1,0.716423178772,,,,,,2015_Nov_04_1500,P2,PLC_L_D2S1,NHG,60.0211984255,
stim/posf.jpg,stim/negf.jpg,stim/5.jpg,stim/1.jpg,stim/latef.jpg,CD,2,4,,,,,,,,,0,39,39,33,,,,,,,,,,4,1,0.766423999819,,,,,,2015_Nov_04_1500,P2,PLC_L_D2S1,NHG,60.0211984255,
stim/posf.jpg,stim/negf.jpg,stim/5.jpg,stim/1.jpg,stim/latef.jpg,CD,2,4,,,,,,,,,0,40,40,32,,,,,,,,,,4,1,0.599794130871,,,,,,2015_Nov_04_1500,P2,PLC_L_D2S1,NHG,60.0211984255,
stim/posf.jpg,stim/negf.jpg,stim/1.jpg,stim/5.jpg,stim/latef.jpg,CD,1,2,,,,,,,,,0,41,41,21,,,,,,,,,,2,1,0.716433022306,,,,,,2015_Nov_04_1500,P2,PLC_L_D2S1,NHG,60.0211984255,
stim/negf.jpg,stim/posf.jpg,stim/3.jpg,stim/6.jpg,stim/latef.jpg,EF,2,4,,,,,,,,,0,42,42,56,,,,,,,,,,2,0,0.6664586552,,,,,,2015_Nov_04_1500,P2,PLC_L_D2S1,NHG,60.0211984255,
stim/negf.jpg,stim/posf.jpg,stim/6.jpg,stim/3.jpg,stim/latef.jpg,EF,1,2,,,,,,,,,0,43,43,48,,,,,,,,,,4,0,0.716432652385,,,,,,2015_Nov_04_1500,P2,PLC_L_D2S1,NHG,60.0211984255,
stim/negf.jpg,stim/posf.jpg,stim/1.jpg,stim/5.jpg,stim/latef.jpg,CD,1,2,,,,,,,,,0,44,44,28,,,,,,,,,,2,1,0.533084000872,,,,,,2015_Nov_04_1500,P2,PLC_L_D2S1,NHG,60.0211984255,
stim/posf.jpg,stim/negf.jpg,stim/3.jpg,stim/6.jpg,stim/latef.jpg,EF,2,4,,,,,,,,,0,45,45,53,,,,,,,,,,2,0,0.549825300561,,,,,,2015_Nov_04_1500,P2,PLC_L_D2S1,NHG,60.0211984255,
stim/posf.jpg,stim/negf.jpg,stim/5.jpg,stim/1.jpg,stim/latef.jpg,CD,2,4,,,,,,,,,0,46,46,36,,,,,,,,,,4,1,0.733063940876,,,,,,2015_Nov_04_1500,P2,PLC_L_D2S1,NHG,60.0211984255,
stim/negf.jpg,stim/posf.jpg,stim/5.jpg,stim/1.jpg,stim/latef.jpg,CD,2,4,,,,,,,,,0,47,47,37,,,,,,,,,,4,1,0.566488898578,,,,,,2015_Nov_04_1500,P2,PLC_L_D2S1,NHG,60.0211984255,
stim/posf.jpg,stim/negf.jpg,stim/4.jpg,stim/2.jpg,stim/latef.jpg,AB,2,4,,,,,,,,,0,48,48,15,,,,,,,,,,4,1,0.833055303345,,,,,,2015_Nov_04_1500,P2,PLC_L_D2S1,NHG,60.0211984255,
stim/posf.jpg,stim/negf.jpg,stim/5.jpg,stim/1.jpg,stim/latef.jpg,CD,2,4,,,,,,,,,0,49,49,30,,,,,,,,,,4,1,0.733144773345,,,,,,2015_Nov_04_1500,P2,PLC_L_D2S1,NHG,60.0211984255,
stim/negf.jpg,stim/posf.jpg,stim/5.jpg,stim/1.jpg,stim/latef.jpg,CD,2,4,,,,,,,,,0,50,50,38,,,,,,,,,,4,1,0.633055682287,,,,,,2015_Nov_04_1500,P2,PLC_L_D2S1,NHG,60.0211984255,
stim/posf.jpg,stim/negf.jpg,stim/4.jpg,stim/2.jpg,stim/latef.jpg,AB,2,4,,,,,,,,,0,51,51,17,,,,,,,,,,4,1,0.88301392621,,,,,,2015_Nov_04_1500,P2,PLC_L_D2S1,NHG,60.0211984255,
stim/negf.jpg,stim/posf.jpg,stim/2.jpg,stim/4.jpg,stim/latef.jpg,AB,1,2,,,,,,,,,0,52,52,9,,,,,,,,,,2,1,0.666441509464,,,,,,2015_Nov_04_1500,P2,PLC_L_D2S1,NHG,60.0211984255,
stim/posf.jpg,stim/negf.jpg,stim/6.jpg,stim/3.jpg,stim/latef.jpg,EF,1,2,,,,,,,,,0,53,53,43,,,,,,,,,,4,0,0.999657822122,,,,,,2015_Nov_04_1500,P2,PLC_L_D2S1,NHG,60.0211984255,
stim/posf.jpg,stim/negf.jpg,stim/3.jpg,stim/6.jpg,stim/latef.jpg,EF,2,4,,,,,,,,,0,54,54,54,,,,,,,,,,2,0,0.533182054271,,,,,,2015_Nov_04_1500,P2,PLC_L_D2S1,NHG,60.0211984255,
stim/negf.jpg,stim/posf.jpg,stim/3.jpg,stim/6.jpg,stim/latef.jpg,EF,2,4,,,,,,,,,0,55,55,57,,,,,,,,,,2,0,0.74970233607,,,,,,2015_Nov_04_1500,P2,PLC_L_D2S1,NHG,60.0211984255,
stim/posf.jpg,stim/negf.jpg,stim/5.jpg,stim/1.jpg,stim/latef.jpg,CD,2,4,,,,,,,,,0,56,56,35,,,,,,,,,,4,1,1.06630427741,,,,,,2015_Nov_04_1500,P2,PLC_L_D2S1,NHG,60.0211984255,
stim/posf.jpg,stim/negf.jpg,stim/5.jpg,stim/1.jpg,stim/latef.jpg,CD,2,4,,,,,,,,,0,57,57,31,,,,,,,,,,4,1,0.583146331232,,,,,,2015_Nov_04_1500,P2,PLC_L_D2S1,NHG,60.0211984255,
stim/negf.jpg,stim/posf.jpg,stim/4.jpg,stim/2.jpg,stim/latef.jpg,AB,2,4,,,,,,,,,0,58,58,19,,,,,,,,,,4,1,0.883039757598,,,,,,2015_Nov_04_1500,P2,PLC_L_D2S1,NHG,60.0211984255,
stim/posf.jpg,stim/negf.jpg,stim/2.jpg,stim/4.jpg,stim/latef.jpg,AB,1,2,,,,,,,,,0,59,59,0,,,,,,,,,,2,1,0.483148800384,,,,,,2015_Nov_04_1500,P2,PLC_L_D2S1,NHG,60.0211984255,
,,,,,,,,,,,,,,,,,,,,,,,,,,,,,,,,0.9984375,1.0,1,0,0,2015_Nov_04_1500,P2,PLC_L_D2S1,NHG,60.0211984255,
stim/posf.jpg,stim/negf.jpg,stim/1.jpg,stim/5.jpg,stim/latef.jpg,CD,1,2,,,,,,,,,,,,,0,0,0,25,,,,,,2,1,0.8330477034,,,,,,2015_Nov_04_1500,P2,PLC_L_D2S1,NHG,60.0211984255,
stim/posf.jpg,stim/negf.jpg,stim/1.jpg,stim/5.jpg,stim/latef.jpg,CD,1,2,,,,,,,,,,,,,0,1,1,22,,,,,,2,1,0.649772964112,,,,,,2015_Nov_04_1500,P2,PLC_L_D2S1,NHG,60.0211984255,
stim/posf.jpg,stim/negf.jpg,stim/2.jpg,stim/4.jpg,stim/latef.jpg,AB,1,2,,,,,,,,,,,,,0,2,2,5,,,,,,2,1,0.599784714403,,,,,,2015_Nov_04_1500,P2,PLC_L_D2S1,NHG,60.0211984255,
stim/posf.jpg,stim/negf.jpg,stim/2.jpg,stim/4.jpg,stim/latef.jpg,AB,1,2,,,,,,,,,,,,,0,3,3,4,,,,,,2,1,0.533143603432,,,,,,2015_Nov_04_1500,P2,PLC_L_D2S1,NHG,60.0211984255,
stim/negf.jpg,stim/posf.jpg,stim/1.jpg,stim/5.jpg,stim/latef.jpg,CD,1,2,,,,,,,,,,,,,0,4,4,29,,,,,,2,1,0.566473969371,,,,,,2015_Nov_04_1500,P2,PLC_L_D2S1,NHG,60.0211984255,
stim/posf.jpg,stim/negf.jpg,stim/4.jpg,stim/2.jpg,stim/latef.jpg,AB,2,4,,,,,,,,,,,,,0,5,5,17,,,,,,4,1,0.599799318803,,,,,,2015_Nov_04_1500,P2,PLC_L_D2S1,NHG,60.0211984255,
stim/posf.jpg,stim/negf.jpg,stim/2.jpg,stim/4.jpg,stim/latef.jpg,AB,1,2,,,,,,,,,,,,,0,6,6,0,,,,,,2,1,0.566456161985,,,,,,2015_Nov_04_1500,P2,PLC_L_D2S1,NHG,60.0211984255,
stim/posf.jpg,stim/negf.jpg,stim/4.jpg,stim/2.jpg,stim/latef.jpg,AB,2,4,,,,,,,,,,,,,0,7,7,14,,,,,,4,1,0.849716026194,,,,,,2015_Nov_04_1500,P2,PLC_L_D2S1,NHG,60.0211984255,
stim/posf.jpg,stim/negf.jpg,stim/2.jpg,stim/4.jpg,stim/latef.jpg,AB,1,2,,,,,,,,,,,,,0,8,8,7,,,,,,2,1,0.699726630628,,,,,,2015_Nov_04_1500,P2,PLC_L_D2S1,NHG,60.0211984255,
stim/posf.jpg,stim/negf.jpg,stim/1.jpg,stim/5.jpg,stim/latef.jpg,CD,1,2,,,,,,,,,,,,,0,9,9,23,,,,,,2,1,0.899713472831,,,,,,2015_Nov_04_1500,P2,PLC_L_D2S1,NHG,60.0211984255,
stim/posf.jpg,stim/negf.jpg,stim/3.jpg,stim/6.jpg,stim/latef.jpg,EF,2,4,,,,,,,,,,,,,0,10,10,52,,,,,,2,0,0.733114599137,,,,,,2015_Nov_04_1500,P2,PLC_L_D2S1,NHG,60.0211984255,
stim/negf.jpg,stim/posf.jpg,stim/3.jpg,stim/6.jpg,stim/latef.jpg,EF,2,4,,,,,,,,,,,,,0,11,11,58,,,,,,2,0,0.49989206397,,,,,,2015_Nov_04_1500,P2,PLC_L_D2S1,NHG,60.0211984255,
stim/posf.jpg,stim/negf.jpg,stim/4.jpg,stim/2.jpg,stim/latef.jpg,AB,2,4,,,,,,,,,,,,,0,12,12,12,,,,,,4,1,0.883024960716,,,,,,2015_Nov_04_1500,P2,PLC_L_D2S1,NHG,60.0211984255,
stim/posf.jpg,stim/negf.jpg,stim/1.jpg,stim/5.jpg,stim/latef.jpg,CD,1,2,,,,,,,,,,,,,0,13,13,26,,,,,,2,1,0.649792215096,,,,,,2015_Nov_04_1500,P2,PLC_L_D2S1,NHG,60.0211984255,
stim/posf.jpg,stim/negf.jpg,stim/3.jpg,stim/6.jpg,stim/latef.jpg,EF,2,4,,,,,,,,,,,,,0,14,14,50,,,,,,2,0,0.583135020039,,,,,,2015_Nov_04_1500,P2,PLC_L_D2S1,NHG,60.0211984255,
stim/posf.jpg,stim/negf.jpg,stim/5.jpg,stim/1.jpg,stim/latef.jpg,CD,2,4,,,,,,,,,,,,,0,15,15,32,,,,,,4,1,0.94969450455,,,,,,2015_Nov_04_1500,P2,PLC_L_D2S1,NHG,60.0211984255,
stim/negf.jpg,stim/posf.jpg,stim/5.jpg,stim/1.jpg,stim/latef.jpg,CD,2,4,,,,,,,,,,,,,0,16,16,37,,,,,,4,1,0.733088427907,,,,,,2015_Nov_04_1500,P2,PLC_L_D2S1,NHG,60.0211984255,
stim/posf.jpg,stim/negf.jpg,stim/2.jpg,stim/4.jpg,stim/latef.jpg,AB,1,2,,,,,,,,,,,,,0,17,17,3,,,,,,2,1,0.649794939887,,,,,,2015_Nov_04_1500,P2,PLC_L_D2S1,NHG,60.0211984255,
stim/negf.jpg,stim/posf.jpg,stim/4.jpg,stim/2.jpg,stim/latef.jpg,AB,2,4,,,,,,,,,,,,,0,18,18,18,,,,,,4,1,0.749746931226,,,,,,2015_Nov_04_1500,P2,PLC_L_D2S1,NHG,60.0211984255,
stim/posf.jpg,stim/negf.jpg,stim/6.jpg,stim/3.jpg,stim/latef.jpg,EF,1,2,,,,,,,,,,,,,0,19,19,40,,,,,,4,0,0.88305499357,,,,,,2015_Nov_04_1500,P2,PLC_L_D2S1,NHG,60.0211984255,
stim/posf.jpg,stim/negf.jpg,stim/2.jpg,stim/4.jpg,stim/latef.jpg,AB,1,2,,,,,,,,,,,,,0,20,20,2,,,,,,2,1,0.783086325668,,,,,,2015_Nov_04_1500,P2,PLC_L_D2S1,NHG,60.0211984255,
stim/negf.jpg,stim/posf.jpg,stim/5.jpg,stim/1.jpg,stim/latef.jpg,CD,2,4,,,,,,,,,,,,,0,21,21,38,,,,,,4,1,0.716424616356,,,,,,2015_Nov_04_1500,P2,PLC_L_D2S1,NHG,60.0211984255,
stim/posf.jpg,stim/negf.jpg,stim/2.jpg,stim/4.jpg,stim/latef.jpg,AB,1,2,,,,,,,,,,,,,0,22,22,6,,,,,,2,1,0.699722140438,,,,,,2015_Nov_04_1500,P2,PLC_L_D2S1,NHG,60.0211984255,
stim/negf.jpg,stim/posf.jpg,stim/1.jpg,stim/5.jpg,stim/latef.jpg,CD,1,2,,,,,,,,,,,,,0,23,23,28,,,,,,2,1,1.08298894896,,,,,,2015_Nov_04_1500,P2,PLC_L_D2S1,NHG,60.0211984255,
stim/posf.jpg,stim/negf.jpg,stim/3.jpg,stim/6.jpg,stim/latef.jpg,EF,2,4,,,,,,,,,,,,,0,24,24,51,,,,,,2,0,0.649780930973,,,,,,2015_Nov_04_1500,P2,PLC_L_D2S1,NHG,60.0211984255,
stim/posf.jpg,stim/negf.jpg,stim/6.jpg,stim/3.jpg,stim/latef.jpg,EF,1,2,,,,,,,,,,,,,0,25,25,45,,,,,,4,0,0.566469816018,,,,,,2015_Nov_04_1500,P2,PLC_L_D2S1,NHG,60.0211984255,
stim/posf.jpg,stim/negf.jpg,stim/6.jpg,stim/3.jpg,stim/latef.jpg,EF,1,2,,,,,,,,,,,,,0,26,26,44,,,,,,2,1,0.683153874033,,,,,,2015_Nov_04_1500,P2,PLC_L_D2S1,NHG,60.0211984255,
stim/negf.jpg,stim/posf.jpg,stim/3.jpg,stim/6.jpg,stim/latef.jpg,EF,2,4,,,,,,,,,,,,,0,27,27,59,,,,,,4,1,0.549807150324,,,,,,2015_Nov_04_1500,P2,PLC_L_D2S1,NHG,60.0211984255,
stim/posf.jpg,stim/negf.jpg,stim/2.jpg,stim/4.jpg,stim/latef.jpg,AB,1,2,,,,,,,,,,,,,0,28,28,1,,,,,,2,1,0.699760756688,,,,,,2015_Nov_04_1500,P2,PLC_L_D2S1,NHG,60.0211984255,
stim/negf.jpg,stim/posf.jpg,stim/4.jpg,stim/2.jpg,stim/latef.jpg,AB,2,4,,,,,,,,,,,,,0,29,29,19,,,,,,4,1,1.03299827219,,,,,,2015_Nov_04_1500,P2,PLC_L_D2S1,NHG,60.0211984255,
stim/posf.jpg,stim/negf.jpg,stim/6.jpg,stim/3.jpg,stim/latef.jpg,EF,1,2,,,,,,,,,,,,,0,30,30,41,,,,,,2,1,0.683104713498,,,,,,2015_Nov_04_1500,P2,PLC_L_D2S1,NHG,60.0211984255,
stim/posf.jpg,stim/negf.jpg,stim/3.jpg,stim/6.jpg,stim/latef.jpg,EF,2,4,,,,,,,,,,,,,0,31,31,54,,,,,,4,1,0.666443596667,,,,,,2015_Nov_04_1500,P2,PLC_L_D2S1,NHG,60.0211984255,
stim/negf.jpg,stim/posf.jpg,stim/3.jpg,stim/6.jpg,stim/latef.jpg,EF,2,4,,,,,,,,,,,,,0,32,32,57,,,,,,4,1,0.583130593004,,,,,,2015_Nov_04_1500,P2,PLC_L_D2S1,NHG,60.0211984255,
stim/negf.jpg,stim/posf.jpg,stim/6.jpg,stim/3.jpg,stim/latef.jpg,EF,1,2,,,,,,,,,,,,,0,33,33,48,,,,,,2,1,0.649794858688,,,,,,2015_Nov_04_1500,P2,PLC_L_D2S1,NHG,60.0211984255,
stim/posf.jpg,stim/negf.jpg,stim/4.jpg,stim/2.jpg,stim/latef.jpg,AB,2,4,,,,,,,,,,,,,0,34,34,16,,,,,,4,1,1.26625093946,,,,,,2015_Nov_04_1500,P2,PLC_L_D2S1,NHG,60.0211984255,
stim/negf.jpg,stim/posf.jpg,stim/6.jpg,stim/3.jpg,stim/latef.jpg,EF,1,2,,,,,,,,,,,,,0,35,35,47,,,,,,2,1,0.866356021383,,,,,,2015_Nov_04_1500,P2,PLC_L_D2S1,NHG,60.0211984255,
stim/negf.jpg,stim/posf.jpg,stim/1.jpg,stim/5.jpg,stim/latef.jpg,CD,1,2,,,,,,,,,,,,,0,36,36,27,,,,,,2,1,0.89969539778,,,,,,2015_Nov_04_1500,P2,PLC_L_D2S1,NHG,60.0211984255,
stim/posf.jpg,stim/negf.jpg,stim/6.jpg,stim/3.jpg,stim/latef.jpg,EF,1,2,,,,,,,,,,,,,0,37,37,43,,,,,,2,1,1.01631650288,,,,,,2015_Nov_04_1500,P2,PLC_L_D2S1,NHG,60.0211984255,
stim/negf.jpg,stim/posf.jpg,stim/2.jpg,stim/4.jpg,stim/latef.jpg,AB,1,2,,,,,,,,,,,,,0,38,38,8,,,,,,2,1,0.66644398764,,,,,,2015_Nov_04_1500,P2,PLC_L_D2S1,NHG,60.0211984255,
stim/posf.jpg,stim/negf.jpg,stim/4.jpg,stim/2.jpg,stim/latef.jpg,AB,2,4,,,,,,,,,,,,,0,39,39,13,,,,,,4,1,0.899703918018,,,,,,2015_Nov_04_1500,P2,PLC_L_D2S1,NHG,60.0211984255,
stim/posf.jpg,stim/negf.jpg,stim/5.jpg,stim/1.jpg,stim/latef.jpg,CD,2,4,,,,,,,,,,,,,0,40,40,36,,,,,,4,1,1.01633212683,,,,,,2015_Nov_04_1500,P2,PLC_L_D2S1,NHG,60.0211984255,
stim/posf.jpg,stim/negf.jpg,stim/3.jpg,stim/6.jpg,stim/latef.jpg,EF,2,4,,,,,,,,,,,,,0,41,41,53,,,,,,4,1,0.899684630946,,,,,,2015_Nov_04_1500,P2,PLC_L_D2S1,NHG,60.0211984255,
stim/posf.jpg,stim/negf.jpg,stim/1.jpg,stim/5.jpg,stim/latef.jpg,CD,1,2,,,,,,,,,,,,,0,42,42,20,,,,,,2,1,0.916377197162,,,,,,2015_Nov_04_1500,P2,PLC_L_D2S1,NHG,60.0211984255,
stim/posf.jpg,stim/negf.jpg,stim/1.jpg,stim/5.jpg,stim/latef.jpg,CD,1,2,,,,,,,,,,,,,0,43,43,24,,,,,,2,1,0.799662486748,,,,,,2015_Nov_04_1500,P2,PLC_L_D2S1,NHG,60.0211984255,
stim/posf.jpg,stim/negf.jpg,stim/1.jpg,stim/5.jpg,stim/latef.jpg,CD,1,2,,,,,,,,,,,,,0,44,44,21,,,,,,4,0,0.983028690011,,,,,,2015_Nov_04_1500,P2,PLC_L_D2S1,NHG,60.0211984255,
stim/negf.jpg,stim/posf.jpg,stim/6.jpg,stim/3.jpg,stim/latef.jpg,EF,1,2,,,,,,,,,,,,,0,45,45,46,,,,,,2,1,0.766407347313,,,,,,2015_Nov_04_1500,P2,PLC_L_D2S1,NHG,60.0211984255,
stim/posf.jpg,stim/negf.jpg,stim/3.jpg,stim/6.jpg,stim/latef.jpg,EF,2,4,,,,,,,,,,,,,0,46,46,55,,,,,,2,0,1.18292203517,,,,,,2015_Nov_04_1500,P2,PLC_L_D2S1,NHG,60.0211984255,
stim/negf.jpg,stim/posf.jpg,stim/3.jpg,stim/6.jpg,stim/latef.jpg,EF,2,4,,,,,,,,,,,,,0,47,47,56,,,,,,4,1,0.649786618145,,,,,,2015_Nov_04_1500,P2,PLC_L_D2S1,NHG,60.0211984255,
stim/posf.jpg,stim/negf.jpg,stim/4.jpg,stim/2.jpg,stim/latef.jpg,AB,2,4,,,,,,,,,,,,,0,48,48,10,,,,,,4,1,0.999668862638,,,,,,2015_Nov_04_1500,P2,PLC_L_D2S1,NHG,60.0211984255,
stim/posf.jpg,stim/negf.jpg,stim/5.jpg,stim/1.jpg,stim/latef.jpg,CD,2,4,,,,,,,,,,,,,0,49,49,31,,,,,,4,1,1.03299363163,,,,,,2015_Nov_04_1500,P2,PLC_L_D2S1,NHG,60.0211984255,
stim/negf.jpg,stim/posf.jpg,stim/5.jpg,stim/1.jpg,stim/latef.jpg,CD,2,4,,,,,,,,,,,,,0,50,50,39,,,,,,4,1,1.01634109217,,,,,,2015_Nov_04_1500,P2,PLC_L_D2S1,NHG,60.0211984255,
stim/posf.jpg,stim/negf.jpg,stim/5.jpg,stim/1.jpg,stim/latef.jpg,CD,2,4,,,,,,,,,,,,,0,51,51,33,,,,,,4,1,0.566517307387,,,,,,2015_Nov_04_1500,P2,PLC_L_D2S1,NHG,60.0211984255,
stim/posf.jpg,stim/negf.jpg,stim/6.jpg,stim/3.jpg,stim/latef.jpg,EF,1,2,,,,,,,,,,,,,0,52,52,42,,,,,,4,0,1.01633489974,,,,,,2015_Nov_04_1500,P2,PLC_L_D2S1,NHG,60.0211984255,
stim/negf.jpg,stim/posf.jpg,stim/2.jpg,stim/4.jpg,stim/latef.jpg,AB,1,2,,,,,,,,,,,,,0,53,53,9,,,,,,2,1,0.96632960955,,,,,,2015_Nov_04_1500,P2,PLC_L_D2S1,NHG,60.0211984255,
stim/posf.jpg,stim/negf.jpg,stim/5.jpg,stim/1.jpg,stim/latef.jpg,CD,2,4,,,,,,,,,,,,,0,54,54,30,,,,,,4,1,0.716449214666,,,,,,2015_Nov_04_1500,P2,PLC_L_D2S1,NHG,60.0211984255,
stim/posf.jpg,stim/negf.jpg,stim/5.jpg,stim/1.jpg,stim/latef.jpg,CD,2,4,,,,,,,,,,,,,0,55,55,34,,,,,,4,1,0.683101847353,,,,,,2015_Nov_04_1500,P2,PLC_L_D2S1,NHG,60.0211984255,
stim/posf.jpg,stim/negf.jpg,stim/5.jpg,stim/1.jpg,stim/latef.jpg,CD,2,4,,,,,,,,,,,,,0,56,56,35,,,,,,4,1,0.633112887874,,,,,,2015_Nov_04_1500,P2,PLC_L_D2S1,NHG,60.0211984255,
stim/negf.jpg,stim/posf.jpg,stim/6.jpg,stim/3.jpg,stim/latef.jpg,EF,1,2,,,,,,,,,,,,,0,57,57,49,,,,,,2,1,1.01630255712,,,,,,2015_Nov_04_1500,P2,PLC_L_D2S1,NHG,60.0211984255,
stim/posf.jpg,stim/negf.jpg,stim/4.jpg,stim/2.jpg,stim/latef.jpg,AB,2,4,,,,,,,,,,,,,0,58,58,11,,,,,,4,1,0.833047104908,,,,,,2015_Nov_04_1500,P2,PLC_L_D2S1,NHG,60.0211984255,
stim/posf.jpg,stim/negf.jpg,stim/4.jpg,stim/2.jpg,stim/latef.jpg,AB,2,4,,,,,,,,,,,,,0,59,59,15,,,,,,4,1,0.683117778059,,,,,,2015_Nov_04_1500,P2,PLC_L_D2S1,NHG,60.0211984255,
