fb_corr,fb_incorr,symbol2,symbol1,fb_late,pair,position,correct,block_01.thisRepN,block_01.thisTrialN,block_01.thisN,block_01.thisIndex,block_02.thisRepN,block_02.thisTrialN,block_02.thisN,block_02.thisIndex,block_03.thisRepN,block_03.thisTrialN,block_03.thisN,block_03.thisIndex,block_04.thisRepN,block_04.thisTrialN,block_04.thisN,block_04.thisIndex,mouse.x,mouse.y,mouse.leftButton,mouse.midButton,mouse.rightButton,buttonBox_2.keys,buttonBox_2.corr,buttonBox_2.rt,mouse_2.x,mouse_2.y,mouse_2.leftButton,mouse_2.midButton,mouse_2.rightButton,date,Participant,expName,Group,frameRate,
,,,,,,,,,,,,,,,,,,,,,,,,0.9984375,1.0,1,0,0,,,,,,,,,2015_Nov_11_1323,P3,PLC_L_D2S1,NHG,60.0182634654,
stim/negf.jpg,stim/posf.jpg,stim/2.jpg,stim/5.jpg,stim/latef.jpg,EF,2,4,0,0,0,59,,,,,,,,,,,,,,,,,,2,0,1.08297672649,,,,,,2015_Nov_11_1323,P3,PLC_L_D2S1,NHG,60.0182634654,
stim/posf.jpg,stim/negf.jpg,stim/6.jpg,stim/4.jpg,stim/latef.jpg,CD,1,2,0,1,1,25,,,,,,,,,,,,,,,,,,2,1,1.28288400839,,,,,,2015_Nov_11_1323,P3,PLC_L_D2S1,NHG,60.0182634654,
stim/posf.jpg,stim/negf.jpg,stim/5.jpg,stim/2.jpg,stim/latef.jpg,EF,1,2,0,2,2,44,,,,,,,,,,,,,,,,,,4,0,0.883025874994,,,,,,2015_Nov_11_1323,P3,PLC_L_D2S1,NHG,60.0182634654,
stim/posf.jpg,stim/negf.jpg,stim/6.jpg,stim/4.jpg,stim/latef.jpg,CD,1,2,0,3,3,23,,,,,,,,,,,,,,,,,,2,1,0.86638580161,,,,,,2015_Nov_11_1323,P3,PLC_L_D2S1,NHG,60.0182634654,
stim/posf.jpg,stim/negf.jpg,stim/6.jpg,stim/4.jpg,stim/latef.jpg,CD,1,2,0,4,4,20,,,,,,,,,,,,,,,,,,2,1,0.633125883264,,,,,,2015_Nov_11_1323,P3,PLC_L_D2S1,NHG,60.0182634654,
stim/posf.jpg,stim/negf.jpg,stim/5.jpg,stim/2.jpg,stim/latef.jpg,EF,1,2,0,5,5,43,,,,,,,,,,,,,,,,,,4,0,0.966339320757,,,,,,2015_Nov_11_1323,P3,PLC_L_D2S1,NHG,60.0182634654,
stim/negf.jpg,stim/posf.jpg,stim/5.jpg,stim/2.jpg,stim/latef.jpg,EF,1,2,0,6,6,48,,,,,,,,,,,,,,,,,,4,0,0.949630601274,,,,,,2015_Nov_11_1323,P3,PLC_L_D2S1,NHG,60.0182634654,
stim/negf.jpg,stim/posf.jpg,stim/1.jpg,stim/3.jpg,stim/latef.jpg,AB,2,4,0,7,7,18,,,,,,,,,,,,,,,,,,4,1,1.26624479515,,,,,,2015_Nov_11_1323,P3,PLC_L_D2S1,NHG,60.0182634654,
stim/posf.jpg,stim/negf.jpg,stim/3.jpg,stim/1.jpg,stim/latef.jpg,AB,1,2,0,8,8,3,,,,,,,,,,,,,,,,,,4,0,1.23285405674,,,,,,2015_Nov_11_1323,P3,PLC_L_D2S1,NHG,60.0182634654,
stim/posf.jpg,stim/negf.jpg,stim/6.jpg,stim/4.jpg,stim/latef.jpg,CD,1,2,0,9,9,24,,,,,,,,,,,,,,,,,,2,1,0.7664062586,,,,,,2015_Nov_11_1323,P3,PLC_L_D2S1,NHG,60.0182634654,
stim/negf.jpg,stim/posf.jpg,stim/6.jpg,stim/4.jpg,stim/latef.jpg,CD,1,2,0,10,10,27,,,,,,,,,,,,,,,,,,2,1,0.749751195856,,,,,,2015_Nov_11_1323,P3,PLC_L_D2S1,NHG,60.0182634654,
stim/posf.jpg,stim/negf.jpg,stim/2.jpg,stim/5.jpg,stim/latef.jpg,EF,2,4,0,11,11,54,,,,,,,,,,,,,,,,,,2,0,0.799741935775,,,,,,2015_Nov_11_1323,P3,PLC_L_D2S1,NHG,60.0182634654,
stim/posf.jpg,stim/negf.jpg,stim/4.jpg,stim/6.jpg,stim/latef.jpg,CD,2,4,0,12,12,34,,,,,,,,,,,,,,,,,,4,1,0.933036987692,,,,,,2015_Nov_11_1323,P3,PLC_L_D2S1,NHG,60.0182634654,
stim/posf.jpg,stim/negf.jpg,stim/4.jpg,stim/6.jpg,stim/latef.jpg,CD,2,4,0,13,13,33,,,,,,,,,,,,,,,,,,4,1,0.783058217608,,,,,,2015_Nov_11_1323,P3,PLC_L_D2S1,NHG,60.0182634654,
stim/posf.jpg,stim/negf.jpg,stim/2.jpg,stim/5.jpg,stim/latef.jpg,EF,2,4,0,14,14,50,,,,,,,,,,,,,,,,,,2,0,0.866386646717,,,,,,2015_Nov_11_1323,P3,PLC_L_D2S1,NHG,60.0182634654,
stim/posf.jpg,stim/negf.jpg,stim/1.jpg,stim/3.jpg,stim/latef.jpg,AB,2,4,0,15,15,10,,,,,,,,,,,,,,,,,,4,1,1.18295190863,,,,,,2015_Nov_11_1323,P3,PLC_L_D2S1,NHG,60.0182634654,
stim/posf.jpg,stim/negf.jpg,stim/3.jpg,stim/1.jpg,stim/latef.jpg,AB,1,2,0,16,16,4,,,,,,,,,,,,,,,,,,2,1,0.933079291133,,,,,,2015_Nov_11_1323,P3,PLC_L_D2S1,NHG,60.0182634654,
stim/posf.jpg,stim/negf.jpg,stim/2.jpg,stim/5.jpg,stim/latef.jpg,EF,2,4,0,17,17,51,,,,,,,,,,,,,,,,,,2,0,0.749730465184,,,,,,2015_Nov_11_1323,P3,PLC_L_D2S1,NHG,60.0182634654,
stim/posf.jpg,stim/negf.jpg,stim/3.jpg,stim/1.jpg,stim/latef.jpg,AB,1,2,0,18,18,5,,,,,,,,,,,,,,,,,,2,1,0.91641963895,,,,,,2015_Nov_11_1323,P3,PLC_L_D2S1,NHG,60.0182634654,
stim/negf.jpg,stim/posf.jpg,stim/2.jpg,stim/5.jpg,stim/latef.jpg,EF,2,4,0,19,19,58,,,,,,,,,,,,,,,,,,4,1,0.71643941023,,,,,,2015_Nov_11_1323,P3,PLC_L_D2S1,NHG,60.0182634654,
stim/negf.jpg,stim/posf.jpg,stim/4.jpg,stim/6.jpg,stim/latef.jpg,CD,2,4,0,20,20,37,,,,,,,,,,,,,,,,,,4,1,0.799673656589,,,,,,2015_Nov_11_1323,P3,PLC_L_D2S1,NHG,60.0182634654,
stim/posf.jpg,stim/negf.jpg,stim/1.jpg,stim/3.jpg,stim/latef.jpg,AB,2,4,0,21,21,15,,,,,,,,,,,,,,,,,,4,1,0.849666901752,,,,,,2015_Nov_11_1323,P3,PLC_L_D2S1,NHG,60.0182634654,
stim/negf.jpg,stim/posf.jpg,stim/6.jpg,stim/4.jpg,stim/latef.jpg,CD,1,2,0,22,22,29,,,,,,,,,,,,,,,,,,2,1,0.74972785167,,,,,,2015_Nov_11_1323,P3,PLC_L_D2S1,NHG,60.0182634654,
stim/posf.jpg,stim/negf.jpg,stim/5.jpg,stim/2.jpg,stim/latef.jpg,EF,1,2,0,23,23,42,,,,,,,,,,,,,,,,,,2,1,0.666428258434,,,,,,2015_Nov_11_1323,P3,PLC_L_D2S1,NHG,60.0182634654,
stim/posf.jpg,stim/negf.jpg,stim/1.jpg,stim/3.jpg,stim/latef.jpg,AB,2,4,0,24,24,16,,,,,,,,,,,,,,,,,,4,1,0.89971056759,,,,,,2015_Nov_11_1323,P3,PLC_L_D2S1,NHG,60.0182634654,
stim/negf.jpg,stim/posf.jpg,stim/5.jpg,stim/2.jpg,stim/latef.jpg,EF,1,2,0,25,25,47,,,,,,,,,,,,,,,,,,2,1,0.833046013188,,,,,,2015_Nov_11_1323,P3,PLC_L_D2S1,NHG,60.0182634654,
stim/posf.jpg,stim/negf.jpg,stim/5.jpg,stim/2.jpg,stim/latef.jpg,EF,1,2,0,26,26,40,,,,,,,,,,,,,,,,,,2,1,0.61645730784,,,,,,2015_Nov_11_1323,P3,PLC_L_D2S1,NHG,60.0182634654,
stim/posf.jpg,stim/negf.jpg,stim/3.jpg,stim/1.jpg,stim/latef.jpg,AB,1,2,0,27,27,7,,,,,,,,,,,,,,,,,,2,1,0.816392475244,,,,,,2015_Nov_11_1323,P3,PLC_L_D2S1,NHG,60.0182634654,
stim/negf.jpg,stim/posf.jpg,stim/1.jpg,stim/3.jpg,stim/latef.jpg,AB,2,4,0,28,28,19,,,,,,,,,,,,,,,,,,4,1,0.683102818776,,,,,,2015_Nov_11_1323,P3,PLC_L_D2S1,NHG,60.0182634654,
stim/negf.jpg,stim/posf.jpg,stim/2.jpg,stim/5.jpg,stim/latef.jpg,EF,2,4,0,29,29,57,,,,,,,,,,,,,,,,,,4,1,0.683107603702,,,,,,2015_Nov_11_1323,P3,PLC_L_D2S1,NHG,60.0182634654,
stim/negf.jpg,stim/posf.jpg,stim/2.jpg,stim/5.jpg,stim/latef.jpg,EF,2,4,0,30,30,56,,,,,,,,,,,,,,,,,,4,1,0.649790269246,,,,,,2015_Nov_11_1323,P3,PLC_L_D2S1,NHG,60.0182634654,
stim/posf.jpg,stim/negf.jpg,stim/3.jpg,stim/1.jpg,stim/latef.jpg,AB,1,2,0,31,31,2,,,,,,,,,,,,,,,,,,2,1,0.816388791062,,,,,,2015_Nov_11_1323,P3,PLC_L_D2S1,NHG,60.0182634654,
stim/posf.jpg,stim/negf.jpg,stim/4.jpg,stim/6.jpg,stim/latef.jpg,CD,2,4,0,32,32,32,,,,,,,,,,,,,,,,,,4,1,0.799734916279,,,,,,2015_Nov_11_1323,P3,PLC_L_D2S1,NHG,60.0182634654,
stim/posf.jpg,stim/negf.jpg,stim/4.jpg,stim/6.jpg,stim/latef.jpg,CD,2,4,0,33,33,31,,,,,,,,,,,,,,,,,,4,1,0.666491304577,,,,,,2015_Nov_11_1323,P3,PLC_L_D2S1,NHG,60.0182634654,
stim/posf.jpg,stim/negf.jpg,stim/4.jpg,stim/6.jpg,stim/latef.jpg,CD,2,4,0,34,34,35,,,,,,,,,,,,,,,,,,4,1,0.583143816964,,,,,,2015_Nov_11_1323,P3,PLC_L_D2S1,NHG,60.0182634654,
stim/posf.jpg,stim/negf.jpg,stim/6.jpg,stim/4.jpg,stim/latef.jpg,CD,1,2,0,35,35,26,,,,,,,,,,,,,,,,,,2,1,0.483123612604,,,,,,2015_Nov_11_1323,P3,PLC_L_D2S1,NHG,60.0182634654,
stim/posf.jpg,stim/negf.jpg,stim/5.jpg,stim/2.jpg,stim/latef.jpg,EF,1,2,0,36,36,41,,,,,,,,,,,,,,,,,,4,0,0.73306605815,,,,,,2015_Nov_11_1323,P3,PLC_L_D2S1,NHG,60.0182634654,
stim/negf.jpg,stim/posf.jpg,stim/3.jpg,stim/1.jpg,stim/latef.jpg,AB,1,2,0,37,37,9,,,,,,,,,,,,,,,,,,2,1,0.766423545688,,,,,,2015_Nov_11_1323,P3,PLC_L_D2S1,NHG,60.0182634654,
stim/posf.jpg,stim/negf.jpg,stim/4.jpg,stim/6.jpg,stim/latef.jpg,CD,2,4,0,38,38,36,,,,,,,,,,,,,,,,,,4,1,0.816392812084,,,,,,2015_Nov_11_1323,P3,PLC_L_D2S1,NHG,60.0182634654,
stim/negf.jpg,stim/posf.jpg,stim/5.jpg,stim/2.jpg,stim/latef.jpg,EF,1,2,0,39,39,49,,,,,,,,,,,,,,,,,,2,1,0.699886454989,,,,,,2015_Nov_11_1323,P3,PLC_L_D2S1,NHG,60.0182634654,
stim/posf.jpg,stim/negf.jpg,stim/1.jpg,stim/3.jpg,stim/latef.jpg,AB,2,4,0,40,40,11,,,,,,,,,,,,,,,,,,4,1,0.749767279945,,,,,,2015_Nov_11_1323,P3,PLC_L_D2S1,NHG,60.0182634654,
stim/posf.jpg,stim/negf.jpg,stim/3.jpg,stim/1.jpg,stim/latef.jpg,AB,1,2,0,41,41,6,,,,,,,,,,,,,,,,,,2,1,0.71642977722,,,,,,2015_Nov_11_1323,P3,PLC_L_D2S1,NHG,60.0182634654,
stim/negf.jpg,stim/posf.jpg,stim/4.jpg,stim/6.jpg,stim/latef.jpg,CD,2,4,0,42,42,38,,,,,,,,,,,,,,,,,,4,1,0.599788524898,,,,,,2015_Nov_11_1323,P3,PLC_L_D2S1,NHG,60.0182634654,
stim/posf.jpg,stim/negf.jpg,stim/3.jpg,stim/1.jpg,stim/latef.jpg,AB,1,2,0,43,43,0,,,,,,,,,,,,,,,,,,2,1,0.833049171059,,,,,,2015_Nov_11_1323,P3,PLC_L_D2S1,NHG,60.0182634654,
stim/negf.jpg,stim/posf.jpg,stim/4.jpg,stim/6.jpg,stim/latef.jpg,CD,2,4,0,44,44,39,,,,,,,,,,,,,,,,,,4,1,0.599797384982,,,,,,2015_Nov_11_1323,P3,PLC_L_D2S1,NHG,60.0182634654,
stim/posf.jpg,stim/negf.jpg,stim/1.jpg,stim/3.jpg,stim/latef.jpg,AB,2,4,0,45,45,13,,,,,,,,,,,,,,,,,,4,1,0.599804933797,,,,,,2015_Nov_11_1323,P3,PLC_L_D2S1,NHG,60.0182634654,
stim/posf.jpg,stim/negf.jpg,stim/2.jpg,stim/5.jpg,stim/latef.jpg,EF,2,4,0,46,46,55,,,,,,,,,,,,,,,,,,4,1,0.79975199585,,,,,,2015_Nov_11_1323,P3,PLC_L_D2S1,NHG,60.0182634654,
stim/negf.jpg,stim/posf.jpg,stim/5.jpg,stim/2.jpg,stim/latef.jpg,EF,1,2,0,47,47,46,,,,,,,,,,,,,,,,,,2,1,0.599813751776,,,,,,2015_Nov_11_1323,P3,PLC_L_D2S1,NHG,60.0182634654,
stim/posf.jpg,stim/negf.jpg,stim/1.jpg,stim/3.jpg,stim/latef.jpg,AB,2,4,0,48,48,12,,,,,,,,,,,,,,,,,,4,1,0.733009526244,,,,,,2015_Nov_11_1323,P3,PLC_L_D2S1,NHG,60.0182634654,
stim/posf.jpg,stim/negf.jpg,stim/3.jpg,stim/1.jpg,stim/latef.jpg,AB,1,2,0,49,49,1,,,,,,,,,,,,,,,,,,2,1,0.699771893444,,,,,,2015_Nov_11_1323,P3,PLC_L_D2S1,NHG,60.0182634654,
stim/negf.jpg,stim/posf.jpg,stim/6.jpg,stim/4.jpg,stim/latef.jpg,CD,1,2,0,50,50,28,,,,,,,,,,,,,,,,,,2,1,0.599795388005,,,,,,2015_Nov_11_1323,P3,PLC_L_D2S1,NHG,60.0182634654,
stim/posf.jpg,stim/negf.jpg,stim/1.jpg,stim/3.jpg,stim/latef.jpg,AB,2,4,0,51,51,17,,,,,,,,,,,,,,,,,,4,1,0.799722152465,,,,,,2015_Nov_11_1323,P3,PLC_L_D2S1,NHG,60.0182634654,
stim/posf.jpg,stim/negf.jpg,stim/6.jpg,stim/4.jpg,stim/latef.jpg,CD,1,2,0,52,52,22,,,,,,,,,,,,,,,,,,2,1,0.583128310313,,,,,,2015_Nov_11_1323,P3,PLC_L_D2S1,NHG,60.0182634654,
stim/negf.jpg,stim/posf.jpg,stim/3.jpg,stim/1.jpg,stim/latef.jpg,AB,1,2,0,53,53,8,,,,,,,,,,,,,,,,,,2,1,0.616502053368,,,,,,2015_Nov_11_1323,P3,PLC_L_D2S1,NHG,60.0182634654,
stim/posf.jpg,stim/negf.jpg,stim/2.jpg,stim/5.jpg,stim/latef.jpg,EF,2,4,0,54,54,53,,,,,,,,,,,,,,,,,,4,1,0.89969467598,,,,,,2015_Nov_11_1323,P3,PLC_L_D2S1,NHG,60.0182634654,
stim/posf.jpg,stim/negf.jpg,stim/5.jpg,stim/2.jpg,stim/latef.jpg,EF,1,2,0,55,55,45,,,,,,,,,,,,,,,,,,2,1,0.616467274682,,,,,,2015_Nov_11_1323,P3,PLC_L_D2S1,NHG,60.0182634654,
stim/posf.jpg,stim/negf.jpg,stim/1.jpg,stim/3.jpg,stim/latef.jpg,AB,2,4,0,56,56,14,,,,,,,,,,,,,,,,,,4,1,0.649796879723,,,,,,2015_Nov_11_1323,P3,PLC_L_D2S1,NHG,60.0182634654,
stim/posf.jpg,stim/negf.jpg,stim/6.jpg,stim/4.jpg,stim/latef.jpg,CD,1,2,0,57,57,21,,,,,,,,,,,,,,,,,,2,1,0.516491124127,,,,,,2015_Nov_11_1323,P3,PLC_L_D2S1,NHG,60.0182634654,
stim/posf.jpg,stim/negf.jpg,stim/4.jpg,stim/6.jpg,stim/latef.jpg,CD,2,4,0,58,58,30,,,,,,,,,,,,,,,,,,4,1,0.666465385975,,,,,,2015_Nov_11_1323,P3,PLC_L_D2S1,NHG,60.0182634654,
stim/posf.jpg,stim/negf.jpg,stim/2.jpg,stim/5.jpg,stim/latef.jpg,EF,2,4,0,59,59,52,,,,,,,,,,,,,,,,,,4,1,0.516522934414,,,,,,2015_Nov_11_1323,P3,PLC_L_D2S1,NHG,60.0182634654,
,,,,,,,,,,,,,,,,,,,,,,,,,,,,,,,,0.9984375,1.0,1,0,0,2015_Nov_11_1323,P3,PLC_L_D2S1,NHG,60.0182634654,
stim/posf.jpg,stim/negf.jpg,stim/3.jpg,stim/1.jpg,stim/latef.jpg,AB,1,2,,,,,0,0,0,5,,,,,,,,,,,,,,2,1,0.932999183465,,,,,,2015_Nov_11_1323,P3,PLC_L_D2S1,NHG,60.0182634654,
stim/posf.jpg,stim/negf.jpg,stim/6.jpg,stim/4.jpg,stim/latef.jpg,CD,1,2,,,,,0,1,1,25,,,,,,,,,,,,,,2,1,0.599823616364,,,,,,2015_Nov_11_1323,P3,PLC_L_D2S1,NHG,60.0182634654,
stim/posf.jpg,stim/negf.jpg,stim/6.jpg,stim/4.jpg,stim/latef.jpg,CD,1,2,,,,,0,2,2,22,,,,,,,,,,,,,,2,1,0.533105008233,,,,,,2015_Nov_11_1323,P3,PLC_L_D2S1,NHG,60.0182634654,
stim/posf.jpg,stim/negf.jpg,stim/1.jpg,stim/3.jpg,stim/latef.jpg,AB,2,4,,,,,0,3,3,17,,,,,,,,,,,,,,4,1,0.549799306772,,,,,,2015_Nov_11_1323,P3,PLC_L_D2S1,NHG,60.0182634654,
stim/posf.jpg,stim/negf.jpg,stim/4.jpg,stim/6.jpg,stim/latef.jpg,CD,2,4,,,,,0,4,4,33,,,,,,,,,,,,,,4,1,0.616462249156,,,,,,2015_Nov_11_1323,P3,PLC_L_D2S1,NHG,60.0182634654,
stim/posf.jpg,stim/negf.jpg,stim/3.jpg,stim/1.jpg,stim/latef.jpg,AB,1,2,,,,,0,5,5,3,,,,,,,,,,,,,,2,1,0.516497439869,,,,,,2015_Nov_11_1323,P3,PLC_L_D2S1,NHG,60.0182634654,
stim/posf.jpg,stim/negf.jpg,stim/2.jpg,stim/5.jpg,stim/latef.jpg,EF,2,4,,,,,0,6,6,50,,,,,,,,,,,,,,4,1,0.78310946835,,,,,,2015_Nov_11_1323,P3,PLC_L_D2S1,NHG,60.0182634654,
stim/negf.jpg,stim/posf.jpg,stim/1.jpg,stim/3.jpg,stim/latef.jpg,AB,2,4,,,,,0,7,7,18,,,,,,,,,,,,,,4,1,0.549817646484,,,,,,2015_Nov_11_1323,P3,PLC_L_D2S1,NHG,60.0182634654,
stim/negf.jpg,stim/posf.jpg,stim/2.jpg,stim/5.jpg,stim/latef.jpg,EF,2,4,,,,,0,8,8,56,,,,,,,,,,,,,,4,1,0.899706047323,,,,,,2015_Nov_11_1323,P3,PLC_L_D2S1,NHG,60.0182634654,
stim/posf.jpg,stim/negf.jpg,stim/4.jpg,stim/6.jpg,stim/latef.jpg,CD,2,4,,,,,0,9,9,36,,,,,,,,,,,,,,4,1,0.766416426944,,,,,,2015_Nov_11_1323,P3,PLC_L_D2S1,NHG,60.0182634654,
stim/posf.jpg,stim/negf.jpg,stim/2.jpg,stim/5.jpg,stim/latef.jpg,EF,2,4,,,,,0,10,10,54,,,,,,,,,,,,,,4,1,0.566476603935,,,,,,2015_Nov_11_1323,P3,PLC_L_D2S1,NHG,60.0182634654,
stim/posf.jpg,stim/negf.jpg,stim/4.jpg,stim/6.jpg,stim/latef.jpg,CD,2,4,,,,,0,11,11,30,,,,,,,,,,,,,,4,1,0.549800275186,,,,,,2015_Nov_11_1323,P3,PLC_L_D2S1,NHG,60.0182634654,
stim/posf.jpg,stim/negf.jpg,stim/1.jpg,stim/3.jpg,stim/latef.jpg,AB,2,4,,,,,0,12,12,15,,,,,,,,,,,,,,4,1,0.548805627026,,,,,,2015_Nov_11_1323,P3,PLC_L_D2S1,NHG,60.0182634654,
stim/negf.jpg,stim/posf.jpg,stim/6.jpg,stim/4.jpg,stim/latef.jpg,CD,1,2,,,,,0,13,13,29,,,,,,,,,,,,,,2,1,0.533168370163,,,,,,2015_Nov_11_1323,P3,PLC_L_D2S1,NHG,60.0182634654,
stim/posf.jpg,stim/negf.jpg,stim/1.jpg,stim/3.jpg,stim/latef.jpg,AB,2,4,,,,,0,14,14,12,,,,,,,,,,,,,,4,1,0.716475184397,,,,,,2015_Nov_11_1323,P3,PLC_L_D2S1,NHG,60.0182634654,
stim/posf.jpg,stim/negf.jpg,stim/1.jpg,stim/3.jpg,stim/latef.jpg,AB,2,4,,,,,0,15,15,10,,,,,,,,,,,,,,4,1,0.566504784174,,,,,,2015_Nov_11_1323,P3,PLC_L_D2S1,NHG,60.0182634654,
stim/negf.jpg,stim/posf.jpg,stim/5.jpg,stim/2.jpg,stim/latef.jpg,EF,1,2,,,,,0,16,16,47,,,,,,,,,,,,,,2,1,0.833019670529,,,,,,2015_Nov_11_1323,P3,PLC_L_D2S1,NHG,60.0182634654,
stim/negf.jpg,stim/posf.jpg,stim/4.jpg,stim/6.jpg,stim/latef.jpg,CD,2,4,,,,,0,17,17,39,,,,,,,,,,,,,,4,1,0.53318233096,,,,,,2015_Nov_11_1323,P3,PLC_L_D2S1,NHG,60.0182634654,
stim/negf.jpg,stim/posf.jpg,stim/4.jpg,stim/6.jpg,stim/latef.jpg,CD,2,4,,,,,0,18,18,37,,,,,,,,,,,,,,4,1,0.533133552379,,,,,,2015_Nov_11_1323,P3,PLC_L_D2S1,NHG,60.0182634654,
stim/posf.jpg,stim/negf.jpg,stim/5.jpg,stim/2.jpg,stim/latef.jpg,EF,1,2,,,,,0,19,19,43,,,,,,,,,,,,,,2,1,0.716453689822,,,,,,2015_Nov_11_1323,P3,PLC_L_D2S1,NHG,60.0182634654,
stim/posf.jpg,stim/negf.jpg,stim/3.jpg,stim/1.jpg,stim/latef.jpg,AB,1,2,,,,,0,20,20,4,,,,,,,,,,,,,,2,1,0.949684913647,,,,,,2015_Nov_11_1323,P3,PLC_L_D2S1,NHG,60.0182634654,
stim/negf.jpg,stim/posf.jpg,stim/1.jpg,stim/3.jpg,stim/latef.jpg,AB,2,4,,,,,0,21,21,19,,,,,,,,,,,,,,4,1,0.566490694055,,,,,,2015_Nov_11_1323,P3,PLC_L_D2S1,NHG,60.0182634654,
stim/negf.jpg,stim/posf.jpg,stim/5.jpg,stim/2.jpg,stim/latef.jpg,EF,1,2,,,,,0,22,22,48,,,,,,,,,,,,,,2,1,0.949695542139,,,,,,2015_Nov_11_1323,P3,PLC_L_D2S1,NHG,60.0182634654,
stim/posf.jpg,stim/negf.jpg,stim/3.jpg,stim/1.jpg,stim/latef.jpg,AB,1,2,,,,,0,23,23,0,,,,,,,,,,,,,,2,1,0.583109871355,,,,,,2015_Nov_11_1323,P3,PLC_L_D2S1,NHG,60.0182634654,
stim/posf.jpg,stim/negf.jpg,stim/1.jpg,stim/3.jpg,stim/latef.jpg,AB,2,4,,,,,0,24,24,16,,,,,,,,,,,,,,4,1,0.549827038895,,,,,,2015_Nov_11_1323,P3,PLC_L_D2S1,NHG,60.0182634654,
stim/negf.jpg,stim/posf.jpg,stim/3.jpg,stim/1.jpg,stim/latef.jpg,AB,1,2,,,,,0,25,25,9,,,,,,,,,,,,,,2,1,0.516526687769,,,,,,2015_Nov_11_1323,P3,PLC_L_D2S1,NHG,60.0182634654,
stim/posf.jpg,stim/negf.jpg,stim/6.jpg,stim/4.jpg,stim/latef.jpg,CD,1,2,,,,,0,26,26,23,,,,,,,,,,,,,,2,1,0.566467611522,,,,,,2015_Nov_11_1323,P3,PLC_L_D2S1,NHG,60.0182634654,
stim/negf.jpg,stim/posf.jpg,stim/2.jpg,stim/5.jpg,stim/latef.jpg,EF,2,4,,,,,0,27,27,58,,,,,,,,,,,,,,4,1,0.699794747408,,,,,,2015_Nov_11_1323,P3,PLC_L_D2S1,NHG,60.0182634654,
stim/negf.jpg,stim/posf.jpg,stim/2.jpg,stim/5.jpg,stim/latef.jpg,EF,2,4,,,,,0,28,28,57,,,,,,,,,,,,,,4,1,0.733065246126,,,,,,2015_Nov_11_1323,P3,PLC_L_D2S1,NHG,60.0182634654,
stim/posf.jpg,stim/negf.jpg,stim/3.jpg,stim/1.jpg,stim/latef.jpg,AB,1,2,,,,,0,29,29,7,,,,,,,,,,,,,,2,1,0.516477791896,,,,,,2015_Nov_11_1323,P3,PLC_L_D2S1,NHG,60.0182634654,
stim/posf.jpg,stim/negf.jpg,stim/3.jpg,stim/1.jpg,stim/latef.jpg,AB,1,2,,,,,0,30,30,2,,,,,,,,,,,,,,2,1,0.616446643258,,,,,,2015_Nov_11_1323,P3,PLC_L_D2S1,NHG,60.0182634654,
stim/posf.jpg,stim/negf.jpg,stim/4.jpg,stim/6.jpg,stim/latef.jpg,CD,2,4,,,,,0,31,31,34,,,,,,,,,,,,,,4,1,0.783077158819,,,,,,2015_Nov_11_1323,P3,PLC_L_D2S1,NHG,60.0182634654,
stim/negf.jpg,stim/posf.jpg,stim/4.jpg,stim/6.jpg,stim/latef.jpg,CD,2,4,,,,,0,32,32,38,,,,,,,,,,,,,,4,1,0.633107035285,,,,,,2015_Nov_11_1323,P3,PLC_L_D2S1,NHG,60.0182634654,
stim/posf.jpg,stim/negf.jpg,stim/1.jpg,stim/3.jpg,stim/latef.jpg,AB,2,4,,,,,0,33,33,13,,,,,,,,,,,,,,4,1,0.683119648725,,,,,,2015_Nov_11_1323,P3,PLC_L_D2S1,NHG,60.0182634654,
stim/posf.jpg,stim/negf.jpg,stim/5.jpg,stim/2.jpg,stim/latef.jpg,EF,1,2,,,,,0,34,34,45,,,,,,,,,,,,,,2,1,0.683093333133,,,,,,2015_Nov_11_1323,P3,PLC_L_D2S1,NHG,60.0182634654,
stim/negf.jpg,stim/posf.jpg,stim/3.jpg,stim/1.jpg,stim/latef.jpg,AB,1,2,,,,,0,35,35,8,,,,,,,,,,,,,,2,1,0.583159275494,,,,,,2015_Nov_11_1323,P3,PLC_L_D2S1,NHG,60.0182634654,
stim/posf.jpg,stim/negf.jpg,stim/5.jpg,stim/2.jpg,stim/latef.jpg,EF,1,2,,,,,0,36,36,40,,,,,,,,,,,,,,2,1,0.816441395177,,,,,,2015_Nov_11_1323,P3,PLC_L_D2S1,NHG,60.0182634654,
stim/posf.jpg,stim/negf.jpg,stim/6.jpg,stim/4.jpg,stim/latef.jpg,CD,1,2,,,,,0,37,37,21,,,,,,,,,,,,,,2,1,0.749725791535,,,,,,2015_Nov_11_1323,P3,PLC_L_D2S1,NHG,60.0182634654,
stim/posf.jpg,stim/negf.jpg,stim/4.jpg,stim/6.jpg,stim/latef.jpg,CD,2,4,,,,,0,38,38,32,,,,,,,,,,,,,,4,1,0.616475388907,,,,,,2015_Nov_11_1323,P3,PLC_L_D2S1,NHG,60.0182634654,
stim/negf.jpg,stim/posf.jpg,stim/5.jpg,stim/2.jpg,stim/latef.jpg,EF,1,2,,,,,0,39,39,49,,,,,,,,,,,,,,2,1,0.649780182104,,,,,,2015_Nov_11_1323,P3,PLC_L_D2S1,NHG,60.0182634654,
stim/negf.jpg,stim/posf.jpg,stim/5.jpg,stim/2.jpg,stim/latef.jpg,EF,1,2,,,,,0,40,40,46,,,,,,,,,,,,,,2,1,0.749801655627,,,,,,2015_Nov_11_1323,P3,PLC_L_D2S1,NHG,60.0182634654,
stim/posf.jpg,stim/negf.jpg,stim/4.jpg,stim/6.jpg,stim/latef.jpg,CD,2,4,,,,,0,41,41,35,,,,,,,,,,,,,,4,1,0.633133398997,,,,,,2015_Nov_11_1323,P3,PLC_L_D2S1,NHG,60.0182634654,
stim/posf.jpg,stim/negf.jpg,stim/2.jpg,stim/5.jpg,stim/latef.jpg,EF,2,4,,,,,0,42,42,55,,,,,,,,,,,,,,4,1,0.73311170292,,,,,,2015_Nov_11_1323,P3,PLC_L_D2S1,NHG,60.0182634654,
stim/posf.jpg,stim/negf.jpg,stim/2.jpg,stim/5.jpg,stim/latef.jpg,EF,2,4,,,,,0,43,43,53,,,,,,,,,,,,,,4,1,0.649826422358,,,,,,2015_Nov_11_1323,P3,PLC_L_D2S1,NHG,60.0182634654,
stim/posf.jpg,stim/negf.jpg,stim/2.jpg,stim/5.jpg,stim/latef.jpg,EF,2,4,,,,,0,44,44,51,,,,,,,,,,,,,,4,1,0.516437314005,,,,,,2015_Nov_11_1323,P3,PLC_L_D2S1,NHG,60.0182634654,
stim/posf.jpg,stim/negf.jpg,stim/5.jpg,stim/2.jpg,stim/latef.jpg,EF,1,2,,,,,0,45,45,41,,,,,,,,,,,,,,2,1,0.599806957842,,,,,,2015_Nov_11_1323,P3,PLC_L_D2S1,NHG,60.0182634654,
stim/negf.jpg,stim/posf.jpg,stim/6.jpg,stim/4.jpg,stim/latef.jpg,CD,1,2,,,,,0,46,46,28,,,,,,,,,,,,,,2,1,0.599771965624,,,,,,2015_Nov_11_1323,P3,PLC_L_D2S1,NHG,60.0182634654,
stim/posf.jpg,stim/negf.jpg,stim/6.jpg,stim/4.jpg,stim/latef.jpg,CD,1,2,,,,,0,47,47,26,,,,,,,,,,,,,,2,1,0.633159741656,,,,,,2015_Nov_11_1323,P3,PLC_L_D2S1,NHG,60.0182634654,
stim/posf.jpg,stim/negf.jpg,stim/5.jpg,stim/2.jpg,stim/latef.jpg,EF,1,2,,,,,0,48,48,42,,,,,,,,,,,,,,2,1,0.599837724528,,,,,,2015_Nov_11_1323,P3,PLC_L_D2S1,NHG,60.0182634654,
stim/negf.jpg,stim/posf.jpg,stim/6.jpg,stim/4.jpg,stim/latef.jpg,CD,1,2,,,,,0,49,49,27,,,,,,,,,,,,,,2,1,0.533166279953,,,,,,2015_Nov_11_1323,P3,PLC_L_D2S1,NHG,60.0182634654,
stim/posf.jpg,stim/negf.jpg,stim/3.jpg,stim/1.jpg,stim/latef.jpg,AB,1,2,,,,,0,50,50,1,,,,,,,,,,,,,,2,1,0.733096854911,,,,,,2015_Nov_11_1323,P3,PLC_L_D2S1,NHG,60.0182634654,
stim/posf.jpg,stim/negf.jpg,stim/4.jpg,stim/6.jpg,stim/latef.jpg,CD,2,4,,,,,0,51,51,31,,,,,,,,,,,,,,4,1,0.61646087473,,,,,,2015_Nov_11_1323,P3,PLC_L_D2S1,NHG,60.0182634654,
stim/posf.jpg,stim/negf.jpg,stim/3.jpg,stim/1.jpg,stim/latef.jpg,AB,1,2,,,,,0,52,52,6,,,,,,,,,,,,,,2,1,0.666452889828,,,,,,2015_Nov_11_1323,P3,PLC_L_D2S1,NHG,60.0182634654,
stim/posf.jpg,stim/negf.jpg,stim/1.jpg,stim/3.jpg,stim/latef.jpg,AB,2,4,,,,,0,53,53,14,,,,,,,,,,,,,,4,1,0.76640958489,,,,,,2015_Nov_11_1323,P3,PLC_L_D2S1,NHG,60.0182634654,
stim/posf.jpg,stim/negf.jpg,stim/6.jpg,stim/4.jpg,stim/latef.jpg,CD,1,2,,,,,0,54,54,24,,,,,,,,,,,,,,2,1,0.533206421004,,,,,,2015_Nov_11_1323,P3,PLC_L_D2S1,NHG,60.0182634654,
stim/posf.jpg,stim/negf.jpg,stim/5.jpg,stim/2.jpg,stim/latef.jpg,EF,1,2,,,,,0,55,55,44,,,,,,,,,,,,,,4,0,0.966353907113,,,,,,2015_Nov_11_1323,P3,PLC_L_D2S1,NHG,60.0182634654,
stim/negf.jpg,stim/posf.jpg,stim/2.jpg,stim/5.jpg,stim/latef.jpg,EF,2,4,,,,,0,56,56,59,,,,,,,,,,,,,,4,1,0.699729577973,,,,,,2015_Nov_11_1323,P3,PLC_L_D2S1,NHG,60.0182634654,
stim/posf.jpg,stim/negf.jpg,stim/6.jpg,stim/4.jpg,stim/latef.jpg,CD,1,2,,,,,0,57,57,20,,,,,,,,,,,,,,2,1,0.583130283231,,,,,,2015_Nov_11_1323,P3,PLC_L_D2S1,NHG,60.0182634654,
stim/posf.jpg,stim/negf.jpg,stim/1.jpg,stim/3.jpg,stim/latef.jpg,AB,2,4,,,,,0,58,58,11,,,,,,,,,,,,,,4,1,0.666362261938,,,,,,2015_Nov_11_1323,P3,PLC_L_D2S1,NHG,60.0182634654,
stim/posf.jpg,stim/negf.jpg,stim/2.jpg,stim/5.jpg,stim/latef.jpg,EF,2,4,,,,,0,59,59,52,,,,,,,,,,,,,,4,1,0.716432868926,,,,,,2015_Nov_11_1323,P3,PLC_L_D2S1,NHG,60.0182634654,
,,,,,,,,,,,,,,,,,,,,,,,,,,,,,,,,0.9953125,1.0,1,0,0,2015_Nov_11_1323,P3,PLC_L_D2S1,NHG,60.0182634654,
stim/posf.jpg,stim/negf.jpg,stim/4.jpg,stim/6.jpg,stim/latef.jpg,CD,2,4,,,,,,,,,0,0,0,30,,,,,,,,,,4,1,0.766400387967,,,,,,2015_Nov_11_1323,P3,PLC_L_D2S1,NHG,60.0182634654,
stim/negf.jpg,stim/posf.jpg,stim/3.jpg,stim/1.jpg,stim/latef.jpg,AB,1,2,,,,,,,,,0,1,1,9,,,,,,,,,,2,1,0.999680387366,,,,,,2015_Nov_11_1323,P3,PLC_L_D2S1,NHG,60.0182634654,
stim/posf.jpg,stim/negf.jpg,stim/5.jpg,stim/2.jpg,stim/latef.jpg,EF,1,2,,,,,,,,,0,2,2,44,,,,,,,,,,2,1,0.833081209916,,,,,,2015_Nov_11_1323,P3,PLC_L_D2S1,NHG,60.0182634654,
stim/posf.jpg,stim/negf.jpg,stim/4.jpg,stim/6.jpg,stim/latef.jpg,CD,2,4,,,,,,,,,0,3,3,35,,,,,,,,,,4,1,0.599781655777,,,,,,2015_Nov_11_1323,P3,PLC_L_D2S1,NHG,60.0182634654,
stim/negf.jpg,stim/posf.jpg,stim/1.jpg,stim/3.jpg,stim/latef.jpg,AB,2,4,,,,,,,,,0,4,4,19,,,,,,,,,,4,1,0.633089170758,,,,,,2015_Nov_11_1323,P3,PLC_L_D2S1,NHG,60.0182634654,
stim/posf.jpg,stim/negf.jpg,stim/4.jpg,stim/6.jpg,stim/latef.jpg,CD,2,4,,,,,,,,,0,5,5,32,,,,,,,,,,4,1,0.616479491131,,,,,,2015_Nov_11_1323,P3,PLC_L_D2S1,NHG,60.0182634654,
stim/posf.jpg,stim/negf.jpg,stim/1.jpg,stim/3.jpg,stim/latef.jpg,AB,2,4,,,,,,,,,0,6,6,13,,,,,,,,,,4,1,0.649769887444,,,,,,2015_Nov_11_1323,P3,PLC_L_D2S1,NHG,60.0182634654,
stim/negf.jpg,stim/posf.jpg,stim/5.jpg,stim/2.jpg,stim/latef.jpg,EF,1,2,,,,,,,,,0,7,7,46,,,,,,,,,,2,1,0.683080061052,,,,,,2015_Nov_11_1323,P3,PLC_L_D2S1,NHG,60.0182634654,
stim/negf.jpg,stim/posf.jpg,stim/4.jpg,stim/6.jpg,stim/latef.jpg,CD,2,4,,,,,,,,,0,8,8,39,,,,,,,,,,4,1,0.64978566477,,,,,,2015_Nov_11_1323,P3,PLC_L_D2S1,NHG,60.0182634654,
stim/negf.jpg,stim/posf.jpg,stim/6.jpg,stim/4.jpg,stim/latef.jpg,CD,1,2,,,,,,,,,0,9,9,28,,,,,,,,,,2,1,0.583115748002,,,,,,2015_Nov_11_1323,P3,PLC_L_D2S1,NHG,60.0182634654,
stim/negf.jpg,stim/posf.jpg,stim/6.jpg,stim/4.jpg,stim/latef.jpg,CD,1,2,,,,,,,,,0,10,10,29,,,,,,,,,,2,1,0.666474381396,,,,,,2015_Nov_11_1323,P3,PLC_L_D2S1,NHG,60.0182634654,
stim/posf.jpg,stim/negf.jpg,stim/4.jpg,stim/6.jpg,stim/latef.jpg,CD,2,4,,,,,,,,,0,11,11,34,,,,,,,,,,4,1,0.599784109894,,,,,,2015_Nov_11_1323,P3,PLC_L_D2S1,NHG,60.0182634654,
stim/posf.jpg,stim/negf.jpg,stim/1.jpg,stim/3.jpg,stim/latef.jpg,AB,2,4,,,,,,,,,0,12,12,12,,,,,,,,,,4,1,0.866426730626,,,,,,2015_Nov_11_1323,P3,PLC_L_D2S1,NHG,60.0182634654,
stim/posf.jpg,stim/negf.jpg,stim/6.jpg,stim/4.jpg,stim/latef.jpg,CD,1,2,,,,,,,,,0,13,13,22,,,,,,,,,,2,1,0.599804115758,,,,,,2015_Nov_11_1323,P3,PLC_L_D2S1,NHG,60.0182634654,
stim/posf.jpg,stim/negf.jpg,stim/1.jpg,stim/3.jpg,stim/latef.jpg,AB,2,4,,,,,,,,,0,14,14,11,,,,,,,,,,4,1,0.84972395997,,,,,,2015_Nov_11_1323,P3,PLC_L_D2S1,NHG,60.0182634654,
stim/posf.jpg,stim/negf.jpg,stim/3.jpg,stim/1.jpg,stim/latef.jpg,AB,1,2,,,,,,,,,0,15,15,1,,,,,,,,,,2,1,0.533147922196,,,,,,2015_Nov_11_1323,P3,PLC_L_D2S1,NHG,60.0182634654,
stim/posf.jpg,stim/negf.jpg,stim/3.jpg,stim/1.jpg,stim/latef.jpg,AB,1,2,,,,,,,,,0,16,16,6,,,,,,,,,,2,1,0.583129588499,,,,,,2015_Nov_11_1323,P3,PLC_L_D2S1,NHG,60.0182634654,
stim/posf.jpg,stim/negf.jpg,stim/3.jpg,stim/1.jpg,stim/latef.jpg,AB,1,2,,,,,,,,,0,17,17,4,,,,,,,,,,2,1,0.566476480628,,,,,,2015_Nov_11_1323,P3,PLC_L_D2S1,NHG,60.0182634654,
stim/negf.jpg,stim/posf.jpg,stim/2.jpg,stim/5.jpg,stim/latef.jpg,EF,2,4,,,,,,,,,0,18,18,59,,,,,,,,,,4,1,0.799733983955,,,,,,2015_Nov_11_1323,P3,PLC_L_D2S1,NHG,60.0182634654,
stim/posf.jpg,stim/negf.jpg,stim/3.jpg,stim/1.jpg,stim/latef.jpg,AB,1,2,,,,,,,,,0,19,19,2,,,,,,,,,,2,1,0.549809757822,,,,,,2015_Nov_11_1323,P3,PLC_L_D2S1,NHG,60.0182634654,
stim/negf.jpg,stim/posf.jpg,stim/4.jpg,stim/6.jpg,stim/latef.jpg,CD,2,4,,,,,,,,,0,20,20,37,,,,,,,,,,4,1,0.583153305614,,,,,,2015_Nov_11_1323,P3,PLC_L_D2S1,NHG,60.0182634654,
stim/posf.jpg,stim/negf.jpg,stim/3.jpg,stim/1.jpg,stim/latef.jpg,AB,1,2,,,,,,,,,0,21,21,5,,,,,,,,,,2,1,0.982986735438,,,,,,2015_Nov_11_1323,P3,PLC_L_D2S1,NHG,60.0182634654,
stim/posf.jpg,stim/negf.jpg,stim/1.jpg,stim/3.jpg,stim/latef.jpg,AB,2,4,,,,,,,,,0,22,22,14,,,,,,,,,,4,1,0.633130605033,,,,,,2015_Nov_11_1323,P3,PLC_L_D2S1,NHG,60.0182634654,
stim/negf.jpg,stim/posf.jpg,stim/2.jpg,stim/5.jpg,stim/latef.jpg,EF,2,4,,,,,,,,,0,23,23,57,,,,,,,,,,4,1,0.71641336832,,,,,,2015_Nov_11_1323,P3,PLC_L_D2S1,NHG,60.0182634654,
stim/posf.jpg,stim/negf.jpg,stim/2.jpg,stim/5.jpg,stim/latef.jpg,EF,2,4,,,,,,,,,0,24,24,52,,,,,,,,,,4,1,0.799676640025,,,,,,2015_Nov_11_1323,P3,PLC_L_D2S1,NHG,60.0182634654,
stim/negf.jpg,stim/posf.jpg,stim/5.jpg,stim/2.jpg,stim/latef.jpg,EF,1,2,,,,,,,,,0,25,25,48,,,,,,,,,,2,1,0.533177573101,,,,,,2015_Nov_11_1323,P3,PLC_L_D2S1,NHG,60.0182634654,
stim/negf.jpg,stim/posf.jpg,stim/5.jpg,stim/2.jpg,stim/latef.jpg,EF,1,2,,,,,,,,,0,26,26,49,,,,,,,,,,2,1,0.599793177495,,,,,,2015_Nov_11_1323,P3,PLC_L_D2S1,NHG,60.0182634654,
stim/posf.jpg,stim/negf.jpg,stim/3.jpg,stim/1.jpg,stim/latef.jpg,AB,1,2,,,,,,,,,0,27,27,0,,,,,,,,,,4,0,0.649793923354,,,,,,2015_Nov_11_1323,P3,PLC_L_D2S1,NHG,60.0182634654,
stim/posf.jpg,stim/negf.jpg,stim/6.jpg,stim/4.jpg,stim/latef.jpg,CD,1,2,,,,,,,,,0,28,28,25,,,,,,,,,,2,1,0.666443900422,,,,,,2015_Nov_11_1323,P3,PLC_L_D2S1,NHG,60.0182634654,
stim/posf.jpg,stim/negf.jpg,stim/1.jpg,stim/3.jpg,stim/latef.jpg,AB,2,4,,,,,,,,,0,29,29,10,,,,,,,,,,4,1,0.899754828911,,,,,,2015_Nov_11_1323,P3,PLC_L_D2S1,NHG,60.0182634654,
stim/posf.jpg,stim/negf.jpg,stim/5.jpg,stim/2.jpg,stim/latef.jpg,EF,1,2,,,,,,,,,0,30,30,40,,,,,,,,,,2,1,0.883017318667,,,,,,2015_Nov_11_1323,P3,PLC_L_D2S1,NHG,60.0182634654,
stim/posf.jpg,stim/negf.jpg,stim/2.jpg,stim/5.jpg,stim/latef.jpg,EF,2,4,,,,,,,,,0,31,31,53,,,,,,,,,,2,0,1.11627589868,,,,,,2015_Nov_11_1323,P3,PLC_L_D2S1,NHG,60.0182634654,
stim/negf.jpg,stim/posf.jpg,stim/2.jpg,stim/5.jpg,stim/latef.jpg,EF,2,4,,,,,,,,,0,32,32,56,,,,,,,,,,4,1,0.949676486643,,,,,,2015_Nov_11_1323,P3,PLC_L_D2S1,NHG,60.0182634654,
stim/posf.jpg,stim/negf.jpg,stim/1.jpg,stim/3.jpg,stim/latef.jpg,AB,2,4,,,,,,,,,0,33,33,15,,,,,,,,,,4,1,0.833063874708,,,,,,2015_Nov_11_1323,P3,PLC_L_D2S1,NHG,60.0182634654,
stim/negf.jpg,stim/posf.jpg,stim/6.jpg,stim/4.jpg,stim/latef.jpg,CD,1,2,,,,,,,,,0,34,34,27,,,,,,,,,,2,1,0.666432559154,,,,,,2015_Nov_11_1323,P3,PLC_L_D2S1,NHG,60.0182634654,
stim/negf.jpg,stim/posf.jpg,stim/1.jpg,stim/3.jpg,stim/latef.jpg,AB,2,4,,,,,,,,,0,35,35,18,,,,,,,,,,4,1,1.26623128849,,,,,,2015_Nov_11_1323,P3,PLC_L_D2S1,NHG,60.0182634654,
stim/posf.jpg,stim/negf.jpg,stim/2.jpg,stim/5.jpg,stim/latef.jpg,EF,2,4,,,,,,,,,0,36,36,54,,,,,,,,,,4,1,0.733005983413,,,,,,2015_Nov_11_1323,P3,PLC_L_D2S1,NHG,60.0182634654,
stim/posf.jpg,stim/negf.jpg,stim/6.jpg,stim/4.jpg,stim/latef.jpg,CD,1,2,,,,,,,,,0,37,37,24,,,,,,,,,,2,1,0.616448742491,,,,,,2015_Nov_11_1323,P3,PLC_L_D2S1,NHG,60.0182634654,
stim/posf.jpg,stim/negf.jpg,stim/3.jpg,stim/1.jpg,stim/latef.jpg,AB,1,2,,,,,,,,,0,38,38,3,,,,,,,,,,2,1,0.583116734461,,,,,,2015_Nov_11_1323,P3,PLC_L_D2S1,NHG,60.0182634654,
stim/posf.jpg,stim/negf.jpg,stim/6.jpg,stim/4.jpg,stim/latef.jpg,CD,1,2,,,,,,,,,0,39,39,21,,,,,,,,,,2,1,0.533148965797,,,,,,2015_Nov_11_1323,P3,PLC_L_D2S1,NHG,60.0182634654,
stim/posf.jpg,stim/negf.jpg,stim/4.jpg,stim/6.jpg,stim/latef.jpg,CD,2,4,,,,,,,,,0,40,40,36,,,,,,,,,,4,1,0.849791776002,,,,,,2015_Nov_11_1323,P3,PLC_L_D2S1,NHG,60.0182634654,
stim/posf.jpg,stim/negf.jpg,stim/6.jpg,stim/4.jpg,stim/latef.jpg,CD,1,2,,,,,,,,,0,41,41,23,,,,,,,,,,2,1,0.533143131255,,,,,,2015_Nov_11_1323,P3,PLC_L_D2S1,NHG,60.0182634654,
stim/posf.jpg,stim/negf.jpg,stim/2.jpg,stim/5.jpg,stim/latef.jpg,EF,2,4,,,,,,,,,0,42,42,51,,,,,,,,,,4,1,0.749739583913,,,,,,2015_Nov_11_1323,P3,PLC_L_D2S1,NHG,60.0182634654,
stim/posf.jpg,stim/negf.jpg,stim/6.jpg,stim/4.jpg,stim/latef.jpg,CD,1,2,,,,,,,,,0,43,43,26,,,,,,,,,,2,1,0.716457885279,,,,,,2015_Nov_11_1323,P3,PLC_L_D2S1,NHG,60.0182634654,
stim/negf.jpg,stim/posf.jpg,stim/5.jpg,stim/2.jpg,stim/latef.jpg,EF,1,2,,,,,,,,,0,44,44,47,,,,,,,,,,2,1,0.616476315216,,,,,,2015_Nov_11_1323,P3,PLC_L_D2S1,NHG,60.0182634654,
stim/posf.jpg,stim/negf.jpg,stim/5.jpg,stim/2.jpg,stim/latef.jpg,EF,1,2,,,,,,,,,0,45,45,43,,,,,,,,,,2,1,0.466482279081,,,,,,2015_Nov_11_1323,P3,PLC_L_D2S1,NHG,60.0182634654,
stim/posf.jpg,stim/negf.jpg,stim/5.jpg,stim/2.jpg,stim/latef.jpg,EF,1,2,,,,,,,,,0,46,46,45,,,,,,,,,,2,1,0.499825474996,,,,,,2015_Nov_11_1323,P3,PLC_L_D2S1,NHG,60.0182634654,
stim/posf.jpg,stim/negf.jpg,stim/1.jpg,stim/3.jpg,stim/latef.jpg,AB,2,4,,,,,,,,,0,47,47,16,,,,,,,,,,4,1,0.749736528297,,,,,,2015_Nov_11_1323,P3,PLC_L_D2S1,NHG,60.0182634654,
stim/posf.jpg,stim/negf.jpg,stim/2.jpg,stim/5.jpg,stim/latef.jpg,EF,2,4,,,,,,,,,0,48,48,50,,,,,,,,,,4,1,0.699763652905,,,,,,2015_Nov_11_1323,P3,PLC_L_D2S1,NHG,60.0182634654,
stim/negf.jpg,stim/posf.jpg,stim/2.jpg,stim/5.jpg,stim/latef.jpg,EF,2,4,,,,,,,,,0,49,49,58,,,,,,,,,,4,1,0.633169747596,,,,,,2015_Nov_11_1323,P3,PLC_L_D2S1,NHG,60.0182634654,
stim/negf.jpg,stim/posf.jpg,stim/4.jpg,stim/6.jpg,stim/latef.jpg,CD,2,4,,,,,,,,,0,50,50,38,,,,,,,,,,4,1,0.666484709138,,,,,,2015_Nov_11_1323,P3,PLC_L_D2S1,NHG,60.0182634654,
stim/posf.jpg,stim/negf.jpg,stim/4.jpg,stim/6.jpg,stim/latef.jpg,CD,2,4,,,,,,,,,0,51,51,31,,,,,,,,,,4,1,0.583184418162,,,,,,2015_Nov_11_1323,P3,PLC_L_D2S1,NHG,60.0182634654,
stim/posf.jpg,stim/negf.jpg,stim/5.jpg,stim/2.jpg,stim/latef.jpg,EF,1,2,,,,,,,,,0,52,52,41,,,,,,,,,,2,1,0.799737310246,,,,,,2015_Nov_11_1323,P3,PLC_L_D2S1,NHG,60.0182634654,
stim/negf.jpg,stim/posf.jpg,stim/3.jpg,stim/1.jpg,stim/latef.jpg,AB,1,2,,,,,,,,,0,53,53,8,,,,,,,,,,2,1,0.749735740333,,,,,,2015_Nov_11_1323,P3,PLC_L_D2S1,NHG,60.0182634654,
stim/posf.jpg,stim/negf.jpg,stim/1.jpg,stim/3.jpg,stim/latef.jpg,AB,2,4,,,,,,,,,0,54,54,17,,,,,,,,,,4,1,0.64977539417,,,,,,2015_Nov_11_1323,P3,PLC_L_D2S1,NHG,60.0182634654,
stim/posf.jpg,stim/negf.jpg,stim/6.jpg,stim/4.jpg,stim/latef.jpg,CD,1,2,,,,,,,,,0,55,55,20,,,,,,,,,,2,1,0.616513707416,,,,,,2015_Nov_11_1323,P3,PLC_L_D2S1,NHG,60.0182634654,
stim/posf.jpg,stim/negf.jpg,stim/4.jpg,stim/6.jpg,stim/latef.jpg,CD,2,4,,,,,,,,,0,56,56,33,,,,,,,,,,4,1,0.816461470215,,,,,,2015_Nov_11_1323,P3,PLC_L_D2S1,NHG,60.0182634654,
stim/posf.jpg,stim/negf.jpg,stim/3.jpg,stim/1.jpg,stim/latef.jpg,AB,1,2,,,,,,,,,0,57,57,7,,,,,,,,,,2,1,0.749670865633,,,,,,2015_Nov_11_1323,P3,PLC_L_D2S1,NHG,60.0182634654,
stim/posf.jpg,stim/negf.jpg,stim/5.jpg,stim/2.jpg,stim/latef.jpg,EF,1,2,,,,,,,,,0,58,58,42,,,,,,,,,,2,1,0.449831438861,,,,,,2015_Nov_11_1323,P3,PLC_L_D2S1,NHG,60.0182634654,
stim/posf.jpg,stim/negf.jpg,stim/2.jpg,stim/5.jpg,stim/latef.jpg,EF,2,4,,,,,,,,,0,59,59,55,,,,,,,,,,4,1,0.516503391704,,,,,,2015_Nov_11_1323,P3,PLC_L_D2S1,NHG,60.0182634654,
,,,,,,,,,,,,,,,,,,,,,,,,,,,,,,,,0.996875,1.0,1,0,0,2015_Nov_11_1323,P3,PLC_L_D2S1,NHG,60.0182634654,
stim/posf.jpg,stim/negf.jpg,stim/4.jpg,stim/6.jpg,stim/latef.jpg,CD,2,4,,,,,,,,,,,,,0,0,0,34,,,,,,4,1,0.683099829325,,,,,,2015_Nov_11_1323,P3,PLC_L_D2S1,NHG,60.0182634654,
stim/posf.jpg,stim/negf.jpg,stim/3.jpg,stim/1.jpg,stim/latef.jpg,AB,1,2,,,,,,,,,,,,,0,1,1,6,,,,,,2,1,0.599820632928,,,,,,2015_Nov_11_1323,P3,PLC_L_D2S1,NHG,60.0182634654,
stim/posf.jpg,stim/negf.jpg,stim/2.jpg,stim/5.jpg,stim/latef.jpg,EF,2,4,,,,,,,,,,,,,0,2,2,55,,,,,,4,1,0.633101465403,,,,,,2015_Nov_11_1323,P3,PLC_L_D2S1,NHG,60.0182634654,
stim/negf.jpg,stim/posf.jpg,stim/4.jpg,stim/6.jpg,stim/latef.jpg,CD,2,4,,,,,,,,,,,,,0,3,3,38,,,,,,4,1,0.566492919602,,,,,,2015_Nov_11_1323,P3,PLC_L_D2S1,NHG,60.0182634654,
stim/posf.jpg,stim/negf.jpg,stim/3.jpg,stim/1.jpg,stim/latef.jpg,AB,1,2,,,,,,,,,,,,,0,4,4,2,,,,,,2,1,0.549808488658,,,,,,2015_Nov_11_1323,P3,PLC_L_D2S1,NHG,60.0182634654,
stim/posf.jpg,stim/negf.jpg,stim/2.jpg,stim/5.jpg,stim/latef.jpg,EF,2,4,,,,,,,,,,,,,0,5,5,51,,,,,,4,1,0.666490017368,,,,,,2015_Nov_11_1323,P3,PLC_L_D2S1,NHG,60.0182634654,
stim/negf.jpg,stim/posf.jpg,stim/5.jpg,stim/2.jpg,stim/latef.jpg,EF,1,2,,,,,,,,,,,,,0,6,6,47,,,,,,2,1,0.533147272577,,,,,,2015_Nov_11_1323,P3,PLC_L_D2S1,NHG,60.0182634654,
stim/negf.jpg,stim/posf.jpg,stim/1.jpg,stim/3.jpg,stim/latef.jpg,AB,2,4,,,,,,,,,,,,,0,7,7,19,,,,,,4,1,0.733093928617,,,,,,2015_Nov_11_1323,P3,PLC_L_D2S1,NHG,60.0182634654,
stim/posf.jpg,stim/negf.jpg,stim/5.jpg,stim/2.jpg,stim/latef.jpg,EF,1,2,,,,,,,,,,,,,0,8,8,42,,,,,,2,1,0.499805336802,,,,,,2015_Nov_11_1323,P3,PLC_L_D2S1,NHG,60.0182634654,
stim/negf.jpg,stim/posf.jpg,stim/5.jpg,stim/2.jpg,stim/latef.jpg,EF,1,2,,,,,,,,,,,,,0,9,9,48,,,,,,2,1,0.583140707213,,,,,,2015_Nov_11_1323,P3,PLC_L_D2S1,NHG,60.0182634654,
stim/negf.jpg,stim/posf.jpg,stim/2.jpg,stim/5.jpg,stim/latef.jpg,EF,2,4,,,,,,,,,,,,,0,10,10,58,,,,,,4,1,0.633108963091,,,,,,2015_Nov_11_1323,P3,PLC_L_D2S1,NHG,60.0182634654,
stim/posf.jpg,stim/negf.jpg,stim/1.jpg,stim/3.jpg,stim/latef.jpg,AB,2,4,,,,,,,,,,,,,0,11,11,13,,,,,,4,1,0.549815733716,,,,,,2015_Nov_11_1323,P3,PLC_L_D2S1,NHG,60.0182634654,
stim/posf.jpg,stim/negf.jpg,stim/2.jpg,stim/5.jpg,stim/latef.jpg,EF,2,4,,,,,,,,,,,,,0,12,12,50,,,,,,4,1,0.566479659552,,,,,,2015_Nov_11_1323,P3,PLC_L_D2S1,NHG,60.0182634654,
stim/posf.jpg,stim/negf.jpg,stim/6.jpg,stim/4.jpg,stim/latef.jpg,CD,1,2,,,,,,,,,,,,,0,13,13,23,,,,,,2,1,0.649749962782,,,,,,2015_Nov_11_1323,P3,PLC_L_D2S1,NHG,60.0182634654,
stim/posf.jpg,stim/negf.jpg,stim/3.jpg,stim/1.jpg,stim/latef.jpg,AB,1,2,,,,,,,,,,,,,0,14,14,4,,,,,,2,1,0.683100430824,,,,,,2015_Nov_11_1323,P3,PLC_L_D2S1,NHG,60.0182634654,
stim/posf.jpg,stim/negf.jpg,stim/6.jpg,stim/4.jpg,stim/latef.jpg,CD,1,2,,,,,,,,,,,,,0,15,15,24,,,,,,2,1,0.549808230013,,,,,,2015_Nov_11_1323,P3,PLC_L_D2S1,NHG,60.0182634654,
stim/negf.jpg,stim/posf.jpg,stim/2.jpg,stim/5.jpg,stim/latef.jpg,EF,2,4,,,,,,,,,,,,,0,16,16,59,,,,,,4,1,0.716440679393,,,,,,2015_Nov_11_1323,P3,PLC_L_D2S1,NHG,60.0182634654,
stim/posf.jpg,stim/negf.jpg,stim/1.jpg,stim/3.jpg,stim/latef.jpg,AB,2,4,,,,,,,,,,,,,0,17,17,15,,,,,,4,1,0.583154009368,,,,,,2015_Nov_11_1323,P3,PLC_L_D2S1,NHG,60.0182634654,
stim/posf.jpg,stim/negf.jpg,stim/4.jpg,stim/6.jpg,stim/latef.jpg,CD,2,4,,,,,,,,,,,,,0,18,18,32,,,,,,4,1,0.683107796182,,,,,,2015_Nov_11_1323,P3,PLC_L_D2S1,NHG,60.0182634654,
stim/negf.jpg,stim/posf.jpg,stim/4.jpg,stim/6.jpg,stim/latef.jpg,CD,2,4,,,,,,,,,,,,,0,19,19,37,,,,,,4,1,0.599789394065,,,,,,2015_Nov_11_1323,P3,PLC_L_D2S1,NHG,60.0182634654,
stim/posf.jpg,stim/negf.jpg,stim/6.jpg,stim/4.jpg,stim/latef.jpg,CD,1,2,,,,,,,,,,,,,0,20,20,22,,,,,,2,1,0.683105937549,,,,,,2015_Nov_11_1323,P3,PLC_L_D2S1,NHG,60.0182634654,
stim/posf.jpg,stim/negf.jpg,stim/4.jpg,stim/6.jpg,stim/latef.jpg,CD,2,4,,,,,,,,,,,,,0,21,21,35,,,,,,4,1,0.549826211833,,,,,,2015_Nov_11_1323,P3,PLC_L_D2S1,NHG,60.0182634654,
stim/posf.jpg,stim/negf.jpg,stim/2.jpg,stim/5.jpg,stim/latef.jpg,EF,2,4,,,,,,,,,,,,,0,22,22,52,,,,,,4,1,0.599838885422,,,,,,2015_Nov_11_1323,P3,PLC_L_D2S1,NHG,60.0182634654,
stim/posf.jpg,stim/negf.jpg,stim/2.jpg,stim/5.jpg,stim/latef.jpg,EF,2,4,,,,,,,,,,,,,0,23,23,53,,,,,,4,1,0.649747376335,,,,,,2015_Nov_11_1323,P3,PLC_L_D2S1,NHG,60.0182634654,
stim/posf.jpg,stim/negf.jpg,stim/2.jpg,stim/5.jpg,stim/latef.jpg,EF,2,4,,,,,,,,,,,,,0,24,24,54,,,,,,4,1,0.549807451072,,,,,,2015_Nov_11_1323,P3,PLC_L_D2S1,NHG,60.0182634654,
stim/negf.jpg,stim/posf.jpg,stim/2.jpg,stim/5.jpg,stim/latef.jpg,EF,2,4,,,,,,,,,,,,,0,25,25,56,,,,,,4,1,0.582150224434,,,,,,2015_Nov_11_1323,P3,PLC_L_D2S1,NHG,60.0182634654,
stim/posf.jpg,stim/negf.jpg,stim/6.jpg,stim/4.jpg,stim/latef.jpg,CD,1,2,,,,,,,,,,,,,0,26,26,21,,,,,,2,1,0.53314480643,,,,,,2015_Nov_11_1323,P3,PLC_L_D2S1,NHG,60.0182634654,
stim/negf.jpg,stim/posf.jpg,stim/5.jpg,stim/2.jpg,stim/latef.jpg,EF,1,2,,,,,,,,,,,,,0,27,27,46,,,,,,2,1,0.54977348441,,,,,,2015_Nov_11_1323,P3,PLC_L_D2S1,NHG,60.0182634654,
stim/posf.jpg,stim/negf.jpg,stim/1.jpg,stim/3.jpg,stim/latef.jpg,AB,2,4,,,,,,,,,,,,,0,28,28,16,,,,,,4,1,0.849767246863,,,,,,2015_Nov_11_1323,P3,PLC_L_D2S1,NHG,60.0182634654,
stim/negf.jpg,stim/posf.jpg,stim/1.jpg,stim/3.jpg,stim/latef.jpg,AB,2,4,,,,,,,,,,,,,0,29,29,18,,,,,,4,1,0.549815321689,,,,,,2015_Nov_11_1323,P3,PLC_L_D2S1,NHG,60.0182634654,
stim/negf.jpg,stim/posf.jpg,stim/4.jpg,stim/6.jpg,stim/latef.jpg,CD,2,4,,,,,,,,,,,,,0,30,30,39,,,,,,4,1,0.566480928715,,,,,,2015_Nov_11_1323,P3,PLC_L_D2S1,NHG,60.0182634654,
stim/posf.jpg,stim/negf.jpg,stim/6.jpg,stim/4.jpg,stim/latef.jpg,CD,1,2,,,,,,,,,,,,,0,31,31,25,,,,,,2,1,0.516493494034,,,,,,2015_Nov_11_1323,P3,PLC_L_D2S1,NHG,60.0182634654,
stim/negf.jpg,stim/posf.jpg,stim/6.jpg,stim/4.jpg,stim/latef.jpg,CD,1,2,,,,,,,,,,,,,0,32,32,28,,,,,,2,1,0.599816431455,,,,,,2015_Nov_11_1323,P3,PLC_L_D2S1,NHG,60.0182634654,
stim/negf.jpg,stim/posf.jpg,stim/2.jpg,stim/5.jpg,stim/latef.jpg,EF,2,4,,,,,,,,,,,,,0,33,33,57,,,,,,4,1,0.583119829174,,,,,,2015_Nov_11_1323,P3,PLC_L_D2S1,NHG,60.0182634654,
stim/negf.jpg,stim/posf.jpg,stim/6.jpg,stim/4.jpg,stim/latef.jpg,CD,1,2,,,,,,,,,,,,,0,34,34,27,,,,,,2,1,0.533095817325,,,,,,2015_Nov_11_1323,P3,PLC_L_D2S1,NHG,60.0182634654,
stim/negf.jpg,stim/posf.jpg,stim/3.jpg,stim/1.jpg,stim/latef.jpg,AB,1,2,,,,,,,,,,,,,0,35,35,9,,,,,,2,1,0.583126683258,,,,,,2015_Nov_11_1323,P3,PLC_L_D2S1,NHG,60.0182634654,
stim/posf.jpg,stim/negf.jpg,stim/1.jpg,stim/3.jpg,stim/latef.jpg,AB,2,4,,,,,,,,,,,,,0,36,36,12,,,,,,4,1,0.666455554469,,,,,,2015_Nov_11_1323,P3,PLC_L_D2S1,NHG,60.0182634654,
stim/posf.jpg,stim/negf.jpg,stim/3.jpg,stim/1.jpg,stim/latef.jpg,AB,1,2,,,,,,,,,,,,,0,37,37,3,,,,,,2,1,0.483125934391,,,,,,2015_Nov_11_1323,P3,PLC_L_D2S1,NHG,60.0182634654,
stim/posf.jpg,stim/negf.jpg,stim/4.jpg,stim/6.jpg,stim/latef.jpg,CD,2,4,,,,,,,,,,,,,0,38,38,30,,,,,,4,1,0.733086882054,,,,,,2015_Nov_11_1323,P3,PLC_L_D2S1,NHG,60.0182634654,
stim/posf.jpg,stim/negf.jpg,stim/1.jpg,stim/3.jpg,stim/latef.jpg,AB,2,4,,,,,,,,,,,,,0,39,39,14,,,,,,4,1,0.599806894685,,,,,,2015_Nov_11_1323,P3,PLC_L_D2S1,NHG,60.0182634654,
stim/posf.jpg,stim/negf.jpg,stim/5.jpg,stim/2.jpg,stim/latef.jpg,EF,1,2,,,,,,,,,,,,,0,40,40,40,,,,,,2,1,0.599796551905,,,,,,2015_Nov_11_1323,P3,PLC_L_D2S1,NHG,60.0182634654,
stim/posf.jpg,stim/negf.jpg,stim/6.jpg,stim/4.jpg,stim/latef.jpg,CD,1,2,,,,,,,,,,,,,0,41,41,26,,,,,,2,1,0.899654228164,,,,,,2015_Nov_11_1323,P3,PLC_L_D2S1,NHG,60.0182634654,
stim/posf.jpg,stim/negf.jpg,stim/3.jpg,stim/1.jpg,stim/latef.jpg,AB,1,2,,,,,,,,,,,,,0,42,42,7,,,,,,2,1,0.566459148428,,,,,,2015_Nov_11_1323,P3,PLC_L_D2S1,NHG,60.0182634654,
stim/posf.jpg,stim/negf.jpg,stim/1.jpg,stim/3.jpg,stim/latef.jpg,AB,2,4,,,,,,,,,,,,,0,43,43,11,,,,,,4,1,0.649781084353,,,,,,2015_Nov_11_1323,P3,PLC_L_D2S1,NHG,60.0182634654,
stim/posf.jpg,stim/negf.jpg,stim/5.jpg,stim/2.jpg,stim/latef.jpg,EF,1,2,,,,,,,,,,,,,0,44,44,44,,,,,,2,1,0.733070428042,,,,,,2015_Nov_11_1323,P3,PLC_L_D2S1,NHG,60.0182634654,
stim/negf.jpg,stim/posf.jpg,stim/3.jpg,stim/1.jpg,stim/latef.jpg,AB,1,2,,,,,,,,,,,,,0,45,45,8,,,,,,2,1,0.666429708047,,,,,,2015_Nov_11_1323,P3,PLC_L_D2S1,NHG,60.0182634654,
stim/posf.jpg,stim/negf.jpg,stim/5.jpg,stim/2.jpg,stim/latef.jpg,EF,1,2,,,,,,,,,,,,,0,46,46,43,,,,,,2,1,0.699775839279,,,,,,2015_Nov_11_1323,P3,PLC_L_D2S1,NHG,60.0182634654,
stim/negf.jpg,stim/posf.jpg,stim/6.jpg,stim/4.jpg,stim/latef.jpg,CD,1,2,,,,,,,,,,,,,0,47,47,29,,,,,,2,1,0.73303035917,,,,,,2015_Nov_11_1323,P3,PLC_L_D2S1,NHG,60.0182634654,
stim/posf.jpg,stim/negf.jpg,stim/1.jpg,stim/3.jpg,stim/latef.jpg,AB,2,4,,,,,,,,,,,,,0,48,48,10,,,,,,4,1,0.749664089744,,,,,,2015_Nov_11_1323,P3,PLC_L_D2S1,NHG,60.0182634654,
stim/posf.jpg,stim/negf.jpg,stim/4.jpg,stim/6.jpg,stim/latef.jpg,CD,2,4,,,,,,,,,,,,,0,49,49,33,,,,,,4,1,0.633077276111,,,,,,2015_Nov_11_1323,P3,PLC_L_D2S1,NHG,60.0182634654,
stim/posf.jpg,stim/negf.jpg,stim/4.jpg,stim/6.jpg,stim/latef.jpg,CD,2,4,,,,,,,,,,,,,0,50,50,36,,,,,,4,1,0.649783658769,,,,,,2015_Nov_11_1323,P3,PLC_L_D2S1,NHG,60.0182634654,
stim/posf.jpg,stim/negf.jpg,stim/5.jpg,stim/2.jpg,stim/latef.jpg,EF,1,2,,,,,,,,,,,,,0,51,51,41,,,,,,2,1,0.749748672566,,,,,,2015_Nov_11_1323,P3,PLC_L_D2S1,NHG,60.0182634654,
stim/posf.jpg,stim/negf.jpg,stim/3.jpg,stim/1.jpg,stim/latef.jpg,AB,1,2,,,,,,,,,,,,,0,52,52,0,,,,,,2,1,0.566479852031,,,,,,2015_Nov_11_1323,P3,PLC_L_D2S1,NHG,60.0182634654,
stim/posf.jpg,stim/negf.jpg,stim/1.jpg,stim/3.jpg,stim/latef.jpg,AB,2,4,,,,,,,,,,,,,0,53,53,17,,,,,,4,1,0.54981262998,,,,,,2015_Nov_11_1323,P3,PLC_L_D2S1,NHG,60.0182634654,
stim/negf.jpg,stim/posf.jpg,stim/5.jpg,stim/2.jpg,stim/latef.jpg,EF,1,2,,,,,,,,,,,,,0,54,54,49,,,,,,2,1,0.699751361268,,,,,,2015_Nov_11_1323,P3,PLC_L_D2S1,NHG,60.0182634654,
stim/posf.jpg,stim/negf.jpg,stim/3.jpg,stim/1.jpg,stim/latef.jpg,AB,1,2,,,,,,,,,,,,,0,55,55,1,,,,,,2,1,0.599788684296,,,,,,2015_Nov_11_1323,P3,PLC_L_D2S1,NHG,60.0182634654,
stim/posf.jpg,stim/negf.jpg,stim/6.jpg,stim/4.jpg,stim/latef.jpg,CD,1,2,,,,,,,,,,,,,0,56,56,20,,,,,,2,1,0.966352640958,,,,,,2015_Nov_11_1323,P3,PLC_L_D2S1,NHG,60.0182634654,
stim/posf.jpg,stim/negf.jpg,stim/4.jpg,stim/6.jpg,stim/latef.jpg,CD,2,4,,,,,,,,,,,,,0,57,57,31,,,,,,4,1,0.583100572176,,,,,,2015_Nov_11_1323,P3,PLC_L_D2S1,NHG,60.0182634654,
stim/posf.jpg,stim/negf.jpg,stim/3.jpg,stim/1.jpg,stim/latef.jpg,AB,1,2,,,,,,,,,,,,,0,58,58,5,,,,,,2,1,0.583107251825,,,,,,2015_Nov_11_1323,P3,PLC_L_D2S1,NHG,60.0182634654,
stim/posf.jpg,stim/negf.jpg,stim/5.jpg,stim/2.jpg,stim/latef.jpg,EF,1,2,,,,,,,,,,,,,0,59,59,45,,,,,,2,1,0.64979505718,,,,,,2015_Nov_11_1323,P3,PLC_L_D2S1,NHG,60.0182634654,
