fb_corr,fb_incorr,symbol2,symbol1,fb_late,pair,position,correct,block_01.thisRepN,block_01.thisTrialN,block_01.thisN,block_01.thisIndex,block_02.thisRepN,block_02.thisTrialN,block_02.thisN,block_02.thisIndex,block_03.thisRepN,block_03.thisTrialN,block_03.thisN,block_03.thisIndex,block_04.thisRepN,block_04.thisTrialN,block_04.thisN,block_04.thisIndex,mouse.x,mouse.y,mouse.leftButton,mouse.midButton,mouse.rightButton,buttonBox_2.keys,buttonBox_2.corr,buttonBox_2.rt,mouse_2.x,mouse_2.y,mouse_2.leftButton,mouse_2.midButton,mouse_2.rightButton,date,Participant,expName,Group,frameRate,
,,,,,,,,,,,,,,,,,,,,,,,,0.9984375,0.181640625,1,0,0,,,,,,,,,2016_Feb_02_1558,P10,PLC_L_D2S1,NHGY,60.0196090261,
stim/posf.jpg,stim/negf.jpg,stim/1.jpg,stim/2.jpg,stim/latef.jpg,AB,2,4,0,0,0,12,,,,,,,,,,,,,,,,,,2,0,0.916371416757,,,,,,2016_Feb_02_1558,P10,PLC_L_D2S1,NHGY,60.0196090261,
stim/negf.jpg,stim/posf.jpg,stim/2.jpg,stim/1.jpg,stim/latef.jpg,AB,1,2,0,1,1,8,,,,,,,,,,,,,,,,,,2,1,1.08297288893,,,,,,2016_Feb_02_1558,P10,PLC_L_D2S1,NHGY,60.0196090261,
stim/posf.jpg,stim/negf.jpg,stim/2.jpg,stim/1.jpg,stim/latef.jpg,AB,1,2,0,2,2,0,,,,,,,,,,,,,,,,,,2,1,0.833053986062,,,,,,2016_Feb_02_1558,P10,PLC_L_D2S1,NHGY,60.0196090261,
stim/posf.jpg,stim/negf.jpg,stim/3.jpg,stim/4.jpg,stim/latef.jpg,EF,2,4,0,3,3,54,,,,,,,,,,,,,,,,,,4,1,1.19961523898,,,,,,2016_Feb_02_1558,P10,PLC_L_D2S1,NHGY,60.0196090261,
stim/negf.jpg,stim/posf.jpg,stim/6.jpg,stim/5.jpg,stim/latef.jpg,CD,2,4,0,4,4,37,,,,,,,,,,,,,,,,,,4,1,1.44952177502,,,,,,2016_Feb_02_1558,P10,PLC_L_D2S1,NHGY,60.0196090261,
stim/posf.jpg,stim/negf.jpg,stim/6.jpg,stim/5.jpg,stim/latef.jpg,CD,2,4,0,5,5,36,,,,,,,,,,,,,,,,,,4,1,0.683089161736,,,,,,2016_Feb_02_1558,P10,PLC_L_D2S1,NHGY,60.0196090261,
stim/negf.jpg,stim/posf.jpg,stim/1.jpg,stim/2.jpg,stim/latef.jpg,AB,2,4,0,6,6,18,,,,,,,,,,,,,,,,,,2,0,1.08300243156,,,,,,2016_Feb_02_1558,P10,PLC_L_D2S1,NHGY,60.0196090261,
stim/posf.jpg,stim/negf.jpg,stim/3.jpg,stim/4.jpg,stim/latef.jpg,EF,2,4,0,7,7,51,,,,,,,,,,,,,,,,,,None,0,,,,,,,2016_Feb_02_1558,P10,PLC_L_D2S1,NHGY,60.0196090261,
stim/negf.jpg,stim/posf.jpg,stim/4.jpg,stim/3.jpg,stim/latef.jpg,EF,1,2,0,8,8,46,,,,,,,,,,,,,,,,,,2,1,1.14956849648,,,,,,2016_Feb_02_1558,P10,PLC_L_D2S1,NHGY,60.0196090261,
stim/negf.jpg,stim/posf.jpg,stim/5.jpg,stim/6.jpg,stim/latef.jpg,CD,1,2,0,9,9,27,,,,,,,,,,,,,,,,,,2,1,0.949686525666,,,,,,2016_Feb_02_1558,P10,PLC_L_D2S1,NHGY,60.0196090261,
stim/negf.jpg,stim/posf.jpg,stim/5.jpg,stim/6.jpg,stim/latef.jpg,CD,1,2,0,10,10,28,,,,,,,,,,,,,,,,,,2,1,0.61648470613,,,,,,2016_Feb_02_1558,P10,PLC_L_D2S1,NHGY,60.0196090261,
stim/negf.jpg,stim/posf.jpg,stim/3.jpg,stim/4.jpg,stim/latef.jpg,EF,2,4,0,11,11,56,,,,,,,,,,,,,,,,,,2,0,1.29959580154,,,,,,2016_Feb_02_1558,P10,PLC_L_D2S1,NHGY,60.0196090261,
stim/posf.jpg,stim/negf.jpg,stim/2.jpg,stim/1.jpg,stim/latef.jpg,AB,1,2,0,12,12,4,,,,,,,,,,,,,,,,,,4,0,1.11629204292,,,,,,2016_Feb_02_1558,P10,PLC_L_D2S1,NHGY,60.0196090261,
stim/posf.jpg,stim/negf.jpg,stim/4.jpg,stim/3.jpg,stim/latef.jpg,EF,1,2,0,13,13,40,,,,,,,,,,,,,,,,,,2,1,1.11630134811,,,,,,2016_Feb_02_1558,P10,PLC_L_D2S1,NHGY,60.0196090261,
stim/posf.jpg,stim/negf.jpg,stim/5.jpg,stim/6.jpg,stim/latef.jpg,CD,1,2,0,14,14,24,,,,,,,,,,,,,,,,,,2,1,0.866366162662,,,,,,2016_Feb_02_1558,P10,PLC_L_D2S1,NHGY,60.0196090261,
stim/posf.jpg,stim/negf.jpg,stim/6.jpg,stim/5.jpg,stim/latef.jpg,CD,2,4,0,15,15,33,,,,,,,,,,,,,,,,,,4,1,1.04964280569,,,,,,2016_Feb_02_1558,P10,PLC_L_D2S1,NHGY,60.0196090261,
stim/posf.jpg,stim/negf.jpg,stim/6.jpg,stim/5.jpg,stim/latef.jpg,CD,2,4,0,16,16,34,,,,,,,,,,,,,,,,,,4,1,0.68316743483,,,,,,2016_Feb_02_1558,P10,PLC_L_D2S1,NHGY,60.0196090261,
stim/posf.jpg,stim/negf.jpg,stim/2.jpg,stim/1.jpg,stim/latef.jpg,AB,1,2,0,17,17,2,,,,,,,,,,,,,,,,,,2,1,1.16634038842,,,,,,2016_Feb_02_1558,P10,PLC_L_D2S1,NHGY,60.0196090261,
stim/posf.jpg,stim/negf.jpg,stim/1.jpg,stim/2.jpg,stim/latef.jpg,AB,2,4,0,18,18,14,,,,,,,,,,,,,,,,,,4,1,0.9162816851,,,,,,2016_Feb_02_1558,P10,PLC_L_D2S1,NHGY,60.0196090261,
stim/negf.jpg,stim/posf.jpg,stim/2.jpg,stim/1.jpg,stim/latef.jpg,AB,1,2,0,19,19,9,,,,,,,,,,,,,,,,,,2,1,0.799746801904,,,,,,2016_Feb_02_1558,P10,PLC_L_D2S1,NHGY,60.0196090261,
stim/posf.jpg,stim/negf.jpg,stim/3.jpg,stim/4.jpg,stim/latef.jpg,EF,2,4,0,20,20,52,,,,,,,,,,,,,,,,,,4,1,1.28287304907,,,,,,2016_Feb_02_1558,P10,PLC_L_D2S1,NHGY,60.0196090261,
stim/posf.jpg,stim/negf.jpg,stim/1.jpg,stim/2.jpg,stim/latef.jpg,AB,2,4,0,21,21,10,,,,,,,,,,,,,,,,,,4,1,1.3162108345,,,,,,2016_Feb_02_1558,P10,PLC_L_D2S1,NHGY,60.0196090261,
stim/negf.jpg,stim/posf.jpg,stim/4.jpg,stim/3.jpg,stim/latef.jpg,EF,1,2,0,22,22,48,,,,,,,,,,,,,,,,,,2,1,1.01633497793,,,,,,2016_Feb_02_1558,P10,PLC_L_D2S1,NHGY,60.0196090261,
stim/posf.jpg,stim/negf.jpg,stim/2.jpg,stim/1.jpg,stim/latef.jpg,AB,1,2,0,23,23,7,,,,,,,,,,,,,,,,,,2,1,0.849734362899,,,,,,2016_Feb_02_1558,P10,PLC_L_D2S1,NHGY,60.0196090261,
stim/negf.jpg,stim/posf.jpg,stim/5.jpg,stim/6.jpg,stim/latef.jpg,CD,1,2,0,24,24,29,,,,,,,,,,,,,,,,,,2,1,0.79977559868,,,,,,2016_Feb_02_1558,P10,PLC_L_D2S1,NHGY,60.0196090261,
stim/posf.jpg,stim/negf.jpg,stim/5.jpg,stim/6.jpg,stim/latef.jpg,CD,1,2,0,25,25,23,,,,,,,,,,,,,,,,,,2,1,0.799771854347,,,,,,2016_Feb_02_1558,P10,PLC_L_D2S1,NHGY,60.0196090261,
stim/posf.jpg,stim/negf.jpg,stim/5.jpg,stim/6.jpg,stim/latef.jpg,CD,1,2,0,26,26,22,,,,,,,,,,,,,,,,,,2,1,0.66646003564,,,,,,2016_Feb_02_1558,P10,PLC_L_D2S1,NHGY,60.0196090261,
stim/posf.jpg,stim/negf.jpg,stim/2.jpg,stim/1.jpg,stim/latef.jpg,AB,1,2,0,27,27,6,,,,,,,,,,,,,,,,,,2,1,0.699758582266,,,,,,2016_Feb_02_1558,P10,PLC_L_D2S1,NHGY,60.0196090261,
stim/posf.jpg,stim/negf.jpg,stim/3.jpg,stim/4.jpg,stim/latef.jpg,EF,2,4,0,28,28,50,,,,,,,,,,,,,,,,,,2,0,1.16631087285,,,,,,2016_Feb_02_1558,P10,PLC_L_D2S1,NHGY,60.0196090261,
stim/posf.jpg,stim/negf.jpg,stim/2.jpg,stim/1.jpg,stim/latef.jpg,AB,1,2,0,29,29,1,,,,,,,,,,,,,,,,,,2,1,0.599847934978,,,,,,2016_Feb_02_1558,P10,PLC_L_D2S1,NHGY,60.0196090261,
stim/posf.jpg,stim/negf.jpg,stim/5.jpg,stim/6.jpg,stim/latef.jpg,CD,1,2,0,30,30,26,,,,,,,,,,,,,,,,,,2,1,0.866369116022,,,,,,2016_Feb_02_1558,P10,PLC_L_D2S1,NHGY,60.0196090261,
stim/posf.jpg,stim/negf.jpg,stim/4.jpg,stim/3.jpg,stim/latef.jpg,EF,1,2,0,31,31,45,,,,,,,,,,,,,,,,,,4,0,1.13300315336,,,,,,2016_Feb_02_1558,P10,PLC_L_D2S1,NHGY,60.0196090261,
stim/posf.jpg,stim/negf.jpg,stim/2.jpg,stim/1.jpg,stim/latef.jpg,AB,1,2,0,32,32,5,,,,,,,,,,,,,,,,,,2,1,1.13291674499,,,,,,2016_Feb_02_1558,P10,PLC_L_D2S1,NHGY,60.0196090261,
stim/posf.jpg,stim/negf.jpg,stim/5.jpg,stim/6.jpg,stim/latef.jpg,CD,1,2,0,33,33,20,,,,,,,,,,,,,,,,,,2,1,0.549794037639,,,,,,2016_Feb_02_1558,P10,PLC_L_D2S1,NHGY,60.0196090261,
stim/negf.jpg,stim/posf.jpg,stim/6.jpg,stim/5.jpg,stim/latef.jpg,CD,2,4,0,34,34,38,,,,,,,,,,,,,,,,,,4,1,0.699774837783,,,,,,2016_Feb_02_1558,P10,PLC_L_D2S1,NHGY,60.0196090261,
stim/posf.jpg,stim/negf.jpg,stim/6.jpg,stim/5.jpg,stim/latef.jpg,CD,2,4,0,35,35,31,,,,,,,,,,,,,,,,,,4,1,0.583150541725,,,,,,2016_Feb_02_1558,P10,PLC_L_D2S1,NHGY,60.0196090261,
stim/posf.jpg,stim/negf.jpg,stim/1.jpg,stim/2.jpg,stim/latef.jpg,AB,2,4,0,36,36,15,,,,,,,,,,,,,,,,,,2,0,1.08294561093,,,,,,2016_Feb_02_1558,P10,PLC_L_D2S1,NHGY,60.0196090261,
stim/negf.jpg,stim/posf.jpg,stim/3.jpg,stim/4.jpg,stim/latef.jpg,EF,2,4,0,37,37,57,,,,,,,,,,,,,,,,,,2,0,1.41618456703,,,,,,2016_Feb_02_1558,P10,PLC_L_D2S1,NHGY,60.0196090261,
stim/posf.jpg,stim/negf.jpg,stim/1.jpg,stim/2.jpg,stim/latef.jpg,AB,2,4,0,38,38,17,,,,,,,,,,,,,,,,,,4,1,1.21630426538,,,,,,2016_Feb_02_1558,P10,PLC_L_D2S1,NHGY,60.0196090261,
stim/posf.jpg,stim/negf.jpg,stim/4.jpg,stim/3.jpg,stim/latef.jpg,EF,1,2,0,39,39,44,,,,,,,,,,,,,,,,,,4,0,1.23293795987,,,,,,2016_Feb_02_1558,P10,PLC_L_D2S1,NHGY,60.0196090261,
stim/negf.jpg,stim/posf.jpg,stim/1.jpg,stim/2.jpg,stim/latef.jpg,AB,2,4,0,40,40,19,,,,,,,,,,,,,,,,,,4,1,1.16628040992,,,,,,2016_Feb_02_1558,P10,PLC_L_D2S1,NHGY,60.0196090261,
stim/negf.jpg,stim/posf.jpg,stim/4.jpg,stim/3.jpg,stim/latef.jpg,EF,1,2,0,41,41,47,,,,,,,,,,,,,,,,,,4,0,1.14958912489,,,,,,2016_Feb_02_1558,P10,PLC_L_D2S1,NHGY,60.0196090261,
stim/posf.jpg,stim/negf.jpg,stim/4.jpg,stim/3.jpg,stim/latef.jpg,EF,1,2,0,42,42,42,,,,,,,,,,,,,,,,,,4,0,0.93302767047,,,,,,2016_Feb_02_1558,P10,PLC_L_D2S1,NHGY,60.0196090261,
stim/posf.jpg,stim/negf.jpg,stim/5.jpg,stim/6.jpg,stim/latef.jpg,CD,1,2,0,43,43,21,,,,,,,,,,,,,,,,,,2,1,1.11630308945,,,,,,2016_Feb_02_1558,P10,PLC_L_D2S1,NHGY,60.0196090261,
stim/posf.jpg,stim/negf.jpg,stim/1.jpg,stim/2.jpg,stim/latef.jpg,AB,2,4,0,44,44,11,,,,,,,,,,,,,,,,,,4,1,0.933006031533,,,,,,2016_Feb_02_1558,P10,PLC_L_D2S1,NHGY,60.0196090261,
stim/posf.jpg,stim/negf.jpg,stim/3.jpg,stim/4.jpg,stim/latef.jpg,EF,2,4,0,45,45,55,,,,,,,,,,,,,,,,,,2,0,0.86638630687,,,,,,2016_Feb_02_1558,P10,PLC_L_D2S1,NHGY,60.0196090261,
stim/negf.jpg,stim/posf.jpg,stim/4.jpg,stim/3.jpg,stim/latef.jpg,EF,1,2,0,46,46,49,,,,,,,,,,,,,,,,,,4,0,1.18294650416,,,,,,2016_Feb_02_1558,P10,PLC_L_D2S1,NHGY,60.0196090261,
stim/negf.jpg,stim/posf.jpg,stim/3.jpg,stim/4.jpg,stim/latef.jpg,EF,2,4,0,47,47,58,,,,,,,,,,,,,,,,,,2,0,0.833062602536,,,,,,2016_Feb_02_1558,P10,PLC_L_D2S1,NHGY,60.0196090261,
stim/posf.jpg,stim/negf.jpg,stim/1.jpg,stim/2.jpg,stim/latef.jpg,AB,2,4,0,48,48,13,,,,,,,,,,,,,,,,,,4,1,0.816353365764,,,,,,2016_Feb_02_1558,P10,PLC_L_D2S1,NHGY,60.0196090261,
stim/negf.jpg,stim/posf.jpg,stim/6.jpg,stim/5.jpg,stim/latef.jpg,CD,2,4,0,49,49,39,,,,,,,,,,,,,,,,,,4,1,1.26622741483,,,,,,2016_Feb_02_1558,P10,PLC_L_D2S1,NHGY,60.0196090261,
stim/posf.jpg,stim/negf.jpg,stim/2.jpg,stim/1.jpg,stim/latef.jpg,AB,1,2,0,50,50,3,,,,,,,,,,,,,,,,,,2,1,0.716469743837,,,,,,2016_Feb_02_1558,P10,PLC_L_D2S1,NHGY,60.0196090261,
stim/posf.jpg,stim/negf.jpg,stim/1.jpg,stim/2.jpg,stim/latef.jpg,AB,2,4,0,51,51,16,,,,,,,,,,,,,,,,,,4,1,0.883066425064,,,,,,2016_Feb_02_1558,P10,PLC_L_D2S1,NHGY,60.0196090261,
stim/posf.jpg,stim/negf.jpg,stim/6.jpg,stim/5.jpg,stim/latef.jpg,CD,2,4,0,52,52,35,,,,,,,,,,,,,,,,,,4,1,0.716427807309,,,,,,2016_Feb_02_1558,P10,PLC_L_D2S1,NHGY,60.0196090261,
stim/posf.jpg,stim/negf.jpg,stim/4.jpg,stim/3.jpg,stim/latef.jpg,EF,1,2,0,53,53,43,,,,,,,,,,,,,,,,,,2,1,1.2495357689,,,,,,2016_Feb_02_1558,P10,PLC_L_D2S1,NHGY,60.0196090261,
stim/posf.jpg,stim/negf.jpg,stim/6.jpg,stim/5.jpg,stim/latef.jpg,CD,2,4,0,54,54,32,,,,,,,,,,,,,,,,,,4,1,1.28291164427,,,,,,2016_Feb_02_1558,P10,PLC_L_D2S1,NHGY,60.0196090261,
stim/posf.jpg,stim/negf.jpg,stim/5.jpg,stim/6.jpg,stim/latef.jpg,CD,1,2,0,55,55,25,,,,,,,,,,,,,,,,,,2,1,1.33291360215,,,,,,2016_Feb_02_1558,P10,PLC_L_D2S1,NHGY,60.0196090261,
stim/posf.jpg,stim/negf.jpg,stim/3.jpg,stim/4.jpg,stim/latef.jpg,EF,2,4,0,56,56,53,,,,,,,,,,,,,,,,,,2,0,1.6328247938,,,,,,2016_Feb_02_1558,P10,PLC_L_D2S1,NHGY,60.0196090261,
stim/posf.jpg,stim/negf.jpg,stim/6.jpg,stim/5.jpg,stim/latef.jpg,CD,2,4,0,57,57,30,,,,,,,,,,,,,,,,,,4,1,0.849718507381,,,,,,2016_Feb_02_1558,P10,PLC_L_D2S1,NHGY,60.0196090261,
stim/negf.jpg,stim/posf.jpg,stim/3.jpg,stim/4.jpg,stim/latef.jpg,EF,2,4,0,58,58,59,,,,,,,,,,,,,,,,,,4,1,1.23293287118,,,,,,2016_Feb_02_1558,P10,PLC_L_D2S1,NHGY,60.0196090261,
stim/posf.jpg,stim/negf.jpg,stim/4.jpg,stim/3.jpg,stim/latef.jpg,EF,1,2,0,59,59,41,,,,,,,,,,,,,,,,,,2,1,1.08297564981,,,,,,2016_Feb_02_1558,P10,PLC_L_D2S1,NHGY,60.0196090261,
,,,,,,,,,,,,,,,,,,,,,,,,,,,,,,,,0.9984375,0.181640625,1,0,0,2016_Feb_02_1558,P10,PLC_L_D2S1,NHGY,60.0196090261,
stim/posf.jpg,stim/negf.jpg,stim/2.jpg,stim/1.jpg,stim/latef.jpg,AB,1,2,,,,,0,0,0,4,,,,,,,,,,,,,,2,1,0.883096812806,,,,,,2016_Feb_02_1558,P10,PLC_L_D2S1,NHGY,60.0196090261,
stim/negf.jpg,stim/posf.jpg,stim/4.jpg,stim/3.jpg,stim/latef.jpg,EF,1,2,,,,,0,1,1,46,,,,,,,,,,,,,,2,1,1.11622707799,,,,,,2016_Feb_02_1558,P10,PLC_L_D2S1,NHGY,60.0196090261,
stim/posf.jpg,stim/negf.jpg,stim/6.jpg,stim/5.jpg,stim/latef.jpg,CD,2,4,,,,,0,2,2,31,,,,,,,,,,,,,,4,1,1.14964140119,,,,,,2016_Feb_02_1558,P10,PLC_L_D2S1,NHGY,60.0196090261,
stim/negf.jpg,stim/posf.jpg,stim/5.jpg,stim/6.jpg,stim/latef.jpg,CD,1,2,,,,,0,3,3,27,,,,,,,,,,,,,,2,1,1.43282335922,,,,,,2016_Feb_02_1558,P10,PLC_L_D2S1,NHGY,60.0196090261,
stim/negf.jpg,stim/posf.jpg,stim/3.jpg,stim/4.jpg,stim/latef.jpg,EF,2,4,,,,,0,4,4,57,,,,,,,,,,,,,,4,1,1.36621505703,,,,,,2016_Feb_02_1558,P10,PLC_L_D2S1,NHGY,60.0196090261,
stim/posf.jpg,stim/negf.jpg,stim/4.jpg,stim/3.jpg,stim/latef.jpg,EF,1,2,,,,,0,5,5,44,,,,,,,,,,,,,,2,1,1.29956275817,,,,,,2016_Feb_02_1558,P10,PLC_L_D2S1,NHGY,60.0196090261,
stim/posf.jpg,stim/negf.jpg,stim/1.jpg,stim/2.jpg,stim/latef.jpg,AB,2,4,,,,,0,6,6,16,,,,,,,,,,,,,,4,1,1.06632491786,,,,,,2016_Feb_02_1558,P10,PLC_L_D2S1,NHGY,60.0196090261,
stim/posf.jpg,stim/negf.jpg,stim/3.jpg,stim/4.jpg,stim/latef.jpg,EF,2,4,,,,,0,7,7,51,,,,,,,,,,,,,,4,1,1.21628219036,,,,,,2016_Feb_02_1558,P10,PLC_L_D2S1,NHGY,60.0196090261,
stim/posf.jpg,stim/negf.jpg,stim/2.jpg,stim/1.jpg,stim/latef.jpg,AB,1,2,,,,,0,8,8,7,,,,,,,,,,,,,,2,1,1.1329540229,,,,,,2016_Feb_02_1558,P10,PLC_L_D2S1,NHGY,60.0196090261,
stim/negf.jpg,stim/posf.jpg,stim/3.jpg,stim/4.jpg,stim/latef.jpg,EF,2,4,,,,,0,9,9,58,,,,,,,,,,,,,,4,1,1.44946734837,,,,,,2016_Feb_02_1558,P10,PLC_L_D2S1,NHGY,60.0196090261,
stim/negf.jpg,stim/posf.jpg,stim/1.jpg,stim/2.jpg,stim/latef.jpg,AB,2,4,,,,,0,10,10,19,,,,,,,,,,,,,,4,1,0.999662742384,,,,,,2016_Feb_02_1558,P10,PLC_L_D2S1,NHGY,60.0196090261,
stim/posf.jpg,stim/negf.jpg,stim/2.jpg,stim/1.jpg,stim/latef.jpg,AB,1,2,,,,,0,11,11,5,,,,,,,,,,,,,,2,1,0.566449097374,,,,,,2016_Feb_02_1558,P10,PLC_L_D2S1,NHGY,60.0196090261,
stim/negf.jpg,stim/posf.jpg,stim/6.jpg,stim/5.jpg,stim/latef.jpg,CD,2,4,,,,,0,12,12,37,,,,,,,,,,,,,,4,1,0.883038398208,,,,,,2016_Feb_02_1558,P10,PLC_L_D2S1,NHGY,60.0196090261,
stim/negf.jpg,stim/posf.jpg,stim/6.jpg,stim/5.jpg,stim/latef.jpg,CD,2,4,,,,,0,13,13,38,,,,,,,,,,,,,,4,1,0.716419281058,,,,,,2016_Feb_02_1558,P10,PLC_L_D2S1,NHGY,60.0196090261,
stim/posf.jpg,stim/negf.jpg,stim/4.jpg,stim/3.jpg,stim/latef.jpg,EF,1,2,,,,,0,14,14,42,,,,,,,,,,,,,,4,0,1.19957545582,,,,,,2016_Feb_02_1558,P10,PLC_L_D2S1,NHGY,60.0196090261,
stim/posf.jpg,stim/negf.jpg,stim/5.jpg,stim/6.jpg,stim/latef.jpg,CD,1,2,,,,,0,15,15,21,,,,,,,,,,,,,,2,1,0.716446384613,,,,,,2016_Feb_02_1558,P10,PLC_L_D2S1,NHGY,60.0196090261,
stim/posf.jpg,stim/negf.jpg,stim/4.jpg,stim/3.jpg,stim/latef.jpg,EF,1,2,,,,,0,16,16,45,,,,,,,,,,,,,,4,0,1.04961570515,,,,,,2016_Feb_02_1558,P10,PLC_L_D2S1,NHGY,60.0196090261,
stim/posf.jpg,stim/negf.jpg,stim/1.jpg,stim/2.jpg,stim/latef.jpg,AB,2,4,,,,,0,17,17,11,,,,,,,,,,,,,,4,1,1.11628939031,,,,,,2016_Feb_02_1558,P10,PLC_L_D2S1,NHGY,60.0196090261,
stim/posf.jpg,stim/negf.jpg,stim/5.jpg,stim/6.jpg,stim/latef.jpg,CD,1,2,,,,,0,18,18,24,,,,,,,,,,,,,,2,1,1.06636579875,,,,,,2016_Feb_02_1558,P10,PLC_L_D2S1,NHGY,60.0196090261,
stim/posf.jpg,stim/negf.jpg,stim/6.jpg,stim/5.jpg,stim/latef.jpg,CD,2,4,,,,,0,19,19,34,,,,,,,,,,,,,,4,1,1.08295138834,,,,,,2016_Feb_02_1558,P10,PLC_L_D2S1,NHGY,60.0196090261,
stim/posf.jpg,stim/negf.jpg,stim/4.jpg,stim/3.jpg,stim/latef.jpg,EF,1,2,,,,,0,20,20,41,,,,,,,,,,,,,,2,1,1.56620394433,,,,,,2016_Feb_02_1558,P10,PLC_L_D2S1,NHGY,60.0196090261,
stim/negf.jpg,stim/posf.jpg,stim/4.jpg,stim/3.jpg,stim/latef.jpg,EF,1,2,,,,,0,21,21,48,,,,,,,,,,,,,,2,1,0.733081742243,,,,,,2016_Feb_02_1558,P10,PLC_L_D2S1,NHGY,60.0196090261,
stim/posf.jpg,stim/negf.jpg,stim/5.jpg,stim/6.jpg,stim/latef.jpg,CD,1,2,,,,,0,22,22,25,,,,,,,,,,,,,,2,1,0.749738320765,,,,,,2016_Feb_02_1558,P10,PLC_L_D2S1,NHGY,60.0196090261,
stim/posf.jpg,stim/negf.jpg,stim/1.jpg,stim/2.jpg,stim/latef.jpg,AB,2,4,,,,,0,23,23,13,,,,,,,,,,,,,,4,1,1.01628167909,,,,,,2016_Feb_02_1558,P10,PLC_L_D2S1,NHGY,60.0196090261,
stim/posf.jpg,stim/negf.jpg,stim/6.jpg,stim/5.jpg,stim/latef.jpg,CD,2,4,,,,,0,24,24,32,,,,,,,,,,,,,,4,1,0.716395705294,,,,,,2016_Feb_02_1558,P10,PLC_L_D2S1,NHGY,60.0196090261,
stim/posf.jpg,stim/negf.jpg,stim/6.jpg,stim/5.jpg,stim/latef.jpg,CD,2,4,,,,,0,25,25,30,,,,,,,,,,,,,,4,1,0.966399639101,,,,,,2016_Feb_02_1558,P10,PLC_L_D2S1,NHGY,60.0196090261,
stim/negf.jpg,stim/posf.jpg,stim/3.jpg,stim/4.jpg,stim/latef.jpg,EF,2,4,,,,,0,26,26,56,,,,,,,,,,,,,,4,1,1.53279683912,,,,,,2016_Feb_02_1558,P10,PLC_L_D2S1,NHGY,60.0196090261,
stim/negf.jpg,stim/posf.jpg,stim/4.jpg,stim/3.jpg,stim/latef.jpg,EF,1,2,,,,,0,27,27,49,,,,,,,,,,,,,,2,1,0.849707298441,,,,,,2016_Feb_02_1558,P10,PLC_L_D2S1,NHGY,60.0196090261,
stim/posf.jpg,stim/negf.jpg,stim/2.jpg,stim/1.jpg,stim/latef.jpg,AB,1,2,,,,,0,28,28,2,,,,,,,,,,,,,,2,1,0.799734248614,,,,,,2016_Feb_02_1558,P10,PLC_L_D2S1,NHGY,60.0196090261,
stim/posf.jpg,stim/negf.jpg,stim/3.jpg,stim/4.jpg,stim/latef.jpg,EF,2,4,,,,,0,29,29,54,,,,,,,,,,,,,,4,1,0.583135919278,,,,,,2016_Feb_02_1558,P10,PLC_L_D2S1,NHGY,60.0196090261,
stim/negf.jpg,stim/posf.jpg,stim/5.jpg,stim/6.jpg,stim/latef.jpg,CD,1,2,,,,,0,30,30,28,,,,,,,,,,,,,,2,1,0.799768236329,,,,,,2016_Feb_02_1558,P10,PLC_L_D2S1,NHGY,60.0196090261,
stim/posf.jpg,stim/negf.jpg,stim/4.jpg,stim/3.jpg,stim/latef.jpg,EF,1,2,,,,,0,31,31,40,,,,,,,,,,,,,,2,1,0.916355236426,,,,,,2016_Feb_02_1558,P10,PLC_L_D2S1,NHGY,60.0196090261,
stim/posf.jpg,stim/negf.jpg,stim/2.jpg,stim/1.jpg,stim/latef.jpg,AB,1,2,,,,,0,32,32,6,,,,,,,,,,,,,,2,1,0.8663971519,,,,,,2016_Feb_02_1558,P10,PLC_L_D2S1,NHGY,60.0196090261,
stim/posf.jpg,stim/negf.jpg,stim/3.jpg,stim/4.jpg,stim/latef.jpg,EF,2,4,,,,,0,33,33,53,,,,,,,,,,,,,,2,0,1.06626462959,,,,,,2016_Feb_02_1558,P10,PLC_L_D2S1,NHGY,60.0196090261,
stim/posf.jpg,stim/negf.jpg,stim/3.jpg,stim/4.jpg,stim/latef.jpg,EF,2,4,,,,,0,34,34,52,,,,,,,,,,,,,,4,1,1.14963809295,,,,,,2016_Feb_02_1558,P10,PLC_L_D2S1,NHGY,60.0196090261,
stim/posf.jpg,stim/negf.jpg,stim/6.jpg,stim/5.jpg,stim/latef.jpg,CD,2,4,,,,,0,35,35,36,,,,,,,,,,,,,,4,1,0.816461918332,,,,,,2016_Feb_02_1558,P10,PLC_L_D2S1,NHGY,60.0196090261,
stim/posf.jpg,stim/negf.jpg,stim/1.jpg,stim/2.jpg,stim/latef.jpg,AB,2,4,,,,,0,36,36,10,,,,,,,,,,,,,,4,1,0.966257859716,,,,,,2016_Feb_02_1558,P10,PLC_L_D2S1,NHGY,60.0196090261,
stim/posf.jpg,stim/negf.jpg,stim/1.jpg,stim/2.jpg,stim/latef.jpg,AB,2,4,,,,,0,37,37,15,,,,,,,,,,,,,,4,1,1.08291133149,,,,,,2016_Feb_02_1558,P10,PLC_L_D2S1,NHGY,60.0196090261,
stim/posf.jpg,stim/negf.jpg,stim/5.jpg,stim/6.jpg,stim/latef.jpg,CD,1,2,,,,,0,38,38,23,,,,,,,,,,,,,,2,1,1.29960354584,,,,,,2016_Feb_02_1558,P10,PLC_L_D2S1,NHGY,60.0196090261,
stim/posf.jpg,stim/negf.jpg,stim/6.jpg,stim/5.jpg,stim/latef.jpg,CD,2,4,,,,,0,39,39,35,,,,,,,,,,,,,,4,1,0.916375380637,,,,,,2016_Feb_02_1558,P10,PLC_L_D2S1,NHGY,60.0196090261,
stim/negf.jpg,stim/posf.jpg,stim/1.jpg,stim/2.jpg,stim/latef.jpg,AB,2,4,,,,,0,40,40,18,,,,,,,,,,,,,,4,1,0.999679515191,,,,,,2016_Feb_02_1558,P10,PLC_L_D2S1,NHGY,60.0196090261,
stim/posf.jpg,stim/negf.jpg,stim/5.jpg,stim/6.jpg,stim/latef.jpg,CD,1,2,,,,,0,41,41,20,,,,,,,,,,,,,,2,1,0.616440856837,,,,,,2016_Feb_02_1558,P10,PLC_L_D2S1,NHGY,60.0196090261,
stim/posf.jpg,stim/negf.jpg,stim/2.jpg,stim/1.jpg,stim/latef.jpg,AB,1,2,,,,,0,42,42,1,,,,,,,,,,,,,,2,1,0.783056061233,,,,,,2016_Feb_02_1558,P10,PLC_L_D2S1,NHGY,60.0196090261,
stim/negf.jpg,stim/posf.jpg,stim/5.jpg,stim/6.jpg,stim/latef.jpg,CD,1,2,,,,,0,43,43,29,,,,,,,,,,,,,,2,1,1.23293465162,,,,,,2016_Feb_02_1558,P10,PLC_L_D2S1,NHGY,60.0196090261,
stim/posf.jpg,stim/negf.jpg,stim/5.jpg,stim/6.jpg,stim/latef.jpg,CD,1,2,,,,,0,44,44,26,,,,,,,,,,,,,,2,1,1.13290689243,,,,,,2016_Feb_02_1558,P10,PLC_L_D2S1,NHGY,60.0196090261,
stim/negf.jpg,stim/posf.jpg,stim/2.jpg,stim/1.jpg,stim/latef.jpg,AB,1,2,,,,,0,45,45,8,,,,,,,,,,,,,,2,1,0.882999854137,,,,,,2016_Feb_02_1558,P10,PLC_L_D2S1,NHGY,60.0196090261,
stim/posf.jpg,stim/negf.jpg,stim/1.jpg,stim/2.jpg,stim/latef.jpg,AB,2,4,,,,,0,46,46,14,,,,,,,,,,,,,,4,1,1.06631111946,,,,,,2016_Feb_02_1558,P10,PLC_L_D2S1,NHGY,60.0196090261,
stim/posf.jpg,stim/negf.jpg,stim/2.jpg,stim/1.jpg,stim/latef.jpg,AB,1,2,,,,,0,47,47,0,,,,,,,,,,,,,,2,1,0.699785225675,,,,,,2016_Feb_02_1558,P10,PLC_L_D2S1,NHGY,60.0196090261,
stim/posf.jpg,stim/negf.jpg,stim/1.jpg,stim/2.jpg,stim/latef.jpg,AB,2,4,,,,,0,48,48,17,,,,,,,,,,,,,,4,1,0.899775625747,,,,,,2016_Feb_02_1558,P10,PLC_L_D2S1,NHGY,60.0196090261,
stim/negf.jpg,stim/posf.jpg,stim/3.jpg,stim/4.jpg,stim/latef.jpg,EF,2,4,,,,,0,49,49,59,,,,,,,,,,,,,,2,0,1.03293216141,,,,,,2016_Feb_02_1558,P10,PLC_L_D2S1,NHGY,60.0196090261,
stim/posf.jpg,stim/negf.jpg,stim/3.jpg,stim/4.jpg,stim/latef.jpg,EF,2,4,,,,,0,50,50,55,,,,,,,,,,,,,,2,0,0.649787219645,,,,,,2016_Feb_02_1558,P10,PLC_L_D2S1,NHGY,60.0196090261,
stim/posf.jpg,stim/negf.jpg,stim/3.jpg,stim/4.jpg,stim/latef.jpg,EF,2,4,,,,,0,51,51,50,,,,,,,,,,,,,,2,0,0.516479614438,,,,,,2016_Feb_02_1558,P10,PLC_L_D2S1,NHGY,60.0196090261,
stim/posf.jpg,stim/negf.jpg,stim/4.jpg,stim/3.jpg,stim/latef.jpg,EF,1,2,,,,,0,52,52,43,,,,,,,,,,,,,,4,0,0.883068785948,,,,,,2016_Feb_02_1558,P10,PLC_L_D2S1,NHGY,60.0196090261,
stim/posf.jpg,stim/negf.jpg,stim/1.jpg,stim/2.jpg,stim/latef.jpg,AB,2,4,,,,,0,53,53,12,,,,,,,,,,,,,,4,1,0.999665109286,,,,,,2016_Feb_02_1558,P10,PLC_L_D2S1,NHGY,60.0196090261,
stim/posf.jpg,stim/negf.jpg,stim/5.jpg,stim/6.jpg,stim/latef.jpg,CD,1,2,,,,,0,54,54,22,,,,,,,,,,,,,,2,1,0.899699656393,,,,,,2016_Feb_02_1558,P10,PLC_L_D2S1,NHGY,60.0196090261,
stim/negf.jpg,stim/posf.jpg,stim/4.jpg,stim/3.jpg,stim/latef.jpg,EF,1,2,,,,,0,55,55,47,,,,,,,,,,,,,,4,0,0.683076034014,,,,,,2016_Feb_02_1558,P10,PLC_L_D2S1,NHGY,60.0196090261,
stim/posf.jpg,stim/negf.jpg,stim/2.jpg,stim/1.jpg,stim/latef.jpg,AB,1,2,,,,,0,56,56,3,,,,,,,,,,,,,,2,1,0.966337955355,,,,,,2016_Feb_02_1558,P10,PLC_L_D2S1,NHGY,60.0196090261,
stim/negf.jpg,stim/posf.jpg,stim/6.jpg,stim/5.jpg,stim/latef.jpg,CD,2,4,,,,,0,57,57,39,,,,,,,,,,,,,,4,1,1.16626050932,,,,,,2016_Feb_02_1558,P10,PLC_L_D2S1,NHGY,60.0196090261,
stim/posf.jpg,stim/negf.jpg,stim/6.jpg,stim/5.jpg,stim/latef.jpg,CD,2,4,,,,,0,58,58,33,,,,,,,,,,,,,,4,1,1.04964667935,,,,,,2016_Feb_02_1558,P10,PLC_L_D2S1,NHGY,60.0196090261,
stim/negf.jpg,stim/posf.jpg,stim/2.jpg,stim/1.jpg,stim/latef.jpg,AB,1,2,,,,,0,59,59,9,,,,,,,,,,,,,,2,1,1.16627748964,,,,,,2016_Feb_02_1558,P10,PLC_L_D2S1,NHGY,60.0196090261,
,,,,,,,,,,,,,,,,,,,,,,,,,,,,,,,,0.9984375,0.181640625,0,0,1,2016_Feb_02_1558,P10,PLC_L_D2S1,NHGY,60.0196090261,
stim/posf.jpg,stim/negf.jpg,stim/2.jpg,stim/1.jpg,stim/latef.jpg,AB,1,2,,,,,,,,,0,0,0,1,,,,,,,,,,2,1,0.899780251275,,,,,,2016_Feb_02_1558,P10,PLC_L_D2S1,NHGY,60.0196090261,
stim/posf.jpg,stim/negf.jpg,stim/4.jpg,stim/3.jpg,stim/latef.jpg,EF,1,2,,,,,,,,,0,1,1,44,,,,,,,,,,4,0,1.06631097511,,,,,,2016_Feb_02_1558,P10,PLC_L_D2S1,NHGY,60.0196090261,
stim/negf.jpg,stim/posf.jpg,stim/3.jpg,stim/4.jpg,stim/latef.jpg,EF,2,4,,,,,,,,,0,2,2,59,,,,,,,,,,2,0,1.4995153871,,,,,,2016_Feb_02_1558,P10,PLC_L_D2S1,NHGY,60.0196090261,
stim/negf.jpg,stim/posf.jpg,stim/5.jpg,stim/6.jpg,stim/latef.jpg,CD,1,2,,,,,,,,,0,3,3,29,,,,,,,,,,2,1,1.19953058097,,,,,,2016_Feb_02_1558,P10,PLC_L_D2S1,NHGY,60.0196090261,
stim/posf.jpg,stim/negf.jpg,stim/1.jpg,stim/2.jpg,stim/latef.jpg,AB,2,4,,,,,,,,,0,4,4,14,,,,,,,,,,4,1,1.13294273577,,,,,,2016_Feb_02_1558,P10,PLC_L_D2S1,NHGY,60.0196090261,
stim/negf.jpg,stim/posf.jpg,stim/4.jpg,stim/3.jpg,stim/latef.jpg,EF,1,2,,,,,,,,,0,5,5,49,,,,,,,,,,4,0,1.29960319396,,,,,,2016_Feb_02_1558,P10,PLC_L_D2S1,NHGY,60.0196090261,
stim/negf.jpg,stim/posf.jpg,stim/2.jpg,stim/1.jpg,stim/latef.jpg,AB,1,2,,,,,,,,,0,6,6,8,,,,,,,,,,2,1,1.14960243607,,,,,,2016_Feb_02_1558,P10,PLC_L_D2S1,NHGY,60.0196090261,
stim/negf.jpg,stim/posf.jpg,stim/6.jpg,stim/5.jpg,stim/latef.jpg,CD,2,4,,,,,,,,,0,7,7,38,,,,,,,,,,4,1,0.799710970594,,,,,,2016_Feb_02_1558,P10,PLC_L_D2S1,NHGY,60.0196090261,
stim/posf.jpg,stim/negf.jpg,stim/5.jpg,stim/6.jpg,stim/latef.jpg,CD,1,2,,,,,,,,,0,8,8,22,,,,,,,,,,2,1,0.816399831579,,,,,,2016_Feb_02_1558,P10,PLC_L_D2S1,NHGY,60.0196090261,
stim/negf.jpg,stim/posf.jpg,stim/1.jpg,stim/2.jpg,stim/latef.jpg,AB,2,4,,,,,,,,,0,9,9,19,,,,,,,,,,4,1,0.899758958203,,,,,,2016_Feb_02_1558,P10,PLC_L_D2S1,NHGY,60.0196090261,
stim/posf.jpg,stim/negf.jpg,stim/6.jpg,stim/5.jpg,stim/latef.jpg,CD,2,4,,,,,,,,,0,10,10,32,,,,,,,,,,4,1,0.932979703912,,,,,,2016_Feb_02_1558,P10,PLC_L_D2S1,NHGY,60.0196090261,
stim/negf.jpg,stim/posf.jpg,stim/4.jpg,stim/3.jpg,stim/latef.jpg,EF,1,2,,,,,,,,,0,11,11,48,,,,,,,,,,4,0,0.966277862573,,,,,,2016_Feb_02_1558,P10,PLC_L_D2S1,NHGY,60.0196090261,
stim/posf.jpg,stim/negf.jpg,stim/3.jpg,stim/4.jpg,stim/latef.jpg,EF,2,4,,,,,,,,,0,12,12,51,,,,,,,,,,2,0,0.849687806858,,,,,,2016_Feb_02_1558,P10,PLC_L_D2S1,NHGY,60.0196090261,
stim/negf.jpg,stim/posf.jpg,stim/1.jpg,stim/2.jpg,stim/latef.jpg,AB,2,4,,,,,,,,,0,13,13,18,,,,,,,,,,4,1,0.849747607912,,,,,,2016_Feb_02_1558,P10,PLC_L_D2S1,NHGY,60.0196090261,
stim/posf.jpg,stim/negf.jpg,stim/3.jpg,stim/4.jpg,stim/latef.jpg,EF,2,4,,,,,,,,,0,14,14,52,,,,,,,,,,2,0,1.31623349298,,,,,,2016_Feb_02_1558,P10,PLC_L_D2S1,NHGY,60.0196090261,
stim/negf.jpg,stim/posf.jpg,stim/3.jpg,stim/4.jpg,stim/latef.jpg,EF,2,4,,,,,,,,,0,15,15,56,,,,,,,,,,2,0,1.59951171495,,,,,,2016_Feb_02_1558,P10,PLC_L_D2S1,NHGY,60.0196090261,
stim/posf.jpg,stim/negf.jpg,stim/1.jpg,stim/2.jpg,stim/latef.jpg,AB,2,4,,,,,,,,,0,16,16,12,,,,,,,,,,4,1,0.783112093894,,,,,,2016_Feb_02_1558,P10,PLC_L_D2S1,NHGY,60.0196090261,
stim/negf.jpg,stim/posf.jpg,stim/4.jpg,stim/3.jpg,stim/latef.jpg,EF,1,2,,,,,,,,,0,17,17,46,,,,,,,,,,4,0,1.08297397162,,,,,,2016_Feb_02_1558,P10,PLC_L_D2S1,NHGY,60.0196090261,
stim/posf.jpg,stim/negf.jpg,stim/4.jpg,stim/3.jpg,stim/latef.jpg,EF,1,2,,,,,,,,,0,18,18,43,,,,,,,,,,4,0,1.33292368328,,,,,,2016_Feb_02_1558,P10,PLC_L_D2S1,NHGY,60.0196090261,
stim/negf.jpg,stim/posf.jpg,stim/3.jpg,stim/4.jpg,stim/latef.jpg,EF,2,4,,,,,,,,,0,19,19,57,,,,,,,,,,2,0,1.04965628228,,,,,,2016_Feb_02_1558,P10,PLC_L_D2S1,NHGY,60.0196090261,
stim/posf.jpg,stim/negf.jpg,stim/4.jpg,stim/3.jpg,stim/latef.jpg,EF,1,2,,,,,,,,,0,20,20,42,,,,,,,,,,4,0,0.683107068367,,,,,,2016_Feb_02_1558,P10,PLC_L_D2S1,NHGY,60.0196090261,
stim/posf.jpg,stim/negf.jpg,stim/5.jpg,stim/6.jpg,stim/latef.jpg,CD,1,2,,,,,,,,,0,21,21,26,,,,,,,,,,2,1,0.883028392267,,,,,,2016_Feb_02_1558,P10,PLC_L_D2S1,NHGY,60.0196090261,
stim/posf.jpg,stim/negf.jpg,stim/2.jpg,stim/1.jpg,stim/latef.jpg,AB,1,2,,,,,,,,,0,22,22,4,,,,,,,,,,2,1,0.566480149773,,,,,,2016_Feb_02_1558,P10,PLC_L_D2S1,NHGY,60.0196090261,
stim/posf.jpg,stim/negf.jpg,stim/2.jpg,stim/1.jpg,stim/latef.jpg,AB,1,2,,,,,,,,,0,23,23,0,,,,,,,,,,2,1,0.716439401207,,,,,,2016_Feb_02_1558,P10,PLC_L_D2S1,NHGY,60.0196090261,
stim/negf.jpg,stim/posf.jpg,stim/5.jpg,stim/6.jpg,stim/latef.jpg,CD,1,2,,,,,,,,,0,24,24,28,,,,,,,,,,4,0,0.833040467365,,,,,,2016_Feb_02_1558,P10,PLC_L_D2S1,NHGY,60.0196090261,
stim/posf.jpg,stim/negf.jpg,stim/1.jpg,stim/2.jpg,stim/latef.jpg,AB,2,4,,,,,,,,,0,25,25,13,,,,,,,,,,4,1,0.899703066894,,,,,,2016_Feb_02_1558,P10,PLC_L_D2S1,NHGY,60.0196090261,
stim/negf.jpg,stim/posf.jpg,stim/6.jpg,stim/5.jpg,stim/latef.jpg,CD,2,4,,,,,,,,,0,26,26,37,,,,,,,,,,4,1,0.966339167373,,,,,,2016_Feb_02_1558,P10,PLC_L_D2S1,NHGY,60.0196090261,
stim/posf.jpg,stim/negf.jpg,stim/3.jpg,stim/4.jpg,stim/latef.jpg,EF,2,4,,,,,,,,,0,27,27,50,,,,,,,,,,2,0,1.08295943038,,,,,,2016_Feb_02_1558,P10,PLC_L_D2S1,NHGY,60.0196090261,
stim/posf.jpg,stim/negf.jpg,stim/1.jpg,stim/2.jpg,stim/latef.jpg,AB,2,4,,,,,,,,,0,28,28,15,,,,,,,,,,4,1,1.1162882655,,,,,,2016_Feb_02_1558,P10,PLC_L_D2S1,NHGY,60.0196090261,
stim/posf.jpg,stim/negf.jpg,stim/3.jpg,stim/4.jpg,stim/latef.jpg,EF,2,4,,,,,,,,,0,29,29,53,,,,,,,,,,2,0,0.766417831444,,,,,,2016_Feb_02_1558,P10,PLC_L_D2S1,NHGY,60.0196090261,
stim/posf.jpg,stim/negf.jpg,stim/3.jpg,stim/4.jpg,stim/latef.jpg,EF,2,4,,,,,,,,,0,30,30,55,,,,,,,,,,2,0,0.899743794407,,,,,,2016_Feb_02_1558,P10,PLC_L_D2S1,NHGY,60.0196090261,
stim/posf.jpg,stim/negf.jpg,stim/5.jpg,stim/6.jpg,stim/latef.jpg,CD,1,2,,,,,,,,,0,31,31,21,,,,,,,,,,2,1,0.649738041067,,,,,,2016_Feb_02_1558,P10,PLC_L_D2S1,NHGY,60.0196090261,
stim/posf.jpg,stim/negf.jpg,stim/1.jpg,stim/2.jpg,stim/latef.jpg,AB,2,4,,,,,,,,,0,32,32,17,,,,,,,,,,4,1,1.01627589567,,,,,,2016_Feb_02_1558,P10,PLC_L_D2S1,NHGY,60.0196090261,
stim/posf.jpg,stim/negf.jpg,stim/4.jpg,stim/3.jpg,stim/latef.jpg,EF,1,2,,,,,,,,,0,33,33,41,,,,,,,,,,4,0,1.43287022203,,,,,,2016_Feb_02_1558,P10,PLC_L_D2S1,NHGY,60.0196090261,
stim/posf.jpg,stim/negf.jpg,stim/2.jpg,stim/1.jpg,stim/latef.jpg,AB,1,2,,,,,,,,,0,34,34,2,,,,,,,,,,2,1,1.06631940512,,,,,,2016_Feb_02_1558,P10,PLC_L_D2S1,NHGY,60.0196090261,
stim/posf.jpg,stim/negf.jpg,stim/2.jpg,stim/1.jpg,stim/latef.jpg,AB,1,2,,,,,,,,,0,35,35,5,,,,,,,,,,2,1,0.766473271629,,,,,,2016_Feb_02_1558,P10,PLC_L_D2S1,NHGY,60.0196090261,
stim/posf.jpg,stim/negf.jpg,stim/3.jpg,stim/4.jpg,stim/latef.jpg,EF,2,4,,,,,,,,,0,36,36,54,,,,,,,,,,2,0,1.28289924437,,,,,,2016_Feb_02_1558,P10,PLC_L_D2S1,NHGY,60.0196090261,
stim/negf.jpg,stim/posf.jpg,stim/3.jpg,stim/4.jpg,stim/latef.jpg,EF,2,4,,,,,,,,,0,37,37,58,,,,,,,,,,2,0,0.899697349643,,,,,,2016_Feb_02_1558,P10,PLC_L_D2S1,NHGY,60.0196090261,
stim/posf.jpg,stim/negf.jpg,stim/4.jpg,stim/3.jpg,stim/latef.jpg,EF,1,2,,,,,,,,,0,38,38,45,,,,,,,,,,4,0,0.932995159435,,,,,,2016_Feb_02_1558,P10,PLC_L_D2S1,NHGY,60.0196090261,
stim/posf.jpg,stim/negf.jpg,stim/6.jpg,stim/5.jpg,stim/latef.jpg,CD,2,4,,,,,,,,,0,39,39,30,,,,,,,,,,4,1,0.949690621876,,,,,,2016_Feb_02_1558,P10,PLC_L_D2S1,NHGY,60.0196090261,
stim/posf.jpg,stim/negf.jpg,stim/2.jpg,stim/1.jpg,stim/latef.jpg,AB,1,2,,,,,,,,,0,40,40,3,,,,,,,,,,2,1,0.716437500469,,,,,,2016_Feb_02_1558,P10,PLC_L_D2S1,NHGY,60.0196090261,
stim/posf.jpg,stim/negf.jpg,stim/6.jpg,stim/5.jpg,stim/latef.jpg,CD,2,4,,,,,,,,,0,41,41,31,,,,,,,,,,2,0,0.93299143014,,,,,,2016_Feb_02_1558,P10,PLC_L_D2S1,NHGY,60.0196090261,
stim/posf.jpg,stim/negf.jpg,stim/1.jpg,stim/2.jpg,stim/latef.jpg,AB,2,4,,,,,,,,,0,42,42,11,,,,,,,,,,4,1,0.916357621372,,,,,,2016_Feb_02_1558,P10,PLC_L_D2S1,NHGY,60.0196090261,
stim/posf.jpg,stim/negf.jpg,stim/6.jpg,stim/5.jpg,stim/latef.jpg,CD,2,4,,,,,,,,,0,43,43,36,,,,,,,,,,4,1,0.866369125044,,,,,,2016_Feb_02_1558,P10,PLC_L_D2S1,NHGY,60.0196090261,
stim/negf.jpg,stim/posf.jpg,stim/2.jpg,stim/1.jpg,stim/latef.jpg,AB,1,2,,,,,,,,,0,44,44,9,,,,,,,,,,2,1,0.849710317967,,,,,,2016_Feb_02_1558,P10,PLC_L_D2S1,NHGY,60.0196090261,
stim/negf.jpg,stim/posf.jpg,stim/6.jpg,stim/5.jpg,stim/latef.jpg,CD,2,4,,,,,,,,,0,45,45,39,,,,,,,,,,4,1,0.599836091458,,,,,,2016_Feb_02_1558,P10,PLC_L_D2S1,NHGY,60.0196090261,
stim/posf.jpg,stim/negf.jpg,stim/5.jpg,stim/6.jpg,stim/latef.jpg,CD,1,2,,,,,,,,,0,46,46,20,,,,,,,,,,2,1,0.81638864971,,,,,,2016_Feb_02_1558,P10,PLC_L_D2S1,NHGY,60.0196090261,
stim/negf.jpg,stim/posf.jpg,stim/4.jpg,stim/3.jpg,stim/latef.jpg,EF,1,2,,,,,,,,,0,47,47,47,,,,,,,,,,2,1,1.44952598853,,,,,,2016_Feb_02_1558,P10,PLC_L_D2S1,NHGY,60.0196090261,
stim/posf.jpg,stim/negf.jpg,stim/6.jpg,stim/5.jpg,stim/latef.jpg,CD,2,4,,,,,,,,,0,48,48,35,,,,,,,,,,4,1,0.799678769332,,,,,,2016_Feb_02_1558,P10,PLC_L_D2S1,NHGY,60.0196090261,
stim/posf.jpg,stim/negf.jpg,stim/6.jpg,stim/5.jpg,stim/latef.jpg,CD,2,4,,,,,,,,,0,49,49,34,,,,,,,,,,4,1,1.13295271464,,,,,,2016_Feb_02_1558,P10,PLC_L_D2S1,NHGY,60.0196090261,
stim/posf.jpg,stim/negf.jpg,stim/2.jpg,stim/1.jpg,stim/latef.jpg,AB,1,2,,,,,,,,,0,50,50,6,,,,,,,,,,2,1,0.649725767476,,,,,,2016_Feb_02_1558,P10,PLC_L_D2S1,NHGY,60.0196090261,
stim/posf.jpg,stim/negf.jpg,stim/2.jpg,stim/1.jpg,stim/latef.jpg,AB,1,2,,,,,,,,,0,51,51,7,,,,,,,,,,2,1,0.583131645626,,,,,,2016_Feb_02_1558,P10,PLC_L_D2S1,NHGY,60.0196090261,
stim/posf.jpg,stim/negf.jpg,stim/6.jpg,stim/5.jpg,stim/latef.jpg,CD,2,4,,,,,,,,,0,52,52,33,,,,,,,,,,4,1,0.616401124804,,,,,,2016_Feb_02_1558,P10,PLC_L_D2S1,NHGY,60.0196090261,
stim/posf.jpg,stim/negf.jpg,stim/1.jpg,stim/2.jpg,stim/latef.jpg,AB,2,4,,,,,,,,,0,53,53,16,,,,,,,,,,2,0,0.716420279547,,,,,,2016_Feb_02_1558,P10,PLC_L_D2S1,NHGY,60.0196090261,
stim/posf.jpg,stim/negf.jpg,stim/5.jpg,stim/6.jpg,stim/latef.jpg,CD,1,2,,,,,,,,,0,54,54,23,,,,,,,,,,2,1,0.666428974218,,,,,,2016_Feb_02_1558,P10,PLC_L_D2S1,NHGY,60.0196090261,
stim/posf.jpg,stim/negf.jpg,stim/5.jpg,stim/6.jpg,stim/latef.jpg,CD,1,2,,,,,,,,,0,55,55,24,,,,,,,,,,2,1,0.849684122677,,,,,,2016_Feb_02_1558,P10,PLC_L_D2S1,NHGY,60.0196090261,
stim/negf.jpg,stim/posf.jpg,stim/5.jpg,stim/6.jpg,stim/latef.jpg,CD,1,2,,,,,,,,,0,56,56,27,,,,,,,,,,2,1,0.616443873354,,,,,,2016_Feb_02_1558,P10,PLC_L_D2S1,NHGY,60.0196090261,
stim/posf.jpg,stim/negf.jpg,stim/4.jpg,stim/3.jpg,stim/latef.jpg,EF,1,2,,,,,,,,,0,57,57,40,,,,,,,,,,2,1,1.16629601281,,,,,,2016_Feb_02_1558,P10,PLC_L_D2S1,NHGY,60.0196090261,
stim/posf.jpg,stim/negf.jpg,stim/5.jpg,stim/6.jpg,stim/latef.jpg,CD,1,2,,,,,,,,,0,58,58,25,,,,,,,,,,2,1,1.03302299983,,,,,,2016_Feb_02_1558,P10,PLC_L_D2S1,NHGY,60.0196090261,
stim/posf.jpg,stim/negf.jpg,stim/1.jpg,stim/2.jpg,stim/latef.jpg,AB,2,4,,,,,,,,,0,59,59,10,,,,,,,,,,4,1,0.933020672024,,,,,,2016_Feb_02_1558,P10,PLC_L_D2S1,NHGY,60.0196090261,
,,,,,,,,,,,,,,,,,,,,,,,,,,,,,,,,0.9984375,0.181640625,0,0,1,2016_Feb_02_1558,P10,PLC_L_D2S1,NHGY,60.0196090261,
stim/posf.jpg,stim/negf.jpg,stim/2.jpg,stim/1.jpg,stim/latef.jpg,AB,1,2,,,,,,,,,,,,,0,0,0,6,,,,,,2,1,0.766408541289,,,,,,2016_Feb_02_1558,P10,PLC_L_D2S1,NHGY,60.0196090261,
stim/posf.jpg,stim/negf.jpg,stim/1.jpg,stim/2.jpg,stim/latef.jpg,AB,2,4,,,,,,,,,,,,,0,1,1,10,,,,,,4,1,1.03308316178,,,,,,2016_Feb_02_1558,P10,PLC_L_D2S1,NHGY,60.0196090261,
stim/negf.jpg,stim/posf.jpg,stim/6.jpg,stim/5.jpg,stim/latef.jpg,CD,2,4,,,,,,,,,,,,,0,2,2,39,,,,,,4,1,1.26628036481,,,,,,2016_Feb_02_1558,P10,PLC_L_D2S1,NHGY,60.0196090261,
stim/negf.jpg,stim/posf.jpg,stim/2.jpg,stim/1.jpg,stim/latef.jpg,AB,1,2,,,,,,,,,,,,,0,3,3,8,,,,,,2,1,0.683106484912,,,,,,2016_Feb_02_1558,P10,PLC_L_D2S1,NHGY,60.0196090261,
stim/posf.jpg,stim/negf.jpg,stim/5.jpg,stim/6.jpg,stim/latef.jpg,CD,1,2,,,,,,,,,,,,,0,4,4,26,,,,,,2,1,0.816375233269,,,,,,2016_Feb_02_1558,P10,PLC_L_D2S1,NHGY,60.0196090261,
stim/posf.jpg,stim/negf.jpg,stim/1.jpg,stim/2.jpg,stim/latef.jpg,AB,2,4,,,,,,,,,,,,,0,5,5,14,,,,,,4,1,0.866371576154,,,,,,2016_Feb_02_1558,P10,PLC_L_D2S1,NHGY,60.0196090261,
stim/posf.jpg,stim/negf.jpg,stim/1.jpg,stim/2.jpg,stim/latef.jpg,AB,2,4,,,,,,,,,,,,,0,6,6,11,,,,,,4,1,0.833012166826,,,,,,2016_Feb_02_1558,P10,PLC_L_D2S1,NHGY,60.0196090261,
stim/posf.jpg,stim/negf.jpg,stim/3.jpg,stim/4.jpg,stim/latef.jpg,EF,2,4,,,,,,,,,,,,,0,7,7,52,,,,,,4,1,1.39953282156,,,,,,2016_Feb_02_1558,P10,PLC_L_D2S1,NHGY,60.0196090261,
stim/negf.jpg,stim/posf.jpg,stim/3.jpg,stim/4.jpg,stim/latef.jpg,EF,2,4,,,,,,,,,,,,,0,8,8,59,,,,,,4,1,0.74976487395,,,,,,2016_Feb_02_1558,P10,PLC_L_D2S1,NHGY,60.0196090261,
stim/posf.jpg,stim/negf.jpg,stim/2.jpg,stim/1.jpg,stim/latef.jpg,AB,1,2,,,,,,,,,,,,,0,9,9,4,,,,,,2,1,0.733096036871,,,,,,2016_Feb_02_1558,P10,PLC_L_D2S1,NHGY,60.0196090261,
stim/negf.jpg,stim/posf.jpg,stim/6.jpg,stim/5.jpg,stim/latef.jpg,CD,2,4,,,,,,,,,,,,,0,10,10,37,,,,,,4,1,0.783070334808,,,,,,2016_Feb_02_1558,P10,PLC_L_D2S1,NHGY,60.0196090261,
stim/posf.jpg,stim/negf.jpg,stim/3.jpg,stim/4.jpg,stim/latef.jpg,EF,2,4,,,,,,,,,,,,,0,11,11,51,,,,,,4,1,0.499840822249,,,,,,2016_Feb_02_1558,P10,PLC_L_D2S1,NHGY,60.0196090261,
stim/posf.jpg,stim/negf.jpg,stim/6.jpg,stim/5.jpg,stim/latef.jpg,CD,2,4,,,,,,,,,,,,,0,12,12,30,,,,,,4,1,0.799726516343,,,,,,2016_Feb_02_1558,P10,PLC_L_D2S1,NHGY,60.0196090261,
stim/negf.jpg,stim/posf.jpg,stim/4.jpg,stim/3.jpg,stim/latef.jpg,EF,1,2,,,,,,,,,,,,,0,13,13,49,,,,,,2,1,1.299588367,,,,,,2016_Feb_02_1558,P10,PLC_L_D2S1,NHGY,60.0196090261,
stim/posf.jpg,stim/negf.jpg,stim/1.jpg,stim/2.jpg,stim/latef.jpg,AB,2,4,,,,,,,,,,,,,0,14,14,16,,,,,,4,1,0.9162913542,,,,,,2016_Feb_02_1558,P10,PLC_L_D2S1,NHGY,60.0196090261,
stim/posf.jpg,stim/negf.jpg,stim/3.jpg,stim/4.jpg,stim/latef.jpg,EF,2,4,,,,,,,,,,,,,0,15,15,53,,,,,,2,0,0.966355434921,,,,,,2016_Feb_02_1558,P10,PLC_L_D2S1,NHGY,60.0196090261,
stim/posf.jpg,stim/negf.jpg,stim/1.jpg,stim/2.jpg,stim/latef.jpg,AB,2,4,,,,,,,,,,,,,0,16,16,13,,,,,,4,1,0.833049760529,,,,,,2016_Feb_02_1558,P10,PLC_L_D2S1,NHGY,60.0196090261,
stim/posf.jpg,stim/negf.jpg,stim/4.jpg,stim/3.jpg,stim/latef.jpg,EF,1,2,,,,,,,,,,,,,0,17,17,45,,,,,,2,1,0.966308917978,,,,,,2016_Feb_02_1558,P10,PLC_L_D2S1,NHGY,60.0196090261,
stim/posf.jpg,stim/negf.jpg,stim/4.jpg,stim/3.jpg,stim/latef.jpg,EF,1,2,,,,,,,,,,,,,0,18,18,42,,,,,,2,1,0.949621629912,,,,,,2016_Feb_02_1558,P10,PLC_L_D2S1,NHGY,60.0196090261,
stim/negf.jpg,stim/posf.jpg,stim/4.jpg,stim/3.jpg,stim/latef.jpg,EF,1,2,,,,,,,,,,,,,0,19,19,46,,,,,,2,1,0.583122187052,,,,,,2016_Feb_02_1558,P10,PLC_L_D2S1,NHGY,60.0196090261,
stim/posf.jpg,stim/negf.jpg,stim/1.jpg,stim/2.jpg,stim/latef.jpg,AB,2,4,,,,,,,,,,,,,0,20,20,15,,,,,,4,1,0.866401317284,,,,,,2016_Feb_02_1558,P10,PLC_L_D2S1,NHGY,60.0196090261,
stim/posf.jpg,stim/negf.jpg,stim/4.jpg,stim/3.jpg,stim/latef.jpg,EF,1,2,,,,,,,,,,,,,0,21,21,40,,,,,,2,1,0.799718793092,,,,,,2016_Feb_02_1558,P10,PLC_L_D2S1,NHGY,60.0196090261,
stim/negf.jpg,stim/posf.jpg,stim/4.jpg,stim/3.jpg,stim/latef.jpg,EF,1,2,,,,,,,,,,,,,0,22,22,48,,,,,,2,1,0.733083321176,,,,,,2016_Feb_02_1558,P10,PLC_L_D2S1,NHGY,60.0196090261,
stim/posf.jpg,stim/negf.jpg,stim/5.jpg,stim/6.jpg,stim/latef.jpg,CD,1,2,,,,,,,,,,,,,0,23,23,20,,,,,,2,1,1.24959284817,,,,,,2016_Feb_02_1558,P10,PLC_L_D2S1,NHGY,60.0196090261,
stim/negf.jpg,stim/posf.jpg,stim/3.jpg,stim/4.jpg,stim/latef.jpg,EF,2,4,,,,,,,,,,,,,0,24,24,57,,,,,,4,1,0.749779096399,,,,,,2016_Feb_02_1558,P10,PLC_L_D2S1,NHGY,60.0196090261,
stim/posf.jpg,stim/negf.jpg,stim/6.jpg,stim/5.jpg,stim/latef.jpg,CD,2,4,,,,,,,,,,,,,0,25,25,31,,,,,,4,1,0.83303559522,,,,,,2016_Feb_02_1558,P10,PLC_L_D2S1,NHGY,60.0196090261,
stim/posf.jpg,stim/negf.jpg,stim/2.jpg,stim/1.jpg,stim/latef.jpg,AB,1,2,,,,,,,,,,,,,0,26,26,5,,,,,,2,1,0.883042777121,,,,,,2016_Feb_02_1558,P10,PLC_L_D2S1,NHGY,60.0196090261,
stim/negf.jpg,stim/posf.jpg,stim/5.jpg,stim/6.jpg,stim/latef.jpg,CD,1,2,,,,,,,,,,,,,0,27,27,28,,,,,,2,1,0.866382791108,,,,,,2016_Feb_02_1558,P10,PLC_L_D2S1,NHGY,60.0196090261,
stim/posf.jpg,stim/negf.jpg,stim/3.jpg,stim/4.jpg,stim/latef.jpg,EF,2,4,,,,,,,,,,,,,0,28,28,50,,,,,,4,1,1.33290554507,,,,,,2016_Feb_02_1558,P10,PLC_L_D2S1,NHGY,60.0196090261,
stim/negf.jpg,stim/posf.jpg,stim/3.jpg,stim/4.jpg,stim/latef.jpg,EF,2,4,,,,,,,,,,,,,0,29,29,56,,,,,,4,1,0.749767502501,,,,,,2016_Feb_02_1558,P10,PLC_L_D2S1,NHGY,60.0196090261,
stim/posf.jpg,stim/negf.jpg,stim/5.jpg,stim/6.jpg,stim/latef.jpg,CD,1,2,,,,,,,,,,,,,0,30,30,21,,,,,,2,1,0.666447605658,,,,,,2016_Feb_02_1558,P10,PLC_L_D2S1,NHGY,60.0196090261,
stim/posf.jpg,stim/negf.jpg,stim/4.jpg,stim/3.jpg,stim/latef.jpg,EF,1,2,,,,,,,,,,,,,0,31,31,41,,,,,,2,1,0.716441942543,,,,,,2016_Feb_02_1558,P10,PLC_L_D2S1,NHGY,60.0196090261,
stim/negf.jpg,stim/posf.jpg,stim/6.jpg,stim/5.jpg,stim/latef.jpg,CD,2,4,,,,,,,,,,,,,0,32,32,38,,,,,,4,1,0.766414041998,,,,,,2016_Feb_02_1558,P10,PLC_L_D2S1,NHGY,60.0196090261,
stim/negf.jpg,stim/posf.jpg,stim/1.jpg,stim/2.jpg,stim/latef.jpg,AB,2,4,,,,,,,,,,,,,0,33,33,18,,,,,,4,1,0.899708029263,,,,,,2016_Feb_02_1558,P10,PLC_L_D2S1,NHGY,60.0196090261,
stim/posf.jpg,stim/negf.jpg,stim/5.jpg,stim/6.jpg,stim/latef.jpg,CD,1,2,,,,,,,,,,,,,0,34,34,25,,,,,,2,1,0.949689003841,,,,,,2016_Feb_02_1558,P10,PLC_L_D2S1,NHGY,60.0196090261,
stim/posf.jpg,stim/negf.jpg,stim/5.jpg,stim/6.jpg,stim/latef.jpg,CD,1,2,,,,,,,,,,,,,0,35,35,22,,,,,,2,1,0.649772356599,,,,,,2016_Feb_02_1558,P10,PLC_L_D2S1,NHGY,60.0196090261,
stim/negf.jpg,stim/posf.jpg,stim/4.jpg,stim/3.jpg,stim/latef.jpg,EF,1,2,,,,,,,,,,,,,0,36,36,47,,,,,,2,1,0.833085203871,,,,,,2016_Feb_02_1558,P10,PLC_L_D2S1,NHGY,60.0196090261,
stim/posf.jpg,stim/negf.jpg,stim/1.jpg,stim/2.jpg,stim/latef.jpg,AB,2,4,,,,,,,,,,,,,0,37,37,12,,,,,,4,1,0.833125173494,,,,,,2016_Feb_02_1558,P10,PLC_L_D2S1,NHGY,60.0196090261,
stim/posf.jpg,stim/negf.jpg,stim/2.jpg,stim/1.jpg,stim/latef.jpg,AB,1,2,,,,,,,,,,,,,0,38,38,0,,,,,,2,1,0.666418778806,,,,,,2016_Feb_02_1558,P10,PLC_L_D2S1,NHGY,60.0196090261,
stim/posf.jpg,stim/negf.jpg,stim/6.jpg,stim/5.jpg,stim/latef.jpg,CD,2,4,,,,,,,,,,,,,0,39,39,34,,,,,,4,1,0.749738140314,,,,,,2016_Feb_02_1558,P10,PLC_L_D2S1,NHGY,60.0196090261,
stim/negf.jpg,stim/posf.jpg,stim/5.jpg,stim/6.jpg,stim/latef.jpg,CD,1,2,,,,,,,,,,,,,0,40,40,29,,,,,,2,1,0.76640848114,,,,,,2016_Feb_02_1558,P10,PLC_L_D2S1,NHGY,60.0196090261,
stim/posf.jpg,stim/negf.jpg,stim/1.jpg,stim/2.jpg,stim/latef.jpg,AB,2,4,,,,,,,,,,,,,0,41,41,17,,,,,,4,1,0.799706922504,,,,,,2016_Feb_02_1558,P10,PLC_L_D2S1,NHGY,60.0196090261,
stim/posf.jpg,stim/negf.jpg,stim/6.jpg,stim/5.jpg,stim/latef.jpg,CD,2,4,,,,,,,,,,,,,0,42,42,32,,,,,,4,1,0.883050449245,,,,,,2016_Feb_02_1558,P10,PLC_L_D2S1,NHGY,60.0196090261,
stim/posf.jpg,stim/negf.jpg,stim/2.jpg,stim/1.jpg,stim/latef.jpg,AB,1,2,,,,,,,,,,,,,0,43,43,7,,,,,,2,1,0.816387630168,,,,,,2016_Feb_02_1558,P10,PLC_L_D2S1,NHGY,60.0196090261,
stim/posf.jpg,stim/negf.jpg,stim/6.jpg,stim/5.jpg,stim/latef.jpg,CD,2,4,,,,,,,,,,,,,0,44,44,33,,,,,,4,1,0.766415166805,,,,,,2016_Feb_02_1558,P10,PLC_L_D2S1,NHGY,60.0196090261,
stim/negf.jpg,stim/posf.jpg,stim/5.jpg,stim/6.jpg,stim/latef.jpg,CD,1,2,,,,,,,,,,,,,0,45,45,27,,,,,,2,1,0.766429190759,,,,,,2016_Feb_02_1558,P10,PLC_L_D2S1,NHGY,60.0196090261,
stim/posf.jpg,stim/negf.jpg,stim/5.jpg,stim/6.jpg,stim/latef.jpg,CD,1,2,,,,,,,,,,,,,0,46,46,23,,,,,,2,1,0.816330794505,,,,,,2016_Feb_02_1558,P10,PLC_L_D2S1,NHGY,60.0196090261,
stim/posf.jpg,stim/negf.jpg,stim/3.jpg,stim/4.jpg,stim/latef.jpg,EF,2,4,,,,,,,,,,,,,0,47,47,55,,,,,,4,1,0.783085501613,,,,,,2016_Feb_02_1558,P10,PLC_L_D2S1,NHGY,60.0196090261,
stim/posf.jpg,stim/negf.jpg,stim/2.jpg,stim/1.jpg,stim/latef.jpg,AB,1,2,,,,,,,,,,,,,0,48,48,3,,,,,,2,1,0.699752122166,,,,,,2016_Feb_02_1558,P10,PLC_L_D2S1,NHGY,60.0196090261,
stim/posf.jpg,stim/negf.jpg,stim/4.jpg,stim/3.jpg,stim/latef.jpg,EF,1,2,,,,,,,,,,,,,0,49,49,44,,,,,,2,1,0.966353350726,,,,,,2016_Feb_02_1558,P10,PLC_L_D2S1,NHGY,60.0196090261,
stim/posf.jpg,stim/negf.jpg,stim/5.jpg,stim/6.jpg,stim/latef.jpg,CD,1,2,,,,,,,,,,,,,0,50,50,24,,,,,,2,1,0.783082617423,,,,,,2016_Feb_02_1558,P10,PLC_L_D2S1,NHGY,60.0196090261,
stim/posf.jpg,stim/negf.jpg,stim/6.jpg,stim/5.jpg,stim/latef.jpg,CD,2,4,,,,,,,,,,,,,0,51,51,36,,,,,,4,1,0.816384670792,,,,,,2016_Feb_02_1558,P10,PLC_L_D2S1,NHGY,60.0196090261,
stim/posf.jpg,stim/negf.jpg,stim/4.jpg,stim/3.jpg,stim/latef.jpg,EF,1,2,,,,,,,,,,,,,0,52,52,43,,,,,,2,1,0.816410532252,,,,,,2016_Feb_02_1558,P10,PLC_L_D2S1,NHGY,60.0196090261,
stim/negf.jpg,stim/posf.jpg,stim/3.jpg,stim/4.jpg,stim/latef.jpg,EF,2,4,,,,,,,,,,,,,0,53,53,58,,,,,,4,1,0.783069721279,,,,,,2016_Feb_02_1558,P10,PLC_L_D2S1,NHGY,60.0196090261,
stim/posf.jpg,stim/negf.jpg,stim/2.jpg,stim/1.jpg,stim/latef.jpg,AB,1,2,,,,,,,,,,,,,0,54,54,1,,,,,,2,1,0.633091706077,,,,,,2016_Feb_02_1558,P10,PLC_L_D2S1,NHGY,60.0196090261,
stim/posf.jpg,stim/negf.jpg,stim/6.jpg,stim/5.jpg,stim/latef.jpg,CD,2,4,,,,,,,,,,,,,0,55,55,35,,,,,,4,1,1.11627468666,,,,,,2016_Feb_02_1558,P10,PLC_L_D2S1,NHGY,60.0196090261,
stim/posf.jpg,stim/negf.jpg,stim/2.jpg,stim/1.jpg,stim/latef.jpg,AB,1,2,,,,,,,,,,,,,0,56,56,2,,,,,,2,1,0.616478940759,,,,,,2016_Feb_02_1558,P10,PLC_L_D2S1,NHGY,60.0196090261,
stim/negf.jpg,stim/posf.jpg,stim/2.jpg,stim/1.jpg,stim/latef.jpg,AB,1,2,,,,,,,,,,,,,0,57,57,9,,,,,,2,1,0.699786488824,,,,,,2016_Feb_02_1558,P10,PLC_L_D2S1,NHGY,60.0196090261,
stim/negf.jpg,stim/posf.jpg,stim/1.jpg,stim/2.jpg,stim/latef.jpg,AB,2,4,,,,,,,,,,,,,0,58,58,19,,,,,,4,1,0.916349771805,,,,,,2016_Feb_02_1558,P10,PLC_L_D2S1,NHGY,60.0196090261,
stim/posf.jpg,stim/negf.jpg,stim/3.jpg,stim/4.jpg,stim/latef.jpg,EF,2,4,,,,,,,,,,,,,0,59,59,54,,,,,,4,1,0.999665040112,,,,,,2016_Feb_02_1558,P10,PLC_L_D2S1,NHGY,60.0196090261,
