fb_corr,fb_incorr,symbol2,symbol1,fb_late,pair,position,correct,block_01.thisRepN,block_01.thisTrialN,block_01.thisN,block_01.thisIndex,block_02.thisRepN,block_02.thisTrialN,block_02.thisN,block_02.thisIndex,block_03.thisRepN,block_03.thisTrialN,block_03.thisN,block_03.thisIndex,block_04.thisRepN,block_04.thisTrialN,block_04.thisN,block_04.thisIndex,mouse.x,mouse.y,mouse.leftButton,mouse.midButton,mouse.rightButton,buttonBox_2.keys,buttonBox_2.corr,buttonBox_2.rt,mouse_2.x,mouse_2.y,mouse_2.leftButton,mouse_2.midButton,mouse_2.rightButton,date,Participant,expName,Group,frameRate,
,,,,,,,,,,,,,,,,,,,,,,,,0.9984375,0.01171875,1,0,0,,,,,,,,,2016_Feb_03_1229,P12,PLC_L_D2S1,NHGY,60.0284422551,
stim/posf.jpg,stim/negf.jpg,stim/6.jpg,stim/5.jpg,stim/latef.jpg,AB,1,2,0,0,0,6,,,,,,,,,,,,,,,,,,2,1,1.14969059782,,,,,,2016_Feb_03_1229,P12,PLC_L_D2S1,NHGY,60.0284422551,
stim/negf.jpg,stim/posf.jpg,stim/3.jpg,stim/1.jpg,stim/latef.jpg,CD,1,2,0,1,1,28,,,,,,,,,,,,,,,,,,2,1,1.16624792596,,,,,,2016_Feb_03_1229,P12,PLC_L_D2S1,NHGY,60.0284422551,
stim/negf.jpg,stim/posf.jpg,stim/2.jpg,stim/4.jpg,stim/latef.jpg,EF,2,4,0,2,2,58,,,,,,,,,,,,,,,,,,2,0,1.09963377117,,,,,,2016_Feb_03_1229,P12,PLC_L_D2S1,NHGY,60.0284422551,
stim/posf.jpg,stim/negf.jpg,stim/3.jpg,stim/1.jpg,stim/latef.jpg,CD,1,2,0,3,3,25,,,,,,,,,,,,,,,,,,4,0,0.933013986361,,,,,,2016_Feb_03_1229,P12,PLC_L_D2S1,NHGY,60.0284422551,
stim/posf.jpg,stim/negf.jpg,stim/5.jpg,stim/6.jpg,stim/latef.jpg,AB,2,4,0,4,4,10,,,,,,,,,,,,,,,,,,4,1,0.783064611544,,,,,,2016_Feb_03_1229,P12,PLC_L_D2S1,NHGY,60.0284422551,
stim/posf.jpg,stim/negf.jpg,stim/4.jpg,stim/2.jpg,stim/latef.jpg,EF,1,2,0,5,5,42,,,,,,,,,,,,,,,,,,4,0,0.916412857046,,,,,,2016_Feb_03_1229,P12,PLC_L_D2S1,NHGY,60.0284422551,
stim/posf.jpg,stim/negf.jpg,stim/6.jpg,stim/5.jpg,stim/latef.jpg,AB,1,2,0,6,6,7,,,,,,,,,,,,,,,,,,2,1,1.11628896625,,,,,,2016_Feb_03_1229,P12,PLC_L_D2S1,NHGY,60.0284422551,
stim/posf.jpg,stim/negf.jpg,stim/3.jpg,stim/1.jpg,stim/latef.jpg,CD,1,2,0,7,7,22,,,,,,,,,,,,,,,,,,4,0,1.21631647582,,,,,,2016_Feb_03_1229,P12,PLC_L_D2S1,NHGY,60.0284422551,
stim/negf.jpg,stim/posf.jpg,stim/4.jpg,stim/2.jpg,stim/latef.jpg,EF,1,2,0,8,8,46,,,,,,,,,,,,,,,,,,2,1,1.03290735258,,,,,,2016_Feb_03_1229,P12,PLC_L_D2S1,NHGY,60.0284422551,
stim/posf.jpg,stim/negf.jpg,stim/5.jpg,stim/6.jpg,stim/latef.jpg,AB,2,4,0,9,9,12,,,,,,,,,,,,,,,,,,4,1,0.83306382358,,,,,,2016_Feb_03_1229,P12,PLC_L_D2S1,NHGY,60.0284422551,
stim/negf.jpg,stim/posf.jpg,stim/2.jpg,stim/4.jpg,stim/latef.jpg,EF,2,4,0,10,10,57,,,,,,,,,,,,,,,,,,2,0,0.966346075593,,,,,,2016_Feb_03_1229,P12,PLC_L_D2S1,NHGY,60.0284422551,
stim/negf.jpg,stim/posf.jpg,stim/4.jpg,stim/2.jpg,stim/latef.jpg,EF,1,2,0,11,11,47,,,,,,,,,,,,,,,,,,4,0,1.04966562056,,,,,,2016_Feb_03_1229,P12,PLC_L_D2S1,NHGY,60.0284422551,
stim/posf.jpg,stim/negf.jpg,stim/6.jpg,stim/5.jpg,stim/latef.jpg,AB,1,2,0,12,12,5,,,,,,,,,,,,,,,,,,2,1,0.749756904083,,,,,,2016_Feb_03_1229,P12,PLC_L_D2S1,NHGY,60.0284422551,
stim/negf.jpg,stim/posf.jpg,stim/4.jpg,stim/2.jpg,stim/latef.jpg,EF,1,2,0,13,13,49,,,,,,,,,,,,,,,,,,4,0,0.933027712574,,,,,,2016_Feb_03_1229,P12,PLC_L_D2S1,NHGY,60.0284422551,
stim/posf.jpg,stim/negf.jpg,stim/2.jpg,stim/4.jpg,stim/latef.jpg,EF,2,4,0,14,14,50,,,,,,,,,,,,,,,,,,2,0,0.883023417869,,,,,,2016_Feb_03_1229,P12,PLC_L_D2S1,NHGY,60.0284422551,
stim/posf.jpg,stim/negf.jpg,stim/2.jpg,stim/4.jpg,stim/latef.jpg,EF,2,4,0,15,15,51,,,,,,,,,,,,,,,,,,2,0,0.783023201329,,,,,,2016_Feb_03_1229,P12,PLC_L_D2S1,NHGY,60.0284422551,
stim/posf.jpg,stim/negf.jpg,stim/5.jpg,stim/6.jpg,stim/latef.jpg,AB,2,4,0,16,16,17,,,,,,,,,,,,,,,,,,4,1,0.816402718777,,,,,,2016_Feb_03_1229,P12,PLC_L_D2S1,NHGY,60.0284422551,
stim/posf.jpg,stim/negf.jpg,stim/3.jpg,stim/1.jpg,stim/latef.jpg,CD,1,2,0,17,17,21,,,,,,,,,,,,,,,,,,2,1,1.11628584747,,,,,,2016_Feb_03_1229,P12,PLC_L_D2S1,NHGY,60.0284422551,
stim/posf.jpg,stim/negf.jpg,stim/6.jpg,stim/5.jpg,stim/latef.jpg,AB,1,2,0,18,18,4,,,,,,,,,,,,,,,,,,2,1,0.799733668168,,,,,,2016_Feb_03_1229,P12,PLC_L_D2S1,NHGY,60.0284422551,
stim/posf.jpg,stim/negf.jpg,stim/4.jpg,stim/2.jpg,stim/latef.jpg,EF,1,2,0,19,19,40,,,,,,,,,,,,,,,,,,4,0,0.866365988226,,,,,,2016_Feb_03_1229,P12,PLC_L_D2S1,NHGY,60.0284422551,
stim/negf.jpg,stim/posf.jpg,stim/2.jpg,stim/4.jpg,stim/latef.jpg,EF,2,4,0,20,20,59,,,,,,,,,,,,,,,,,,4,1,0.816387648213,,,,,,2016_Feb_03_1229,P12,PLC_L_D2S1,NHGY,60.0284422551,
stim/posf.jpg,stim/negf.jpg,stim/4.jpg,stim/2.jpg,stim/latef.jpg,EF,1,2,0,21,21,41,,,,,,,,,,,,,,,,,,2,1,0.899707220246,,,,,,2016_Feb_03_1229,P12,PLC_L_D2S1,NHGY,60.0284422551,
stim/posf.jpg,stim/negf.jpg,stim/6.jpg,stim/5.jpg,stim/latef.jpg,AB,1,2,0,22,22,1,,,,,,,,,,,,,,,,,,2,1,0.749729057676,,,,,,2016_Feb_03_1229,P12,PLC_L_D2S1,NHGY,60.0284422551,
stim/negf.jpg,stim/posf.jpg,stim/2.jpg,stim/4.jpg,stim/latef.jpg,EF,2,4,0,23,23,56,,,,,,,,,,,,,,,,,,4,1,1.01632354644,,,,,,2016_Feb_03_1229,P12,PLC_L_D2S1,NHGY,60.0284422551,
stim/negf.jpg,stim/posf.jpg,stim/3.jpg,stim/1.jpg,stim/latef.jpg,CD,1,2,0,24,24,27,,,,,,,,,,,,,,,,,,4,0,0.91636681228,,,,,,2016_Feb_03_1229,P12,PLC_L_D2S1,NHGY,60.0284422551,
stim/posf.jpg,stim/negf.jpg,stim/3.jpg,stim/1.jpg,stim/latef.jpg,CD,1,2,0,25,25,24,,,,,,,,,,,,,,,,,,4,0,0.799729015571,,,,,,2016_Feb_03_1229,P12,PLC_L_D2S1,NHGY,60.0284422551,
stim/posf.jpg,stim/negf.jpg,stim/3.jpg,stim/1.jpg,stim/latef.jpg,CD,1,2,0,26,26,20,,,,,,,,,,,,,,,,,,4,0,1.26625768829,,,,,,2016_Feb_03_1229,P12,PLC_L_D2S1,NHGY,60.0284422551,
stim/posf.jpg,stim/negf.jpg,stim/2.jpg,stim/4.jpg,stim/latef.jpg,EF,2,4,0,27,27,54,,,,,,,,,,,,,,,,,,2,0,0.649767463403,,,,,,2016_Feb_03_1229,P12,PLC_L_D2S1,NHGY,60.0284422551,
stim/negf.jpg,stim/posf.jpg,stim/5.jpg,stim/6.jpg,stim/latef.jpg,AB,2,4,0,28,28,18,,,,,,,,,,,,,,,,,,4,1,0.666431659912,,,,,,2016_Feb_03_1229,P12,PLC_L_D2S1,NHGY,60.0284422551,
stim/posf.jpg,stim/negf.jpg,stim/3.jpg,stim/1.jpg,stim/latef.jpg,CD,1,2,0,29,29,23,,,,,,,,,,,,,,,,,,4,0,1.26618674446,,,,,,2016_Feb_03_1229,P12,PLC_L_D2S1,NHGY,60.0284422551,
stim/posf.jpg,stim/negf.jpg,stim/6.jpg,stim/5.jpg,stim/latef.jpg,AB,1,2,0,30,30,3,,,,,,,,,,,,,,,,,,2,1,0.8164017654,,,,,,2016_Feb_03_1229,P12,PLC_L_D2S1,NHGY,60.0284422551,
stim/posf.jpg,stim/negf.jpg,stim/1.jpg,stim/3.jpg,stim/latef.jpg,CD,2,4,0,31,31,34,,,,,,,,,,,,,,,,,,4,1,1.0829646544,,,,,,2016_Feb_03_1229,P12,PLC_L_D2S1,NHGY,60.0284422551,
stim/posf.jpg,stim/negf.jpg,stim/4.jpg,stim/2.jpg,stim/latef.jpg,EF,1,2,0,32,32,43,,,,,,,,,,,,,,,,,,4,0,1.23292798099,,,,,,2016_Feb_03_1229,P12,PLC_L_D2S1,NHGY,60.0284422551,
stim/posf.jpg,stim/negf.jpg,stim/5.jpg,stim/6.jpg,stim/latef.jpg,AB,2,4,0,33,33,14,,,,,,,,,,,,,,,,,,4,1,0.749749851505,,,,,,2016_Feb_03_1229,P12,PLC_L_D2S1,NHGY,60.0284422551,
stim/posf.jpg,stim/negf.jpg,stim/1.jpg,stim/3.jpg,stim/latef.jpg,CD,2,4,0,34,34,30,,,,,,,,,,,,,,,,,,2,0,1.34957431598,,,,,,2016_Feb_03_1229,P12,PLC_L_D2S1,NHGY,60.0284422551,
stim/posf.jpg,stim/negf.jpg,stim/6.jpg,stim/5.jpg,stim/latef.jpg,AB,1,2,0,35,35,2,,,,,,,,,,,,,,,,,,2,1,1.06632986519,,,,,,2016_Feb_03_1229,P12,PLC_L_D2S1,NHGY,60.0284422551,
stim/posf.jpg,stim/negf.jpg,stim/3.jpg,stim/1.jpg,stim/latef.jpg,CD,1,2,0,36,36,26,,,,,,,,,,,,,,,,,,2,1,1.14963835761,,,,,,2016_Feb_03_1229,P12,PLC_L_D2S1,NHGY,60.0284422551,
stim/negf.jpg,stim/posf.jpg,stim/6.jpg,stim/5.jpg,stim/latef.jpg,AB,1,2,0,37,37,9,,,,,,,,,,,,,,,,,,2,1,0.716427256938,,,,,,2016_Feb_03_1229,P12,PLC_L_D2S1,NHGY,60.0284422551,
stim/posf.jpg,stim/negf.jpg,stim/6.jpg,stim/5.jpg,stim/latef.jpg,AB,1,2,0,38,38,0,,,,,,,,,,,,,,,,,,2,1,0.749744783874,,,,,,2016_Feb_03_1229,P12,PLC_L_D2S1,NHGY,60.0284422551,
stim/posf.jpg,stim/negf.jpg,stim/1.jpg,stim/3.jpg,stim/latef.jpg,CD,2,4,0,39,39,31,,,,,,,,,,,,,,,,,,4,1,0.883047519943,,,,,,2016_Feb_03_1229,P12,PLC_L_D2S1,NHGY,60.0284422551,
stim/negf.jpg,stim/posf.jpg,stim/5.jpg,stim/6.jpg,stim/latef.jpg,AB,2,4,0,40,40,19,,,,,,,,,,,,,,,,,,4,1,0.69975944241,,,,,,2016_Feb_03_1229,P12,PLC_L_D2S1,NHGY,60.0284422551,
stim/posf.jpg,stim/negf.jpg,stim/5.jpg,stim/6.jpg,stim/latef.jpg,AB,2,4,0,41,41,16,,,,,,,,,,,,,,,,,,4,1,0.966347967309,,,,,,2016_Feb_03_1229,P12,PLC_L_D2S1,NHGY,60.0284422551,
stim/posf.jpg,stim/negf.jpg,stim/4.jpg,stim/2.jpg,stim/latef.jpg,EF,1,2,0,42,42,45,,,,,,,,,,,,,,,,,,2,1,0.816437686935,,,,,,2016_Feb_03_1229,P12,PLC_L_D2S1,NHGY,60.0284422551,
stim/posf.jpg,stim/negf.jpg,stim/2.jpg,stim/4.jpg,stim/latef.jpg,EF,2,4,0,43,43,53,,,,,,,,,,,,,,,,,,2,0,0.833069107751,,,,,,2016_Feb_03_1229,P12,PLC_L_D2S1,NHGY,60.0284422551,
stim/negf.jpg,stim/posf.jpg,stim/1.jpg,stim/3.jpg,stim/latef.jpg,CD,2,4,0,44,44,38,,,,,,,,,,,,,,,,,,4,1,1.26623990196,,,,,,2016_Feb_03_1229,P12,PLC_L_D2S1,NHGY,60.0284422551,
stim/negf.jpg,stim/posf.jpg,stim/1.jpg,stim/3.jpg,stim/latef.jpg,CD,2,4,0,45,45,39,,,,,,,,,,,,,,,,,,4,1,1.23293197194,,,,,,2016_Feb_03_1229,P12,PLC_L_D2S1,NHGY,60.0284422551,
stim/negf.jpg,stim/posf.jpg,stim/6.jpg,stim/5.jpg,stim/latef.jpg,AB,1,2,0,46,46,8,,,,,,,,,,,,,,,,,,2,1,0.816415762288,,,,,,2016_Feb_03_1229,P12,PLC_L_D2S1,NHGY,60.0284422551,
stim/posf.jpg,stim/negf.jpg,stim/5.jpg,stim/6.jpg,stim/latef.jpg,AB,2,4,0,47,47,13,,,,,,,,,,,,,,,,,,4,1,0.69980873828,,,,,,2016_Feb_03_1229,P12,PLC_L_D2S1,NHGY,60.0284422551,
stim/posf.jpg,stim/negf.jpg,stim/1.jpg,stim/3.jpg,stim/latef.jpg,CD,2,4,0,48,48,36,,,,,,,,,,,,,,,,,,4,1,0.683118033699,,,,,,2016_Feb_03_1229,P12,PLC_L_D2S1,NHGY,60.0284422551,
stim/posf.jpg,stim/negf.jpg,stim/2.jpg,stim/4.jpg,stim/latef.jpg,EF,2,4,0,49,49,55,,,,,,,,,,,,,,,,,,2,0,0.533140683153,,,,,,2016_Feb_03_1229,P12,PLC_L_D2S1,NHGY,60.0284422551,
stim/posf.jpg,stim/negf.jpg,stim/1.jpg,stim/3.jpg,stim/latef.jpg,CD,2,4,0,50,50,33,,,,,,,,,,,,,,,,,,4,1,1.34952824716,,,,,,2016_Feb_03_1229,P12,PLC_L_D2S1,NHGY,60.0284422551,
stim/negf.jpg,stim/posf.jpg,stim/1.jpg,stim/3.jpg,stim/latef.jpg,CD,2,4,0,51,51,37,,,,,,,,,,,,,,,,,,4,1,0.599789754964,,,,,,2016_Feb_03_1229,P12,PLC_L_D2S1,NHGY,60.0284422551,
stim/negf.jpg,stim/posf.jpg,stim/4.jpg,stim/2.jpg,stim/latef.jpg,EF,1,2,0,52,52,48,,,,,,,,,,,,,,,,,,2,1,0.983009556319,,,,,,2016_Feb_03_1229,P12,PLC_L_D2S1,NHGY,60.0284422551,
stim/posf.jpg,stim/negf.jpg,stim/5.jpg,stim/6.jpg,stim/latef.jpg,AB,2,4,0,53,53,15,,,,,,,,,,,,,,,,,,4,1,0.616499575191,,,,,,2016_Feb_03_1229,P12,PLC_L_D2S1,NHGY,60.0284422551,
stim/posf.jpg,stim/negf.jpg,stim/5.jpg,stim/6.jpg,stim/latef.jpg,AB,2,4,0,54,54,11,,,,,,,,,,,,,,,,,,4,1,0.583119880302,,,,,,2016_Feb_03_1229,P12,PLC_L_D2S1,NHGY,60.0284422551,
stim/posf.jpg,stim/negf.jpg,stim/4.jpg,stim/2.jpg,stim/latef.jpg,EF,1,2,0,55,55,44,,,,,,,,,,,,,,,,,,2,1,0.616465352892,,,,,,2016_Feb_03_1229,P12,PLC_L_D2S1,NHGY,60.0284422551,
stim/posf.jpg,stim/negf.jpg,stim/1.jpg,stim/3.jpg,stim/latef.jpg,CD,2,4,0,56,56,35,,,,,,,,,,,,,,,,,,4,1,0.733093113586,,,,,,2016_Feb_03_1229,P12,PLC_L_D2S1,NHGY,60.0284422551,
stim/posf.jpg,stim/negf.jpg,stim/1.jpg,stim/3.jpg,stim/latef.jpg,CD,2,4,0,57,57,32,,,,,,,,,,,,,,,,,,4,1,0.799731502771,,,,,,2016_Feb_03_1229,P12,PLC_L_D2S1,NHGY,60.0284422551,
stim/posf.jpg,stim/negf.jpg,stim/2.jpg,stim/4.jpg,stim/latef.jpg,EF,2,4,0,58,58,52,,,,,,,,,,,,,,,,,,2,0,0.61646277246,,,,,,2016_Feb_03_1229,P12,PLC_L_D2S1,NHGY,60.0284422551,
stim/negf.jpg,stim/posf.jpg,stim/3.jpg,stim/1.jpg,stim/latef.jpg,CD,1,2,0,59,59,29,,,,,,,,,,,,,,,,,,2,1,0.83307167916,,,,,,2016_Feb_03_1229,P12,PLC_L_D2S1,NHGY,60.0284422551,
,,,,,,,,,,,,,,,,,,,,,,,,,,,,,,,,0.9984375,0.01171875,1,0,0,2016_Feb_03_1229,P12,PLC_L_D2S1,NHGY,60.0284422551,
stim/posf.jpg,stim/negf.jpg,stim/4.jpg,stim/2.jpg,stim/latef.jpg,EF,1,2,,,,,0,0,0,45,,,,,,,,,,,,,,2,1,0.949709662333,,,,,,2016_Feb_03_1229,P12,PLC_L_D2S1,NHGY,60.0284422551,
stim/posf.jpg,stim/negf.jpg,stim/3.jpg,stim/1.jpg,stim/latef.jpg,CD,1,2,,,,,0,1,1,21,,,,,,,,,,,,,,2,1,0.816392258705,,,,,,2016_Feb_03_1229,P12,PLC_L_D2S1,NHGY,60.0284422551,
stim/posf.jpg,stim/negf.jpg,stim/2.jpg,stim/4.jpg,stim/latef.jpg,EF,2,4,,,,,0,2,2,55,,,,,,,,,,,,,,4,1,0.966337561372,,,,,,2016_Feb_03_1229,P12,PLC_L_D2S1,NHGY,60.0284422551,
stim/posf.jpg,stim/negf.jpg,stim/1.jpg,stim/3.jpg,stim/latef.jpg,CD,2,4,,,,,0,3,3,33,,,,,,,,,,,,,,4,1,0.883015832964,,,,,,2016_Feb_03_1229,P12,PLC_L_D2S1,NHGY,60.0284422551,
stim/posf.jpg,stim/negf.jpg,stim/4.jpg,stim/2.jpg,stim/latef.jpg,EF,1,2,,,,,0,4,4,42,,,,,,,,,,,,,,2,1,0.71642733814,,,,,,2016_Feb_03_1229,P12,PLC_L_D2S1,NHGY,60.0284422551,
stim/posf.jpg,stim/negf.jpg,stim/4.jpg,stim/2.jpg,stim/latef.jpg,EF,1,2,,,,,0,5,5,41,,,,,,,,,,,,,,2,1,0.76640822851,,,,,,2016_Feb_03_1229,P12,PLC_L_D2S1,NHGY,60.0284422551,
stim/posf.jpg,stim/negf.jpg,stim/4.jpg,stim/2.jpg,stim/latef.jpg,EF,1,2,,,,,0,6,6,40,,,,,,,,,,,,,,2,1,0.949685930181,,,,,,2016_Feb_03_1229,P12,PLC_L_D2S1,NHGY,60.0284422551,
stim/posf.jpg,stim/negf.jpg,stim/1.jpg,stim/3.jpg,stim/latef.jpg,CD,2,4,,,,,0,7,7,32,,,,,,,,,,,,,,4,1,0.716450149999,,,,,,2016_Feb_03_1229,P12,PLC_L_D2S1,NHGY,60.0284422551,
stim/posf.jpg,stim/negf.jpg,stim/2.jpg,stim/4.jpg,stim/latef.jpg,EF,2,4,,,,,0,8,8,52,,,,,,,,,,,,,,4,1,1.01634166961,,,,,,2016_Feb_03_1229,P12,PLC_L_D2S1,NHGY,60.0284422551,
stim/negf.jpg,stim/posf.jpg,stim/4.jpg,stim/2.jpg,stim/latef.jpg,EF,1,2,,,,,0,9,9,47,,,,,,,,,,,,,,2,1,0.866373663356,,,,,,2016_Feb_03_1229,P12,PLC_L_D2S1,NHGY,60.0284422551,
stim/posf.jpg,stim/negf.jpg,stim/4.jpg,stim/2.jpg,stim/latef.jpg,EF,1,2,,,,,0,10,10,43,,,,,,,,,,,,,,4,0,0.749761547657,,,,,,2016_Feb_03_1229,P12,PLC_L_D2S1,NHGY,60.0284422551,
stim/posf.jpg,stim/negf.jpg,stim/5.jpg,stim/6.jpg,stim/latef.jpg,AB,2,4,,,,,0,11,11,10,,,,,,,,,,,,,,4,1,1.06631282772,,,,,,2016_Feb_03_1229,P12,PLC_L_D2S1,NHGY,60.0284422551,
stim/negf.jpg,stim/posf.jpg,stim/2.jpg,stim/4.jpg,stim/latef.jpg,EF,2,4,,,,,0,12,12,56,,,,,,,,,,,,,,2,0,0.716361104052,,,,,,2016_Feb_03_1229,P12,PLC_L_D2S1,NHGY,60.0284422551,
stim/negf.jpg,stim/posf.jpg,stim/3.jpg,stim/1.jpg,stim/latef.jpg,CD,1,2,,,,,0,13,13,27,,,,,,,,,,,,,,2,1,0.966338743318,,,,,,2016_Feb_03_1229,P12,PLC_L_D2S1,NHGY,60.0284422551,
stim/posf.jpg,stim/negf.jpg,stim/1.jpg,stim/3.jpg,stim/latef.jpg,CD,2,4,,,,,0,14,14,30,,,,,,,,,,,,,,4,1,1.39957474906,,,,,,2016_Feb_03_1229,P12,PLC_L_D2S1,NHGY,60.0284422551,
stim/posf.jpg,stim/negf.jpg,stim/2.jpg,stim/4.jpg,stim/latef.jpg,EF,2,4,,,,,0,15,15,50,,,,,,,,,,,,,,None,0,,,,,,,2016_Feb_03_1229,P12,PLC_L_D2S1,NHGY,60.0284422551,
stim/posf.jpg,stim/negf.jpg,stim/5.jpg,stim/6.jpg,stim/latef.jpg,AB,2,4,,,,,0,16,16,17,,,,,,,,,,,,,,4,1,0.833116397621,,,,,,2016_Feb_03_1229,P12,PLC_L_D2S1,NHGY,60.0284422551,
stim/negf.jpg,stim/posf.jpg,stim/6.jpg,stim/5.jpg,stim/latef.jpg,AB,1,2,,,,,0,17,17,9,,,,,,,,,,,,,,2,1,0.649797691747,,,,,,2016_Feb_03_1229,P12,PLC_L_D2S1,NHGY,60.0284422551,
stim/negf.jpg,stim/posf.jpg,stim/2.jpg,stim/4.jpg,stim/latef.jpg,EF,2,4,,,,,0,18,18,58,,,,,,,,,,,,,,4,1,1.11635435523,,,,,,2016_Feb_03_1229,P12,PLC_L_D2S1,NHGY,60.0284422551,
stim/negf.jpg,stim/posf.jpg,stim/3.jpg,stim/1.jpg,stim/latef.jpg,CD,1,2,,,,,0,19,19,28,,,,,,,,,,,,,,2,1,0.649697256412,,,,,,2016_Feb_03_1229,P12,PLC_L_D2S1,NHGY,60.0284422551,
stim/posf.jpg,stim/negf.jpg,stim/2.jpg,stim/4.jpg,stim/latef.jpg,EF,2,4,,,,,0,20,20,53,,,,,,,,,,,,,,4,1,0.999650733453,,,,,,2016_Feb_03_1229,P12,PLC_L_D2S1,NHGY,60.0284422551,
stim/posf.jpg,stim/negf.jpg,stim/6.jpg,stim/5.jpg,stim/latef.jpg,AB,1,2,,,,,0,21,21,6,,,,,,,,,,,,,,2,1,0.783054617634,,,,,,2016_Feb_03_1229,P12,PLC_L_D2S1,NHGY,60.0284422551,
stim/posf.jpg,stim/negf.jpg,stim/6.jpg,stim/5.jpg,stim/latef.jpg,AB,1,2,,,,,0,22,22,1,,,,,,,,,,,,,,2,1,0.766369600229,,,,,,2016_Feb_03_1229,P12,PLC_L_D2S1,NHGY,60.0284422551,
stim/posf.jpg,stim/negf.jpg,stim/2.jpg,stim/4.jpg,stim/latef.jpg,EF,2,4,,,,,0,23,23,51,,,,,,,,,,,,,,4,1,0.783070722777,,,,,,2016_Feb_03_1229,P12,PLC_L_D2S1,NHGY,60.0284422551,
stim/posf.jpg,stim/negf.jpg,stim/6.jpg,stim/5.jpg,stim/latef.jpg,AB,1,2,,,,,0,24,24,2,,,,,,,,,,,,,,2,1,0.766416601379,,,,,,2016_Feb_03_1229,P12,PLC_L_D2S1,NHGY,60.0284422551,
stim/posf.jpg,stim/negf.jpg,stim/4.jpg,stim/2.jpg,stim/latef.jpg,EF,1,2,,,,,0,25,25,44,,,,,,,,,,,,,,2,1,1.16626085518,,,,,,2016_Feb_03_1229,P12,PLC_L_D2S1,NHGY,60.0284422551,
stim/negf.jpg,stim/posf.jpg,stim/1.jpg,stim/3.jpg,stim/latef.jpg,CD,2,4,,,,,0,26,26,39,,,,,,,,,,,,,,4,1,0.633071718258,,,,,,2016_Feb_03_1229,P12,PLC_L_D2S1,NHGY,60.0284422551,
stim/posf.jpg,stim/negf.jpg,stim/1.jpg,stim/3.jpg,stim/latef.jpg,CD,2,4,,,,,0,27,27,36,,,,,,,,,,,,,,4,1,0.599783917414,,,,,,2016_Feb_03_1229,P12,PLC_L_D2S1,NHGY,60.0284422551,
stim/negf.jpg,stim/posf.jpg,stim/5.jpg,stim/6.jpg,stim/latef.jpg,AB,2,4,,,,,0,28,28,18,,,,,,,,,,,,,,4,1,1.06629841881,,,,,,2016_Feb_03_1229,P12,PLC_L_D2S1,NHGY,60.0284422551,
stim/posf.jpg,stim/negf.jpg,stim/6.jpg,stim/5.jpg,stim/latef.jpg,AB,1,2,,,,,0,29,29,0,,,,,,,,,,,,,,4,0,0.516533944857,,,,,,2016_Feb_03_1229,P12,PLC_L_D2S1,NHGY,60.0284422551,
stim/posf.jpg,stim/negf.jpg,stim/3.jpg,stim/1.jpg,stim/latef.jpg,CD,1,2,,,,,0,30,30,24,,,,,,,,,,,,,,2,1,1.1163098894,,,,,,2016_Feb_03_1229,P12,PLC_L_D2S1,NHGY,60.0284422551,
stim/negf.jpg,stim/posf.jpg,stim/4.jpg,stim/2.jpg,stim/latef.jpg,EF,1,2,,,,,0,31,31,48,,,,,,,,,,,,,,4,0,0.616456098826,,,,,,2016_Feb_03_1229,P12,PLC_L_D2S1,NHGY,60.0284422551,
stim/negf.jpg,stim/posf.jpg,stim/2.jpg,stim/4.jpg,stim/latef.jpg,EF,2,4,,,,,0,32,32,57,,,,,,,,,,,,,,2,0,0.683103552605,,,,,,2016_Feb_03_1229,P12,PLC_L_D2S1,NHGY,60.0284422551,
stim/negf.jpg,stim/posf.jpg,stim/1.jpg,stim/3.jpg,stim/latef.jpg,CD,2,4,,,,,0,33,33,38,,,,,,,,,,,,,,4,1,0.46651808633,,,,,,2016_Feb_03_1229,P12,PLC_L_D2S1,NHGY,60.0284422551,
stim/posf.jpg,stim/negf.jpg,stim/1.jpg,stim/3.jpg,stim/latef.jpg,CD,2,4,,,,,0,34,34,31,,,,,,,,,,,,,,4,1,0.94969053165,,,,,,2016_Feb_03_1229,P12,PLC_L_D2S1,NHGY,60.0284422551,
stim/posf.jpg,stim/negf.jpg,stim/3.jpg,stim/1.jpg,stim/latef.jpg,CD,1,2,,,,,0,35,35,25,,,,,,,,,,,,,,4,0,0.58315457177,,,,,,2016_Feb_03_1229,P12,PLC_L_D2S1,NHGY,60.0284422551,
stim/posf.jpg,stim/negf.jpg,stim/1.jpg,stim/3.jpg,stim/latef.jpg,CD,2,4,,,,,0,36,36,35,,,,,,,,,,,,,,4,1,0.633113513432,,,,,,2016_Feb_03_1229,P12,PLC_L_D2S1,NHGY,60.0284422551,
stim/negf.jpg,stim/posf.jpg,stim/5.jpg,stim/6.jpg,stim/latef.jpg,AB,2,4,,,,,0,37,37,19,,,,,,,,,,,,,,4,1,1.16628835272,,,,,,2016_Feb_03_1229,P12,PLC_L_D2S1,NHGY,60.0284422551,
stim/posf.jpg,stim/negf.jpg,stim/1.jpg,stim/3.jpg,stim/latef.jpg,CD,2,4,,,,,0,38,38,34,,,,,,,,,,,,,,4,1,0.533107447312,,,,,,2016_Feb_03_1229,P12,PLC_L_D2S1,NHGY,60.0284422551,
stim/posf.jpg,stim/negf.jpg,stim/3.jpg,stim/1.jpg,stim/latef.jpg,CD,1,2,,,,,0,39,39,26,,,,,,,,,,,,,,2,1,0.549797445132,,,,,,2016_Feb_03_1229,P12,PLC_L_D2S1,NHGY,60.0284422551,
stim/posf.jpg,stim/negf.jpg,stim/5.jpg,stim/6.jpg,stim/latef.jpg,AB,2,4,,,,,0,40,40,16,,,,,,,,,,,,,,4,1,0.583148072571,,,,,,2016_Feb_03_1229,P12,PLC_L_D2S1,NHGY,60.0284422551,
stim/negf.jpg,stim/posf.jpg,stim/4.jpg,stim/2.jpg,stim/latef.jpg,EF,1,2,,,,,0,41,41,46,,,,,,,,,,,,,,2,1,0.549801706754,,,,,,2016_Feb_03_1229,P12,PLC_L_D2S1,NHGY,60.0284422551,
stim/posf.jpg,stim/negf.jpg,stim/5.jpg,stim/6.jpg,stim/latef.jpg,AB,2,4,,,,,0,42,42,11,,,,,,,,,,,,,,4,1,0.982969222788,,,,,,2016_Feb_03_1229,P12,PLC_L_D2S1,NHGY,60.0284422551,
stim/posf.jpg,stim/negf.jpg,stim/3.jpg,stim/1.jpg,stim/latef.jpg,CD,1,2,,,,,0,43,43,23,,,,,,,,,,,,,,4,0,0.849721289313,,,,,,2016_Feb_03_1229,P12,PLC_L_D2S1,NHGY,60.0284422551,
stim/negf.jpg,stim/posf.jpg,stim/2.jpg,stim/4.jpg,stim/latef.jpg,EF,2,4,,,,,0,44,44,59,,,,,,,,,,,,,,4,1,0.749762092014,,,,,,2016_Feb_03_1229,P12,PLC_L_D2S1,NHGY,60.0284422551,
stim/posf.jpg,stim/negf.jpg,stim/3.jpg,stim/1.jpg,stim/latef.jpg,CD,1,2,,,,,0,45,45,22,,,,,,,,,,,,,,2,1,1.33288879031,,,,,,2016_Feb_03_1229,P12,PLC_L_D2S1,NHGY,60.0284422551,
stim/negf.jpg,stim/posf.jpg,stim/3.jpg,stim/1.jpg,stim/latef.jpg,CD,1,2,,,,,0,46,46,29,,,,,,,,,,,,,,4,0,0.966347278592,,,,,,2016_Feb_03_1229,P12,PLC_L_D2S1,NHGY,60.0284422551,
stim/posf.jpg,stim/negf.jpg,stim/5.jpg,stim/6.jpg,stim/latef.jpg,AB,2,4,,,,,0,47,47,13,,,,,,,,,,,,,,4,1,1.13297218517,,,,,,2016_Feb_03_1229,P12,PLC_L_D2S1,NHGY,60.0284422551,
stim/posf.jpg,stim/negf.jpg,stim/5.jpg,stim/6.jpg,stim/latef.jpg,AB,2,4,,,,,0,48,48,12,,,,,,,,,,,,,,2,0,0.899643527492,,,,,,2016_Feb_03_1229,P12,PLC_L_D2S1,NHGY,60.0284422551,
stim/negf.jpg,stim/posf.jpg,stim/4.jpg,stim/2.jpg,stim/latef.jpg,EF,1,2,,,,,0,49,49,49,,,,,,,,,,,,,,2,1,0.766401503748,,,,,,2016_Feb_03_1229,P12,PLC_L_D2S1,NHGY,60.0284422551,
stim/posf.jpg,stim/negf.jpg,stim/6.jpg,stim/5.jpg,stim/latef.jpg,AB,1,2,,,,,0,50,50,5,,,,,,,,,,,,,,2,1,0.766394772972,,,,,,2016_Feb_03_1229,P12,PLC_L_D2S1,NHGY,60.0284422551,
stim/posf.jpg,stim/negf.jpg,stim/3.jpg,stim/1.jpg,stim/latef.jpg,CD,1,2,,,,,0,51,51,20,,,,,,,,,,,,,,2,1,0.749744949286,,,,,,2016_Feb_03_1229,P12,PLC_L_D2S1,NHGY,60.0284422551,
stim/posf.jpg,stim/negf.jpg,stim/6.jpg,stim/5.jpg,stim/latef.jpg,AB,1,2,,,,,0,52,52,7,,,,,,,,,,,,,,4,0,0.733057249194,,,,,,2016_Feb_03_1229,P12,PLC_L_D2S1,NHGY,60.0284422551,
stim/posf.jpg,stim/negf.jpg,stim/5.jpg,stim/6.jpg,stim/latef.jpg,AB,2,4,,,,,0,53,53,14,,,,,,,,,,,,,,4,1,0.733100337591,,,,,,2016_Feb_03_1229,P12,PLC_L_D2S1,NHGY,60.0284422551,
stim/posf.jpg,stim/negf.jpg,stim/6.jpg,stim/5.jpg,stim/latef.jpg,AB,1,2,,,,,0,54,54,3,,,,,,,,,,,,,,4,0,0.666474573875,,,,,,2016_Feb_03_1229,P12,PLC_L_D2S1,NHGY,60.0284422551,
stim/negf.jpg,stim/posf.jpg,stim/1.jpg,stim/3.jpg,stim/latef.jpg,CD,2,4,,,,,0,55,55,37,,,,,,,,,,,,,,4,1,0.649802837573,,,,,,2016_Feb_03_1229,P12,PLC_L_D2S1,NHGY,60.0284422551,
stim/posf.jpg,stim/negf.jpg,stim/2.jpg,stim/4.jpg,stim/latef.jpg,EF,2,4,,,,,0,56,56,54,,,,,,,,,,,,,,2,0,0.633118626176,,,,,,2016_Feb_03_1229,P12,PLC_L_D2S1,NHGY,60.0284422551,
stim/posf.jpg,stim/negf.jpg,stim/6.jpg,stim/5.jpg,stim/latef.jpg,AB,1,2,,,,,0,57,57,4,,,,,,,,,,,,,,2,1,0.999643587642,,,,,,2016_Feb_03_1229,P12,PLC_L_D2S1,NHGY,60.0284422551,
stim/negf.jpg,stim/posf.jpg,stim/6.jpg,stim/5.jpg,stim/latef.jpg,AB,1,2,,,,,0,58,58,8,,,,,,,,,,,,,,2,1,1.0497077646,,,,,,2016_Feb_03_1229,P12,PLC_L_D2S1,NHGY,60.0284422551,
stim/posf.jpg,stim/negf.jpg,stim/5.jpg,stim/6.jpg,stim/latef.jpg,AB,2,4,,,,,0,59,59,15,,,,,,,,,,,,,,4,1,0.983010891647,,,,,,2016_Feb_03_1229,P12,PLC_L_D2S1,NHGY,60.0284422551,
,,,,,,,,,,,,,,,,,,,,,,,,,,,,,,,,0.9984375,0.01171875,1,0,0,2016_Feb_03_1229,P12,PLC_L_D2S1,NHGY,60.0284422551,
stim/negf.jpg,stim/posf.jpg,stim/2.jpg,stim/4.jpg,stim/latef.jpg,EF,2,4,,,,,,,,,0,0,0,58,,,,,,,,,,4,1,1.18295805896,,,,,,2016_Feb_03_1229,P12,PLC_L_D2S1,NHGY,60.0284422551,
stim/posf.jpg,stim/negf.jpg,stim/4.jpg,stim/2.jpg,stim/latef.jpg,EF,1,2,,,,,,,,,0,1,1,42,,,,,,,,,,2,1,0.966341519237,,,,,,2016_Feb_03_1229,P12,PLC_L_D2S1,NHGY,60.0284422551,
stim/posf.jpg,stim/negf.jpg,stim/2.jpg,stim/4.jpg,stim/latef.jpg,EF,2,4,,,,,,,,,0,2,2,52,,,,,,,,,,4,1,0.666427828362,,,,,,2016_Feb_03_1229,P12,PLC_L_D2S1,NHGY,60.0284422551,
stim/posf.jpg,stim/negf.jpg,stim/6.jpg,stim/5.jpg,stim/latef.jpg,AB,1,2,,,,,,,,,0,3,3,7,,,,,,,,,,2,1,0.683094253427,,,,,,2016_Feb_03_1229,P12,PLC_L_D2S1,NHGY,60.0284422551,
stim/posf.jpg,stim/negf.jpg,stim/1.jpg,stim/3.jpg,stim/latef.jpg,CD,2,4,,,,,,,,,0,4,4,33,,,,,,,,,,2,0,0.566490597815,,,,,,2016_Feb_03_1229,P12,PLC_L_D2S1,NHGY,60.0284422551,
stim/negf.jpg,stim/posf.jpg,stim/3.jpg,stim/1.jpg,stim/latef.jpg,CD,1,2,,,,,,,,,0,5,5,27,,,,,,,,,,2,1,0.79971202021,,,,,,2016_Feb_03_1229,P12,PLC_L_D2S1,NHGY,60.0284422551,
stim/posf.jpg,stim/negf.jpg,stim/6.jpg,stim/5.jpg,stim/latef.jpg,AB,1,2,,,,,,,,,0,6,6,2,,,,,,,,,,2,1,0.716446450779,,,,,,2016_Feb_03_1229,P12,PLC_L_D2S1,NHGY,60.0284422551,
stim/negf.jpg,stim/posf.jpg,stim/3.jpg,stim/1.jpg,stim/latef.jpg,CD,1,2,,,,,,,,,0,7,7,28,,,,,,,,,,4,0,0.766424823873,,,,,,2016_Feb_03_1229,P12,PLC_L_D2S1,NHGY,60.0284422551,
stim/posf.jpg,stim/negf.jpg,stim/6.jpg,stim/5.jpg,stim/latef.jpg,AB,1,2,,,,,,,,,0,8,8,1,,,,,,,,,,2,1,0.616446387621,,,,,,2016_Feb_03_1229,P12,PLC_L_D2S1,NHGY,60.0284422551,
stim/negf.jpg,stim/posf.jpg,stim/2.jpg,stim/4.jpg,stim/latef.jpg,EF,2,4,,,,,,,,,0,9,9,59,,,,,,,,,,4,1,0.799703887941,,,,,,2016_Feb_03_1229,P12,PLC_L_D2S1,NHGY,60.0284422551,
stim/negf.jpg,stim/posf.jpg,stim/1.jpg,stim/3.jpg,stim/latef.jpg,CD,2,4,,,,,,,,,0,10,10,38,,,,,,,,,,4,1,0.833053330426,,,,,,2016_Feb_03_1229,P12,PLC_L_D2S1,NHGY,60.0284422551,
stim/posf.jpg,stim/negf.jpg,stim/3.jpg,stim/1.jpg,stim/latef.jpg,CD,1,2,,,,,,,,,0,11,11,23,,,,,,,,,,2,1,1.24960695634,,,,,,2016_Feb_03_1229,P12,PLC_L_D2S1,NHGY,60.0284422551,
stim/posf.jpg,stim/negf.jpg,stim/4.jpg,stim/2.jpg,stim/latef.jpg,EF,1,2,,,,,,,,,0,12,12,43,,,,,,,,,,4,0,1.11631370892,,,,,,2016_Feb_03_1229,P12,PLC_L_D2S1,NHGY,60.0284422551,
stim/posf.jpg,stim/negf.jpg,stim/2.jpg,stim/4.jpg,stim/latef.jpg,EF,2,4,,,,,,,,,0,13,13,51,,,,,,,,,,4,1,0.983006843558,,,,,,2016_Feb_03_1229,P12,PLC_L_D2S1,NHGY,60.0284422551,
stim/posf.jpg,stim/negf.jpg,stim/1.jpg,stim/3.jpg,stim/latef.jpg,CD,2,4,,,,,,,,,0,14,14,32,,,,,,,,,,2,0,0.783076554311,,,,,,2016_Feb_03_1229,P12,PLC_L_D2S1,NHGY,60.0284422551,
stim/negf.jpg,stim/posf.jpg,stim/4.jpg,stim/2.jpg,stim/latef.jpg,EF,1,2,,,,,,,,,0,15,15,49,,,,,,,,,,2,1,1.21626725213,,,,,,2016_Feb_03_1229,P12,PLC_L_D2S1,NHGY,60.0284422551,
stim/posf.jpg,stim/negf.jpg,stim/6.jpg,stim/5.jpg,stim/latef.jpg,AB,1,2,,,,,,,,,0,16,16,3,,,,,,,,,,2,1,0.666405245073,,,,,,2016_Feb_03_1229,P12,PLC_L_D2S1,NHGY,60.0284422551,
stim/posf.jpg,stim/negf.jpg,stim/5.jpg,stim/6.jpg,stim/latef.jpg,AB,2,4,,,,,,,,,0,17,17,16,,,,,,,,,,2,0,0.849734564402,,,,,,2016_Feb_03_1229,P12,PLC_L_D2S1,NHGY,60.0284422551,
stim/posf.jpg,stim/negf.jpg,stim/5.jpg,stim/6.jpg,stim/latef.jpg,AB,2,4,,,,,,,,,0,18,18,12,,,,,,,,,,4,1,0.833018308133,,,,,,2016_Feb_03_1229,P12,PLC_L_D2S1,NHGY,60.0284422551,
stim/posf.jpg,stim/negf.jpg,stim/4.jpg,stim/2.jpg,stim/latef.jpg,EF,1,2,,,,,,,,,0,19,19,41,,,,,,,,,,2,1,0.683109711957,,,,,,2016_Feb_03_1229,P12,PLC_L_D2S1,NHGY,60.0284422551,
stim/negf.jpg,stim/posf.jpg,stim/3.jpg,stim/1.jpg,stim/latef.jpg,CD,1,2,,,,,,,,,0,20,20,29,,,,,,,,,,2,1,0.999665025075,,,,,,2016_Feb_03_1229,P12,PLC_L_D2S1,NHGY,60.0284422551,
stim/posf.jpg,stim/negf.jpg,stim/5.jpg,stim/6.jpg,stim/latef.jpg,AB,2,4,,,,,,,,,0,21,21,11,,,,,,,,,,4,1,0.749756440929,,,,,,2016_Feb_03_1229,P12,PLC_L_D2S1,NHGY,60.0284422551,
stim/posf.jpg,stim/negf.jpg,stim/6.jpg,stim/5.jpg,stim/latef.jpg,AB,1,2,,,,,,,,,0,22,22,0,,,,,,,,,,4,0,0.833081399388,,,,,,2016_Feb_03_1229,P12,PLC_L_D2S1,NHGY,60.0284422551,
stim/posf.jpg,stim/negf.jpg,stim/1.jpg,stim/3.jpg,stim/latef.jpg,CD,2,4,,,,,,,,,0,23,23,34,,,,,,,,,,4,1,0.949654486808,,,,,,2016_Feb_03_1229,P12,PLC_L_D2S1,NHGY,60.0284422551,
stim/posf.jpg,stim/negf.jpg,stim/6.jpg,stim/5.jpg,stim/latef.jpg,AB,1,2,,,,,,,,,0,24,24,5,,,,,,,,,,2,1,0.783094304554,,,,,,2016_Feb_03_1229,P12,PLC_L_D2S1,NHGY,60.0284422551,
stim/negf.jpg,stim/posf.jpg,stim/4.jpg,stim/2.jpg,stim/latef.jpg,EF,1,2,,,,,,,,,0,25,25,48,,,,,,,,,,2,1,0.849726925361,,,,,,2016_Feb_03_1229,P12,PLC_L_D2S1,NHGY,60.0284422551,
stim/posf.jpg,stim/negf.jpg,stim/5.jpg,stim/6.jpg,stim/latef.jpg,AB,2,4,,,,,,,,,0,26,26,14,,,,,,,,,,4,1,0.699785818152,,,,,,2016_Feb_03_1229,P12,PLC_L_D2S1,NHGY,60.0284422551,
stim/posf.jpg,stim/negf.jpg,stim/3.jpg,stim/1.jpg,stim/latef.jpg,CD,1,2,,,,,,,,,0,27,27,21,,,,,,,,,,2,1,0.683102662386,,,,,,2016_Feb_03_1229,P12,PLC_L_D2S1,NHGY,60.0284422551,
stim/posf.jpg,stim/negf.jpg,stim/3.jpg,stim/1.jpg,stim/latef.jpg,CD,1,2,,,,,,,,,0,28,28,20,,,,,,,,,,4,0,1.01634267712,,,,,,2016_Feb_03_1229,P12,PLC_L_D2S1,NHGY,60.0284422551,
stim/negf.jpg,stim/posf.jpg,stim/5.jpg,stim/6.jpg,stim/latef.jpg,AB,2,4,,,,,,,,,0,29,29,19,,,,,,,,,,4,1,0.633114851768,,,,,,2016_Feb_03_1229,P12,PLC_L_D2S1,NHGY,60.0284422551,
stim/posf.jpg,stim/negf.jpg,stim/3.jpg,stim/1.jpg,stim/latef.jpg,CD,1,2,,,,,,,,,0,30,30,26,,,,,,,,,,2,1,0.766419500605,,,,,,2016_Feb_03_1229,P12,PLC_L_D2S1,NHGY,60.0284422551,
stim/negf.jpg,stim/posf.jpg,stim/2.jpg,stim/4.jpg,stim/latef.jpg,EF,2,4,,,,,,,,,0,31,31,57,,,,,,,,,,4,1,0.849716384088,,,,,,2016_Feb_03_1229,P12,PLC_L_D2S1,NHGY,60.0284422551,
stim/posf.jpg,stim/negf.jpg,stim/3.jpg,stim/1.jpg,stim/latef.jpg,CD,1,2,,,,,,,,,0,32,32,22,,,,,,,,,,2,1,1.01639235795,,,,,,2016_Feb_03_1229,P12,PLC_L_D2S1,NHGY,60.0284422551,
stim/posf.jpg,stim/negf.jpg,stim/5.jpg,stim/6.jpg,stim/latef.jpg,AB,2,4,,,,,,,,,0,33,33,17,,,,,,,,,,2,0,1.13292621559,,,,,,2016_Feb_03_1229,P12,PLC_L_D2S1,NHGY,60.0284422551,
stim/posf.jpg,stim/negf.jpg,stim/5.jpg,stim/6.jpg,stim/latef.jpg,AB,2,4,,,,,,,,,0,34,34,15,,,,,,,,,,2,0,1.01630764581,,,,,,2016_Feb_03_1229,P12,PLC_L_D2S1,NHGY,60.0284422551,
stim/negf.jpg,stim/posf.jpg,stim/1.jpg,stim/3.jpg,stim/latef.jpg,CD,2,4,,,,,,,,,0,35,35,39,,,,,,,,,,4,1,0.699776118976,,,,,,2016_Feb_03_1229,P12,PLC_L_D2S1,NHGY,60.0284422551,
stim/posf.jpg,stim/negf.jpg,stim/1.jpg,stim/3.jpg,stim/latef.jpg,CD,2,4,,,,,,,,,0,36,36,31,,,,,,,,,,2,0,0.549833968166,,,,,,2016_Feb_03_1229,P12,PLC_L_D2S1,NHGY,60.0284422551,
stim/posf.jpg,stim/negf.jpg,stim/2.jpg,stim/4.jpg,stim/latef.jpg,EF,2,4,,,,,,,,,0,37,37,55,,,,,,,,,,4,1,1.13295548755,,,,,,2016_Feb_03_1229,P12,PLC_L_D2S1,NHGY,60.0284422551,
stim/posf.jpg,stim/negf.jpg,stim/2.jpg,stim/4.jpg,stim/latef.jpg,EF,2,4,,,,,,,,,0,38,38,53,,,,,,,,,,4,1,0.63316880625,,,,,,2016_Feb_03_1229,P12,PLC_L_D2S1,NHGY,60.0284422551,
stim/posf.jpg,stim/negf.jpg,stim/1.jpg,stim/3.jpg,stim/latef.jpg,CD,2,4,,,,,,,,,0,39,39,36,,,,,,,,,,2,0,0.749729532861,,,,,,2016_Feb_03_1229,P12,PLC_L_D2S1,NHGY,60.0284422551,
stim/negf.jpg,stim/posf.jpg,stim/6.jpg,stim/5.jpg,stim/latef.jpg,AB,1,2,,,,,,,,,0,40,40,8,,,,,,,,,,2,1,0.816390385035,,,,,,2016_Feb_03_1229,P12,PLC_L_D2S1,NHGY,60.0284422551,
stim/negf.jpg,stim/posf.jpg,stim/2.jpg,stim/4.jpg,stim/latef.jpg,EF,2,4,,,,,,,,,0,41,41,56,,,,,,,,,,4,1,0.999666835588,,,,,,2016_Feb_03_1229,P12,PLC_L_D2S1,NHGY,60.0284422551,
stim/posf.jpg,stim/negf.jpg,stim/2.jpg,stim/4.jpg,stim/latef.jpg,EF,2,4,,,,,,,,,0,42,42,50,,,,,,,,,,2,0,0.91635863189,,,,,,2016_Feb_03_1229,P12,PLC_L_D2S1,NHGY,60.0284422551,
stim/posf.jpg,stim/negf.jpg,stim/4.jpg,stim/2.jpg,stim/latef.jpg,EF,1,2,,,,,,,,,0,43,43,44,,,,,,,,,,2,1,0.633126665213,,,,,,2016_Feb_03_1229,P12,PLC_L_D2S1,NHGY,60.0284422551,
stim/posf.jpg,stim/negf.jpg,stim/4.jpg,stim/2.jpg,stim/latef.jpg,EF,1,2,,,,,,,,,0,44,44,40,,,,,,,,,,2,1,0.983005784919,,,,,,2016_Feb_03_1229,P12,PLC_L_D2S1,NHGY,60.0284422551,
stim/posf.jpg,stim/negf.jpg,stim/6.jpg,stim/5.jpg,stim/latef.jpg,AB,1,2,,,,,,,,,0,45,45,4,,,,,,,,,,2,1,0.966426736641,,,,,,2016_Feb_03_1229,P12,PLC_L_D2S1,NHGY,60.0284422551,
stim/negf.jpg,stim/posf.jpg,stim/5.jpg,stim/6.jpg,stim/latef.jpg,AB,2,4,,,,,,,,,0,46,46,18,,,,,,,,,,4,1,0.666444462824,,,,,,2016_Feb_03_1229,P12,PLC_L_D2S1,NHGY,60.0284422551,
stim/posf.jpg,stim/negf.jpg,stim/4.jpg,stim/2.jpg,stim/latef.jpg,EF,1,2,,,,,,,,,0,47,47,45,,,,,,,,,,2,1,1.23292830881,,,,,,2016_Feb_03_1229,P12,PLC_L_D2S1,NHGY,60.0284422551,
stim/posf.jpg,stim/negf.jpg,stim/6.jpg,stim/5.jpg,stim/latef.jpg,AB,1,2,,,,,,,,,0,48,48,6,,,,,,,,,,2,1,0.749738826024,,,,,,2016_Feb_03_1229,P12,PLC_L_D2S1,NHGY,60.0284422551,
stim/posf.jpg,stim/negf.jpg,stim/5.jpg,stim/6.jpg,stim/latef.jpg,AB,2,4,,,,,,,,,0,49,49,10,,,,,,,,,,4,1,1.14957661371,,,,,,2016_Feb_03_1229,P12,PLC_L_D2S1,NHGY,60.0284422551,
stim/posf.jpg,stim/negf.jpg,stim/1.jpg,stim/3.jpg,stim/latef.jpg,CD,2,4,,,,,,,,,0,50,50,30,,,,,,,,,,4,1,0.733172237803,,,,,,2016_Feb_03_1229,P12,PLC_L_D2S1,NHGY,60.0284422551,
stim/posf.jpg,stim/negf.jpg,stim/2.jpg,stim/4.jpg,stim/latef.jpg,EF,2,4,,,,,,,,,0,51,51,54,,,,,,,,,,2,0,0.899646995136,,,,,,2016_Feb_03_1229,P12,PLC_L_D2S1,NHGY,60.0284422551,
stim/negf.jpg,stim/posf.jpg,stim/6.jpg,stim/5.jpg,stim/latef.jpg,AB,1,2,,,,,,,,,0,52,52,9,,,,,,,,,,2,1,0.799728570462,,,,,,2016_Feb_03_1229,P12,PLC_L_D2S1,NHGY,60.0284422551,
stim/posf.jpg,stim/negf.jpg,stim/3.jpg,stim/1.jpg,stim/latef.jpg,CD,1,2,,,,,,,,,0,53,53,24,,,,,,,,,,2,1,0.89969453162,,,,,,2016_Feb_03_1229,P12,PLC_L_D2S1,NHGY,60.0284422551,
stim/posf.jpg,stim/negf.jpg,stim/3.jpg,stim/1.jpg,stim/latef.jpg,CD,1,2,,,,,,,,,0,54,54,25,,,,,,,,,,2,1,0.549797935354,,,,,,2016_Feb_03_1229,P12,PLC_L_D2S1,NHGY,60.0284422551,
stim/negf.jpg,stim/posf.jpg,stim/1.jpg,stim/3.jpg,stim/latef.jpg,CD,2,4,,,,,,,,,0,55,55,37,,,,,,,,,,2,0,0.616438303472,,,,,,2016_Feb_03_1229,P12,PLC_L_D2S1,NHGY,60.0284422551,
stim/posf.jpg,stim/negf.jpg,stim/1.jpg,stim/3.jpg,stim/latef.jpg,CD,2,4,,,,,,,,,0,56,56,35,,,,,,,,,,2,0,0.349888451967,,,,,,2016_Feb_03_1229,P12,PLC_L_D2S1,NHGY,60.0284422551,
stim/negf.jpg,stim/posf.jpg,stim/4.jpg,stim/2.jpg,stim/latef.jpg,EF,1,2,,,,,,,,,0,57,57,46,,,,,,,,,,4,0,1.01633534485,,,,,,2016_Feb_03_1229,P12,PLC_L_D2S1,NHGY,60.0284422551,
stim/posf.jpg,stim/negf.jpg,stim/5.jpg,stim/6.jpg,stim/latef.jpg,AB,2,4,,,,,,,,,0,58,58,13,,,,,,,,,,4,1,0.566454408613,,,,,,2016_Feb_03_1229,P12,PLC_L_D2S1,NHGY,60.0284422551,
stim/negf.jpg,stim/posf.jpg,stim/4.jpg,stim/2.jpg,stim/latef.jpg,EF,1,2,,,,,,,,,0,59,59,47,,,,,,,,,,2,1,0.599817679566,,,,,,2016_Feb_03_1229,P12,PLC_L_D2S1,NHGY,60.0284422551,
,,,,,,,,,,,,,,,,,,,,,,,,,,,,,,,,0.9984375,0.01171875,1,0,0,2016_Feb_03_1229,P12,PLC_L_D2S1,NHGY,60.0284422551,
stim/negf.jpg,stim/posf.jpg,stim/1.jpg,stim/3.jpg,stim/latef.jpg,CD,2,4,,,,,,,,,,,,,0,0,0,39,,,,,,4,1,1.34955637627,,,,,,2016_Feb_03_1229,P12,PLC_L_D2S1,NHGY,60.0284422551,
stim/posf.jpg,stim/negf.jpg,stim/4.jpg,stim/2.jpg,stim/latef.jpg,EF,1,2,,,,,,,,,,,,,0,1,1,43,,,,,,4,0,0.549856587545,,,,,,2016_Feb_03_1229,P12,PLC_L_D2S1,NHGY,60.0284422551,
stim/posf.jpg,stim/negf.jpg,stim/5.jpg,stim/6.jpg,stim/latef.jpg,AB,2,4,,,,,,,,,,,,,0,2,2,10,,,,,,4,1,0.783068145352,,,,,,2016_Feb_03_1229,P12,PLC_L_D2S1,NHGY,60.0284422551,
stim/posf.jpg,stim/negf.jpg,stim/6.jpg,stim/5.jpg,stim/latef.jpg,AB,1,2,,,,,,,,,,,,,0,3,3,5,,,,,,4,0,0.649784897858,,,,,,2016_Feb_03_1229,P12,PLC_L_D2S1,NHGY,60.0284422551,
stim/posf.jpg,stim/negf.jpg,stim/1.jpg,stim/3.jpg,stim/latef.jpg,CD,2,4,,,,,,,,,,,,,0,4,4,33,,,,,,4,1,1.13298322569,,,,,,2016_Feb_03_1229,P12,PLC_L_D2S1,NHGY,60.0284422551,
stim/posf.jpg,stim/negf.jpg,stim/5.jpg,stim/6.jpg,stim/latef.jpg,AB,2,4,,,,,,,,,,,,,0,5,5,15,,,,,,4,1,0.782974564101,,,,,,2016_Feb_03_1229,P12,PLC_L_D2S1,NHGY,60.0284422551,
stim/posf.jpg,stim/negf.jpg,stim/3.jpg,stim/1.jpg,stim/latef.jpg,CD,1,2,,,,,,,,,,,,,0,6,6,20,,,,,,2,1,0.533165347629,,,,,,2016_Feb_03_1229,P12,PLC_L_D2S1,NHGY,60.0284422551,
stim/posf.jpg,stim/negf.jpg,stim/3.jpg,stim/1.jpg,stim/latef.jpg,CD,1,2,,,,,,,,,,,,,0,7,7,26,,,,,,2,1,0.383202625544,,,,,,2016_Feb_03_1229,P12,PLC_L_D2S1,NHGY,60.0284422551,
stim/negf.jpg,stim/posf.jpg,stim/6.jpg,stim/5.jpg,stim/latef.jpg,AB,1,2,,,,,,,,,,,,,0,8,8,8,,,,,,2,1,0.599816046496,,,,,,2016_Feb_03_1229,P12,PLC_L_D2S1,NHGY,60.0284422551,
stim/posf.jpg,stim/negf.jpg,stim/2.jpg,stim/4.jpg,stim/latef.jpg,EF,2,4,,,,,,,,,,,,,0,9,9,53,,,,,,4,1,0.999660787513,,,,,,2016_Feb_03_1229,P12,PLC_L_D2S1,NHGY,60.0284422551,
stim/negf.jpg,stim/posf.jpg,stim/6.jpg,stim/5.jpg,stim/latef.jpg,AB,1,2,,,,,,,,,,,,,0,10,10,9,,,,,,4,0,0.816398156405,,,,,,2016_Feb_03_1229,P12,PLC_L_D2S1,NHGY,60.0284422551,
stim/posf.jpg,stim/negf.jpg,stim/4.jpg,stim/2.jpg,stim/latef.jpg,EF,1,2,,,,,,,,,,,,,0,11,11,44,,,,,,2,1,0.549815405899,,,,,,2016_Feb_03_1229,P12,PLC_L_D2S1,NHGY,60.0284422551,
stim/posf.jpg,stim/negf.jpg,stim/1.jpg,stim/3.jpg,stim/latef.jpg,CD,2,4,,,,,,,,,,,,,0,12,12,34,,,,,,2,0,0.516515761536,,,,,,2016_Feb_03_1229,P12,PLC_L_D2S1,NHGY,60.0284422551,
stim/negf.jpg,stim/posf.jpg,stim/3.jpg,stim/1.jpg,stim/latef.jpg,CD,1,2,,,,,,,,,,,,,0,13,13,27,,,,,,2,1,0.683105381162,,,,,,2016_Feb_03_1229,P12,PLC_L_D2S1,NHGY,60.0284422551,
stim/posf.jpg,stim/negf.jpg,stim/6.jpg,stim/5.jpg,stim/latef.jpg,AB,1,2,,,,,,,,,,,,,0,14,14,7,,,,,,2,1,0.633156081533,,,,,,2016_Feb_03_1229,P12,PLC_L_D2S1,NHGY,60.0284422551,
stim/posf.jpg,stim/negf.jpg,stim/3.jpg,stim/1.jpg,stim/latef.jpg,CD,1,2,,,,,,,,,,,,,0,15,15,21,,,,,,2,1,0.349861549913,,,,,,2016_Feb_03_1229,P12,PLC_L_D2S1,NHGY,60.0284422551,
stim/negf.jpg,stim/posf.jpg,stim/4.jpg,stim/2.jpg,stim/latef.jpg,EF,1,2,,,,,,,,,,,,,0,16,16,48,,,,,,4,0,0.36653188773,,,,,,2016_Feb_03_1229,P12,PLC_L_D2S1,NHGY,60.0284422551,
stim/posf.jpg,stim/negf.jpg,stim/3.jpg,stim/1.jpg,stim/latef.jpg,CD,1,2,,,,,,,,,,,,,0,17,17,23,,,,,,4,0,0.299921110367,,,,,,2016_Feb_03_1229,P12,PLC_L_D2S1,NHGY,60.0284422551,
stim/posf.jpg,stim/negf.jpg,stim/2.jpg,stim/4.jpg,stim/latef.jpg,EF,2,4,,,,,,,,,,,,,0,18,18,50,,,,,,2,0,0.533184607634,,,,,,2016_Feb_03_1229,P12,PLC_L_D2S1,NHGY,60.0284422551,
stim/posf.jpg,stim/negf.jpg,stim/1.jpg,stim/3.jpg,stim/latef.jpg,CD,2,4,,,,,,,,,,,,,0,19,19,35,,,,,,2,0,0.683076686641,,,,,,2016_Feb_03_1229,P12,PLC_L_D2S1,NHGY,60.0284422551,
stim/negf.jpg,stim/posf.jpg,stim/5.jpg,stim/6.jpg,stim/latef.jpg,AB,2,4,,,,,,,,,,,,,0,20,20,19,,,,,,4,1,0.549843589146,,,,,,2016_Feb_03_1229,P12,PLC_L_D2S1,NHGY,60.0284422551,
stim/posf.jpg,stim/negf.jpg,stim/2.jpg,stim/4.jpg,stim/latef.jpg,EF,2,4,,,,,,,,,,,,,0,21,21,51,,,,,,2,0,0.483151462019,,,,,,2016_Feb_03_1229,P12,PLC_L_D2S1,NHGY,60.0284422551,
stim/posf.jpg,stim/negf.jpg,stim/1.jpg,stim/3.jpg,stim/latef.jpg,CD,2,4,,,,,,,,,,,,,0,22,22,31,,,,,,4,1,1.1162981361,,,,,,2016_Feb_03_1229,P12,PLC_L_D2S1,NHGY,60.0284422551,
stim/posf.jpg,stim/negf.jpg,stim/5.jpg,stim/6.jpg,stim/latef.jpg,AB,2,4,,,,,,,,,,,,,0,23,23,11,,,,,,4,1,0.616438135052,,,,,,2016_Feb_03_1229,P12,PLC_L_D2S1,NHGY,60.0284422551,
stim/posf.jpg,stim/negf.jpg,stim/4.jpg,stim/2.jpg,stim/latef.jpg,EF,1,2,,,,,,,,,,,,,0,24,24,42,,,,,,2,1,0.699766353637,,,,,,2016_Feb_03_1229,P12,PLC_L_D2S1,NHGY,60.0284422551,
stim/posf.jpg,stim/negf.jpg,stim/6.jpg,stim/5.jpg,stim/latef.jpg,AB,1,2,,,,,,,,,,,,,0,25,25,1,,,,,,2,1,0.549798016556,,,,,,2016_Feb_03_1229,P12,PLC_L_D2S1,NHGY,60.0284422551,
stim/posf.jpg,stim/negf.jpg,stim/3.jpg,stim/1.jpg,stim/latef.jpg,CD,1,2,,,,,,,,,,,,,0,26,26,24,,,,,,2,1,0.849677704679,,,,,,2016_Feb_03_1229,P12,PLC_L_D2S1,NHGY,60.0284422551,
stim/posf.jpg,stim/negf.jpg,stim/3.jpg,stim/1.jpg,stim/latef.jpg,CD,1,2,,,,,,,,,,,,,0,27,27,22,,,,,,2,1,0.849721175029,,,,,,2016_Feb_03_1229,P12,PLC_L_D2S1,NHGY,60.0284422551,
stim/negf.jpg,stim/posf.jpg,stim/1.jpg,stim/3.jpg,stim/latef.jpg,CD,2,4,,,,,,,,,,,,,0,28,28,38,,,,,,4,1,0.66643334411,,,,,,2016_Feb_03_1229,P12,PLC_L_D2S1,NHGY,60.0284422551,
stim/negf.jpg,stim/posf.jpg,stim/4.jpg,stim/2.jpg,stim/latef.jpg,EF,1,2,,,,,,,,,,,,,0,29,29,49,,,,,,2,1,0.866349344742,,,,,,2016_Feb_03_1229,P12,PLC_L_D2S1,NHGY,60.0284422551,
stim/posf.jpg,stim/negf.jpg,stim/6.jpg,stim/5.jpg,stim/latef.jpg,AB,1,2,,,,,,,,,,,,,0,30,30,6,,,,,,2,1,0.64977908136,,,,,,2016_Feb_03_1229,P12,PLC_L_D2S1,NHGY,60.0284422551,
stim/posf.jpg,stim/negf.jpg,stim/4.jpg,stim/2.jpg,stim/latef.jpg,EF,1,2,,,,,,,,,,,,,0,31,31,41,,,,,,2,1,0.899705322516,,,,,,2016_Feb_03_1229,P12,PLC_L_D2S1,NHGY,60.0284422551,
stim/negf.jpg,stim/posf.jpg,stim/1.jpg,stim/3.jpg,stim/latef.jpg,CD,2,4,,,,,,,,,,,,,0,32,32,37,,,,,,4,1,1.06631111044,,,,,,2016_Feb_03_1229,P12,PLC_L_D2S1,NHGY,60.0284422551,
stim/negf.jpg,stim/posf.jpg,stim/3.jpg,stim/1.jpg,stim/latef.jpg,CD,1,2,,,,,,,,,,,,,0,33,33,29,,,,,,2,1,0.549817484079,,,,,,2016_Feb_03_1229,P12,PLC_L_D2S1,NHGY,60.0284422551,
stim/negf.jpg,stim/posf.jpg,stim/2.jpg,stim/4.jpg,stim/latef.jpg,EF,2,4,,,,,,,,,,,,,0,34,34,57,,,,,,2,0,0.799729505793,,,,,,2016_Feb_03_1229,P12,PLC_L_D2S1,NHGY,60.0284422551,
stim/negf.jpg,stim/posf.jpg,stim/4.jpg,stim/2.jpg,stim/latef.jpg,EF,1,2,,,,,,,,,,,,,0,35,35,47,,,,,,2,1,0.483175955068,,,,,,2016_Feb_03_1229,P12,PLC_L_D2S1,NHGY,60.0284422551,
stim/posf.jpg,stim/negf.jpg,stim/6.jpg,stim/5.jpg,stim/latef.jpg,AB,1,2,,,,,,,,,,,,,0,36,36,2,,,,,,4,0,0.649777156563,,,,,,2016_Feb_03_1229,P12,PLC_L_D2S1,NHGY,60.0284422551,
stim/posf.jpg,stim/negf.jpg,stim/1.jpg,stim/3.jpg,stim/latef.jpg,CD,2,4,,,,,,,,,,,,,0,37,37,36,,,,,,2,0,0.483195251164,,,,,,2016_Feb_03_1229,P12,PLC_L_D2S1,NHGY,60.0284422551,
stim/negf.jpg,stim/posf.jpg,stim/2.jpg,stim/4.jpg,stim/latef.jpg,EF,2,4,,,,,,,,,,,,,0,38,38,59,,,,,,4,1,1.03299842558,,,,,,2016_Feb_03_1229,P12,PLC_L_D2S1,NHGY,60.0284422551,
stim/negf.jpg,stim/posf.jpg,stim/2.jpg,stim/4.jpg,stim/latef.jpg,EF,2,4,,,,,,,,,,,,,0,39,39,58,,,,,,2,0,0.566479403914,,,,,,2016_Feb_03_1229,P12,PLC_L_D2S1,NHGY,60.0284422551,
stim/posf.jpg,stim/negf.jpg,stim/5.jpg,stim/6.jpg,stim/latef.jpg,AB,2,4,,,,,,,,,,,,,0,40,40,14,,,,,,4,1,0.716372911482,,,,,,2016_Feb_03_1229,P12,PLC_L_D2S1,NHGY,60.0284422551,
stim/posf.jpg,stim/negf.jpg,stim/4.jpg,stim/2.jpg,stim/latef.jpg,EF,1,2,,,,,,,,,,,,,0,41,41,40,,,,,,2,1,0.549812428478,,,,,,2016_Feb_03_1229,P12,PLC_L_D2S1,NHGY,60.0284422551,
stim/posf.jpg,stim/negf.jpg,stim/4.jpg,stim/2.jpg,stim/latef.jpg,EF,1,2,,,,,,,,,,,,,0,42,42,45,,,,,,2,1,0.633117272803,,,,,,2016_Feb_03_1229,P12,PLC_L_D2S1,NHGY,60.0284422551,
stim/posf.jpg,stim/negf.jpg,stim/2.jpg,stim/4.jpg,stim/latef.jpg,EF,2,4,,,,,,,,,,,,,0,43,43,55,,,,,,4,1,1.16629109556,,,,,,2016_Feb_03_1229,P12,PLC_L_D2S1,NHGY,60.0284422551,
stim/posf.jpg,stim/negf.jpg,stim/5.jpg,stim/6.jpg,stim/latef.jpg,AB,2,4,,,,,,,,,,,,,0,44,44,12,,,,,,4,1,1.19964115157,,,,,,2016_Feb_03_1229,P12,PLC_L_D2S1,NHGY,60.0284422551,
stim/negf.jpg,stim/posf.jpg,stim/3.jpg,stim/1.jpg,stim/latef.jpg,CD,1,2,,,,,,,,,,,,,0,45,45,28,,,,,,2,1,1.03301990211,,,,,,2016_Feb_03_1229,P12,PLC_L_D2S1,NHGY,60.0284422551,
stim/posf.jpg,stim/negf.jpg,stim/6.jpg,stim/5.jpg,stim/latef.jpg,AB,1,2,,,,,,,,,,,,,0,46,46,3,,,,,,2,1,0.783066797994,,,,,,2016_Feb_03_1229,P12,PLC_L_D2S1,NHGY,60.0284422551,
stim/posf.jpg,stim/negf.jpg,stim/5.jpg,stim/6.jpg,stim/latef.jpg,AB,2,4,,,,,,,,,,,,,0,47,47,17,,,,,,4,1,0.89968038135,,,,,,2016_Feb_03_1229,P12,PLC_L_D2S1,NHGY,60.0284422551,
stim/posf.jpg,stim/negf.jpg,stim/1.jpg,stim/3.jpg,stim/latef.jpg,CD,2,4,,,,,,,,,,,,,0,48,48,32,,,,,,4,1,1.09961030669,,,,,,2016_Feb_03_1229,P12,PLC_L_D2S1,NHGY,60.0284422551,
stim/posf.jpg,stim/negf.jpg,stim/2.jpg,stim/4.jpg,stim/latef.jpg,EF,2,4,,,,,,,,,,,,,0,49,49,54,,,,,,4,1,1.03298503921,,,,,,2016_Feb_03_1229,P12,PLC_L_D2S1,NHGY,60.0284422551,
stim/posf.jpg,stim/negf.jpg,stim/6.jpg,stim/5.jpg,stim/latef.jpg,AB,1,2,,,,,,,,,,,,,0,50,50,0,,,,,,2,1,0.699764251397,,,,,,2016_Feb_03_1229,P12,PLC_L_D2S1,NHGY,60.0284422551,
stim/posf.jpg,stim/negf.jpg,stim/3.jpg,stim/1.jpg,stim/latef.jpg,CD,1,2,,,,,,,,,,,,,0,51,51,25,,,,,,4,0,1.14965568379,,,,,,2016_Feb_03_1229,P12,PLC_L_D2S1,NHGY,60.0284422551,
stim/posf.jpg,stim/negf.jpg,stim/5.jpg,stim/6.jpg,stim/latef.jpg,AB,2,4,,,,,,,,,,,,,0,52,52,16,,,,,,4,1,0.799750401877,,,,,,2016_Feb_03_1229,P12,PLC_L_D2S1,NHGY,60.0284422551,
stim/negf.jpg,stim/posf.jpg,stim/5.jpg,stim/6.jpg,stim/latef.jpg,AB,2,4,,,,,,,,,,,,,0,53,53,18,,,,,,4,1,0.94967700694,,,,,,2016_Feb_03_1229,P12,PLC_L_D2S1,NHGY,60.0284422551,
stim/negf.jpg,stim/posf.jpg,stim/2.jpg,stim/4.jpg,stim/latef.jpg,EF,2,4,,,,,,,,,,,,,0,54,54,56,,,,,,4,1,1.36620787513,,,,,,2016_Feb_03_1229,P12,PLC_L_D2S1,NHGY,60.0284422551,
stim/posf.jpg,stim/negf.jpg,stim/2.jpg,stim/4.jpg,stim/latef.jpg,EF,2,4,,,,,,,,,,,,,0,55,55,52,,,,,,2,0,0.74980905106,,,,,,2016_Feb_03_1229,P12,PLC_L_D2S1,NHGY,60.0284422551,
stim/posf.jpg,stim/negf.jpg,stim/6.jpg,stim/5.jpg,stim/latef.jpg,AB,1,2,,,,,,,,,,,,,0,56,56,4,,,,,,2,1,0.699762242389,,,,,,2016_Feb_03_1229,P12,PLC_L_D2S1,NHGY,60.0284422551,
stim/posf.jpg,stim/negf.jpg,stim/5.jpg,stim/6.jpg,stim/latef.jpg,AB,2,4,,,,,,,,,,,,,0,57,57,13,,,,,,4,1,0.683101092473,,,,,,2016_Feb_03_1229,P12,PLC_L_D2S1,NHGY,60.0284422551,
stim/negf.jpg,stim/posf.jpg,stim/4.jpg,stim/2.jpg,stim/latef.jpg,EF,1,2,,,,,,,,,,,,,0,58,58,46,,,,,,2,1,0.899709821731,,,,,,2016_Feb_03_1229,P12,PLC_L_D2S1,NHGY,60.0284422551,
stim/posf.jpg,stim/negf.jpg,stim/1.jpg,stim/3.jpg,stim/latef.jpg,CD,2,4,,,,,,,,,,,,,0,59,59,30,,,,,,4,1,0.649796299276,,,,,,2016_Feb_03_1229,P12,PLC_L_D2S1,NHGY,60.0284422551,
