fb_corr,fb_incorr,symbol2,symbol1,fb_late,pair,position,correct,block_01.thisRepN,block_01.thisTrialN,block_01.thisN,block_01.thisIndex,block_02.thisRepN,block_02.thisTrialN,block_02.thisN,block_02.thisIndex,block_03.thisRepN,block_03.thisTrialN,block_03.thisN,block_03.thisIndex,block_04.thisRepN,block_04.thisTrialN,block_04.thisN,block_04.thisIndex,mouse.x,mouse.y,mouse.leftButton,mouse.midButton,mouse.rightButton,buttonBox_2.keys,buttonBox_2.corr,buttonBox_2.rt,mouse_2.x,mouse_2.y,mouse_2.leftButton,mouse_2.midButton,mouse_2.rightButton,date,Participant,expName,Group,frameRate,
,,,,,,,,,,,,,,,,,,,,,,,,0.9984375,0.79296875,1,0,0,,,,,,,,,2016_Apr_12_0857,P13,PLC_L_D2S1,NHGY,60.0131891348,
stim/negf.jpg,stim/posf.jpg,stim/3.jpg,stim/1.jpg,stim/latef.jpg,EF,1,2,0,0,0,47,,,,,,,,,,,,,,,,,,2,1,1.34959122109,,,,,,2016_Apr_12_0857,P13,PLC_L_D2S1,NHGY,60.0131891348,
stim/negf.jpg,stim/posf.jpg,stim/3.jpg,stim/1.jpg,stim/latef.jpg,EF,1,2,0,1,1,48,,,,,,,,,,,,,,,,,,4,0,1.51617328055,,,,,,2016_Apr_12_0857,P13,PLC_L_D2S1,NHGY,60.0131891348,
stim/posf.jpg,stim/negf.jpg,stim/4.jpg,stim/6.jpg,stim/latef.jpg,AB,1,2,0,2,2,4,,,,,,,,,,,,,,,,,,2,1,1.19959053989,,,,,,2016_Apr_12_0857,P13,PLC_L_D2S1,NHGY,60.0131891348,
stim/posf.jpg,stim/negf.jpg,stim/4.jpg,stim/6.jpg,stim/latef.jpg,AB,1,2,0,3,3,7,,,,,,,,,,,,,,,,,,2,1,0.999680828268,,,,,,2016_Apr_12_0857,P13,PLC_L_D2S1,NHGY,60.0131891348,
stim/negf.jpg,stim/posf.jpg,stim/4.jpg,stim/6.jpg,stim/latef.jpg,AB,1,2,0,4,4,9,,,,,,,,,,,,,,,,,,2,1,1.08303502618,,,,,,2016_Apr_12_0857,P13,PLC_L_D2S1,NHGY,60.0131891348,
stim/posf.jpg,stim/negf.jpg,stim/2.jpg,stim/5.jpg,stim/latef.jpg,CD,1,2,0,5,5,23,,,,,,,,,,,,,,,,,,2,1,1.66610762817,,,,,,2016_Apr_12_0857,P13,PLC_L_D2S1,NHGY,60.0131891348,
stim/posf.jpg,stim/negf.jpg,stim/2.jpg,stim/5.jpg,stim/latef.jpg,CD,1,2,0,6,6,25,,,,,,,,,,,,,,,,,,2,1,1.16628708012,,,,,,2016_Apr_12_0857,P13,PLC_L_D2S1,NHGY,60.0131891348,
stim/posf.jpg,stim/negf.jpg,stim/5.jpg,stim/2.jpg,stim/latef.jpg,CD,2,4,0,7,7,31,,,,,,,,,,,,,,,,,,4,1,1.49951531912,,,,,,2016_Apr_12_0857,P13,PLC_L_D2S1,NHGY,60.0131891348,
stim/negf.jpg,stim/posf.jpg,stim/5.jpg,stim/2.jpg,stim/latef.jpg,CD,2,4,0,8,8,39,,,,,,,,,,,,,,,,,,4,1,0.96636100165,,,,,,2016_Apr_12_0857,P13,PLC_L_D2S1,NHGY,60.0131891348,
stim/posf.jpg,stim/negf.jpg,stim/6.jpg,stim/4.jpg,stim/latef.jpg,AB,2,4,0,9,9,11,,,,,,,,,,,,,,,,,,4,1,1.04963911564,,,,,,2016_Apr_12_0857,P13,PLC_L_D2S1,NHGY,60.0131891348,
stim/posf.jpg,stim/negf.jpg,stim/3.jpg,stim/1.jpg,stim/latef.jpg,EF,1,2,0,10,10,43,,,,,,,,,,,,,,,,,,4,0,1.299549325,,,,,,2016_Apr_12_0857,P13,PLC_L_D2S1,NHGY,60.0131891348,
stim/posf.jpg,stim/negf.jpg,stim/2.jpg,stim/5.jpg,stim/latef.jpg,CD,1,2,0,11,11,22,,,,,,,,,,,,,,,,,,2,1,0.932949409965,,,,,,2016_Apr_12_0857,P13,PLC_L_D2S1,NHGY,60.0131891348,
stim/negf.jpg,stim/posf.jpg,stim/5.jpg,stim/2.jpg,stim/latef.jpg,CD,2,4,0,12,12,37,,,,,,,,,,,,,,,,,,4,1,0.816389652671,,,,,,2016_Apr_12_0857,P13,PLC_L_D2S1,NHGY,60.0131891348,
stim/posf.jpg,stim/negf.jpg,stim/4.jpg,stim/6.jpg,stim/latef.jpg,AB,1,2,0,13,13,1,,,,,,,,,,,,,,,,,,2,1,0.816370296352,,,,,,2016_Apr_12_0857,P13,PLC_L_D2S1,NHGY,60.0131891348,
stim/negf.jpg,stim/posf.jpg,stim/1.jpg,stim/3.jpg,stim/latef.jpg,EF,2,4,0,14,14,58,,,,,,,,,,,,,,,,,,4,1,1.03299475716,,,,,,2016_Apr_12_0857,P13,PLC_L_D2S1,NHGY,60.0131891348,
stim/posf.jpg,stim/negf.jpg,stim/4.jpg,stim/6.jpg,stim/latef.jpg,AB,1,2,0,15,15,3,,,,,,,,,,,,,,,,,,2,1,0.81641664505,,,,,,2016_Apr_12_0857,P13,PLC_L_D2S1,NHGY,60.0131891348,
stim/posf.jpg,stim/negf.jpg,stim/3.jpg,stim/1.jpg,stim/latef.jpg,EF,1,2,0,16,16,40,,,,,,,,,,,,,,,,,,2,1,0.883046999071,,,,,,2016_Apr_12_0857,P13,PLC_L_D2S1,NHGY,60.0131891348,
stim/negf.jpg,stim/posf.jpg,stim/1.jpg,stim/3.jpg,stim/latef.jpg,EF,2,4,0,17,17,56,,,,,,,,,,,,,,,,,,2,0,0.983027916436,,,,,,2016_Apr_12_0857,P13,PLC_L_D2S1,NHGY,60.0131891348,
stim/posf.jpg,stim/negf.jpg,stim/2.jpg,stim/5.jpg,stim/latef.jpg,CD,1,2,0,18,18,24,,,,,,,,,,,,,,,,,,4,0,0.799742376908,,,,,,2016_Apr_12_0857,P13,PLC_L_D2S1,NHGY,60.0131891348,
stim/negf.jpg,stim/posf.jpg,stim/3.jpg,stim/1.jpg,stim/latef.jpg,EF,1,2,0,19,19,49,,,,,,,,,,,,,,,,,,2,1,0.983002087962,,,,,,2016_Apr_12_0857,P13,PLC_L_D2S1,NHGY,60.0131891348,
stim/negf.jpg,stim/posf.jpg,stim/2.jpg,stim/5.jpg,stim/latef.jpg,CD,1,2,0,20,20,29,,,,,,,,,,,,,,,,,,2,1,0.866391696272,,,,,,2016_Apr_12_0857,P13,PLC_L_D2S1,NHGY,60.0131891348,
stim/negf.jpg,stim/posf.jpg,stim/1.jpg,stim/3.jpg,stim/latef.jpg,EF,2,4,0,21,21,57,,,,,,,,,,,,,,,,,,4,1,1.08298620832,,,,,,2016_Apr_12_0857,P13,PLC_L_D2S1,NHGY,60.0131891348,
stim/posf.jpg,stim/negf.jpg,stim/1.jpg,stim/3.jpg,stim/latef.jpg,EF,2,4,0,22,22,55,,,,,,,,,,,,,,,,,,4,1,0.899711267251,,,,,,2016_Apr_12_0857,P13,PLC_L_D2S1,NHGY,60.0131891348,
stim/posf.jpg,stim/negf.jpg,stim/6.jpg,stim/4.jpg,stim/latef.jpg,AB,2,4,0,23,23,12,,,,,,,,,,,,,,,,,,4,1,0.883012373638,,,,,,2016_Apr_12_0857,P13,PLC_L_D2S1,NHGY,60.0131891348,
stim/negf.jpg,stim/posf.jpg,stim/5.jpg,stim/2.jpg,stim/latef.jpg,CD,2,4,0,24,24,38,,,,,,,,,,,,,,,,,,2,0,0.933018387149,,,,,,2016_Apr_12_0857,P13,PLC_L_D2S1,NHGY,60.0131891348,
stim/posf.jpg,stim/negf.jpg,stim/6.jpg,stim/4.jpg,stim/latef.jpg,AB,2,4,0,25,25,16,,,,,,,,,,,,,,,,,,4,1,0.982999751129,,,,,,2016_Apr_12_0857,P13,PLC_L_D2S1,NHGY,60.0131891348,
stim/posf.jpg,stim/negf.jpg,stim/1.jpg,stim/3.jpg,stim/latef.jpg,EF,2,4,0,26,26,51,,,,,,,,,,,,,,,,,,2,0,1.13297926248,,,,,,2016_Apr_12_0857,P13,PLC_L_D2S1,NHGY,60.0131891348,
stim/negf.jpg,stim/posf.jpg,stim/1.jpg,stim/3.jpg,stim/latef.jpg,EF,2,4,0,27,27,59,,,,,,,,,,,,,,,,,,4,1,0.649777322642,,,,,,2016_Apr_12_0857,P13,PLC_L_D2S1,NHGY,60.0131891348,
stim/posf.jpg,stim/negf.jpg,stim/6.jpg,stim/4.jpg,stim/latef.jpg,AB,2,4,0,28,28,17,,,,,,,,,,,,,,,,,,2,0,1.19959653686,,,,,,2016_Apr_12_0857,P13,PLC_L_D2S1,NHGY,60.0131891348,
stim/posf.jpg,stim/negf.jpg,stim/2.jpg,stim/5.jpg,stim/latef.jpg,CD,1,2,0,29,29,21,,,,,,,,,,,,,,,,,,4,0,1.11629069966,,,,,,2016_Apr_12_0857,P13,PLC_L_D2S1,NHGY,60.0131891348,
stim/posf.jpg,stim/negf.jpg,stim/2.jpg,stim/5.jpg,stim/latef.jpg,CD,1,2,0,30,30,26,,,,,,,,,,,,,,,,,,4,0,1.06631329356,,,,,,2016_Apr_12_0857,P13,PLC_L_D2S1,NHGY,60.0131891348,
stim/negf.jpg,stim/posf.jpg,stim/4.jpg,stim/6.jpg,stim/latef.jpg,AB,1,2,0,31,31,8,,,,,,,,,,,,,,,,,,2,1,0.783088475607,,,,,,2016_Apr_12_0857,P13,PLC_L_D2S1,NHGY,60.0131891348,
stim/negf.jpg,stim/posf.jpg,stim/2.jpg,stim/5.jpg,stim/latef.jpg,CD,1,2,0,32,32,27,,,,,,,,,,,,,,,,,,4,0,0.966345440807,,,,,,2016_Apr_12_0857,P13,PLC_L_D2S1,NHGY,60.0131891348,
stim/posf.jpg,stim/negf.jpg,stim/5.jpg,stim/2.jpg,stim/latef.jpg,CD,2,4,0,33,33,32,,,,,,,,,,,,,,,,,,4,1,0.933023394649,,,,,,2016_Apr_12_0857,P13,PLC_L_D2S1,NHGY,60.0131891348,
stim/negf.jpg,stim/posf.jpg,stim/6.jpg,stim/4.jpg,stim/latef.jpg,AB,2,4,0,34,34,18,,,,,,,,,,,,,,,,,,4,1,1.21626552983,,,,,,2016_Apr_12_0857,P13,PLC_L_D2S1,NHGY,60.0131891348,
stim/negf.jpg,stim/posf.jpg,stim/2.jpg,stim/5.jpg,stim/latef.jpg,CD,1,2,0,35,35,28,,,,,,,,,,,,,,,,,,2,1,0.86639717595,,,,,,2016_Apr_12_0857,P13,PLC_L_D2S1,NHGY,60.0131891348,
stim/posf.jpg,stim/negf.jpg,stim/4.jpg,stim/6.jpg,stim/latef.jpg,AB,1,2,0,36,36,6,,,,,,,,,,,,,,,,,,2,1,0.849718026624,,,,,,2016_Apr_12_0857,P13,PLC_L_D2S1,NHGY,60.0131891348,
stim/posf.jpg,stim/negf.jpg,stim/1.jpg,stim/3.jpg,stim/latef.jpg,EF,2,4,0,37,37,52,,,,,,,,,,,,,,,,,,4,1,0.966368538464,,,,,,2016_Apr_12_0857,P13,PLC_L_D2S1,NHGY,60.0131891348,
stim/posf.jpg,stim/negf.jpg,stim/4.jpg,stim/6.jpg,stim/latef.jpg,AB,1,2,0,38,38,5,,,,,,,,,,,,,,,,,,2,1,0.783136812268,,,,,,2016_Apr_12_0857,P13,PLC_L_D2S1,NHGY,60.0131891348,
stim/negf.jpg,stim/posf.jpg,stim/3.jpg,stim/1.jpg,stim/latef.jpg,EF,1,2,0,39,39,46,,,,,,,,,,,,,,,,,,2,1,0.849686974109,,,,,,2016_Apr_12_0857,P13,PLC_L_D2S1,NHGY,60.0131891348,
stim/posf.jpg,stim/negf.jpg,stim/4.jpg,stim/6.jpg,stim/latef.jpg,AB,1,2,0,40,40,0,,,,,,,,,,,,,,,,,,2,1,0.749764862538,,,,,,2016_Apr_12_0857,P13,PLC_L_D2S1,NHGY,60.0131891348,
stim/posf.jpg,stim/negf.jpg,stim/1.jpg,stim/3.jpg,stim/latef.jpg,EF,2,4,0,41,41,54,,,,,,,,,,,,,,,,,,2,0,0.883059402032,,,,,,2016_Apr_12_0857,P13,PLC_L_D2S1,NHGY,60.0131891348,
stim/posf.jpg,stim/negf.jpg,stim/6.jpg,stim/4.jpg,stim/latef.jpg,AB,2,4,0,42,42,14,,,,,,,,,,,,,,,,,,4,1,1.41620235413,,,,,,2016_Apr_12_0857,P13,PLC_L_D2S1,NHGY,60.0131891348,
stim/posf.jpg,stim/negf.jpg,stim/1.jpg,stim/3.jpg,stim/latef.jpg,EF,2,4,0,43,43,53,,,,,,,,,,,,,,,,,,4,1,1.36625047274,,,,,,2016_Apr_12_0857,P13,PLC_L_D2S1,NHGY,60.0131891348,
stim/posf.jpg,stim/negf.jpg,stim/6.jpg,stim/4.jpg,stim/latef.jpg,AB,2,4,0,44,44,13,,,,,,,,,,,,,,,,,,4,1,0.966360060301,,,,,,2016_Apr_12_0857,P13,PLC_L_D2S1,NHGY,60.0131891348,
stim/posf.jpg,stim/negf.jpg,stim/5.jpg,stim/2.jpg,stim/latef.jpg,CD,2,4,0,45,45,35,,,,,,,,,,,,,,,,,,2,0,1.26625518551,,,,,,2016_Apr_12_0857,P13,PLC_L_D2S1,NHGY,60.0131891348,
stim/posf.jpg,stim/negf.jpg,stim/4.jpg,stim/6.jpg,stim/latef.jpg,AB,1,2,0,46,46,2,,,,,,,,,,,,,,,,,,2,1,0.899607120274,,,,,,2016_Apr_12_0857,P13,PLC_L_D2S1,NHGY,60.0131891348,
stim/posf.jpg,stim/negf.jpg,stim/3.jpg,stim/1.jpg,stim/latef.jpg,EF,1,2,0,47,47,45,,,,,,,,,,,,,,,,,,4,0,0.933011668377,,,,,,2016_Apr_12_0857,P13,PLC_L_D2S1,NHGY,60.0131891348,
stim/posf.jpg,stim/negf.jpg,stim/6.jpg,stim/4.jpg,stim/latef.jpg,AB,2,4,0,48,48,15,,,,,,,,,,,,,,,,,,4,1,0.86638403615,,,,,,2016_Apr_12_0857,P13,PLC_L_D2S1,NHGY,60.0131891348,
stim/posf.jpg,stim/negf.jpg,stim/5.jpg,stim/2.jpg,stim/latef.jpg,CD,2,4,0,49,49,30,,,,,,,,,,,,,,,,,,4,1,0.883043708858,,,,,,2016_Apr_12_0857,P13,PLC_L_D2S1,NHGY,60.0131891348,
stim/posf.jpg,stim/negf.jpg,stim/5.jpg,stim/2.jpg,stim/latef.jpg,CD,2,4,0,50,50,34,,,,,,,,,,,,,,,,,,2,0,0.833057686249,,,,,,2016_Apr_12_0857,P13,PLC_L_D2S1,NHGY,60.0131891348,
stim/posf.jpg,stim/negf.jpg,stim/5.jpg,stim/2.jpg,stim/latef.jpg,CD,2,4,0,51,51,33,,,,,,,,,,,,,,,,,,4,1,0.649795157161,,,,,,2016_Apr_12_0857,P13,PLC_L_D2S1,NHGY,60.0131891348,
stim/posf.jpg,stim/negf.jpg,stim/1.jpg,stim/3.jpg,stim/latef.jpg,EF,2,4,0,52,52,50,,,,,,,,,,,,,,,,,,2,0,1.03299752106,,,,,,2016_Apr_12_0857,P13,PLC_L_D2S1,NHGY,60.0131891348,
stim/posf.jpg,stim/negf.jpg,stim/3.jpg,stim/1.jpg,stim/latef.jpg,EF,1,2,0,53,53,44,,,,,,,,,,,,,,,,,,2,1,0.683060102782,,,,,,2016_Apr_12_0857,P13,PLC_L_D2S1,NHGY,60.0131891348,
stim/posf.jpg,stim/negf.jpg,stim/6.jpg,stim/4.jpg,stim/latef.jpg,AB,2,4,0,54,54,10,,,,,,,,,,,,,,,,,,4,1,1.38288249743,,,,,,2016_Apr_12_0857,P13,PLC_L_D2S1,NHGY,60.0131891348,
stim/posf.jpg,stim/negf.jpg,stim/3.jpg,stim/1.jpg,stim/latef.jpg,EF,1,2,0,55,55,42,,,,,,,,,,,,,,,,,,4,0,1.04964305848,,,,,,2016_Apr_12_0857,P13,PLC_L_D2S1,NHGY,60.0131891348,
stim/negf.jpg,stim/posf.jpg,stim/6.jpg,stim/4.jpg,stim/latef.jpg,AB,2,4,0,56,56,19,,,,,,,,,,,,,,,,,,4,1,0.899712512359,,,,,,2016_Apr_12_0857,P13,PLC_L_D2S1,NHGY,60.0131891348,
stim/posf.jpg,stim/negf.jpg,stim/5.jpg,stim/2.jpg,stim/latef.jpg,CD,2,4,0,57,57,36,,,,,,,,,,,,,,,,,,4,1,0.749772113639,,,,,,2016_Apr_12_0857,P13,PLC_L_D2S1,NHGY,60.0131891348,
stim/posf.jpg,stim/negf.jpg,stim/3.jpg,stim/1.jpg,stim/latef.jpg,EF,1,2,0,58,58,41,,,,,,,,,,,,,,,,,,2,1,0.833063141868,,,,,,2016_Apr_12_0857,P13,PLC_L_D2S1,NHGY,60.0131891348,
stim/posf.jpg,stim/negf.jpg,stim/2.jpg,stim/5.jpg,stim/latef.jpg,CD,1,2,0,59,59,20,,,,,,,,,,,,,,,,,,2,1,1.01634484382,,,,,,2016_Apr_12_0857,P13,PLC_L_D2S1,NHGY,60.0131891348,
,,,,,,,,,,,,,,,,,,,,,,,,,,,,,,,,0.9984375,0.79296875,1,0,0,2016_Apr_12_0857,P13,PLC_L_D2S1,NHGY,60.0131891348,
stim/posf.jpg,stim/negf.jpg,stim/6.jpg,stim/4.jpg,stim/latef.jpg,AB,2,4,,,,,0,0,0,16,,,,,,,,,,,,,,4,1,1.34957332341,,,,,,2016_Apr_12_0857,P13,PLC_L_D2S1,NHGY,60.0131891348,
stim/posf.jpg,stim/negf.jpg,stim/2.jpg,stim/5.jpg,stim/latef.jpg,CD,1,2,,,,,0,1,1,21,,,,,,,,,,,,,,2,1,0.96635987985,,,,,,2016_Apr_12_0857,P13,PLC_L_D2S1,NHGY,60.0131891348,
stim/negf.jpg,stim/posf.jpg,stim/1.jpg,stim/3.jpg,stim/latef.jpg,EF,2,4,,,,,0,2,2,58,,,,,,,,,,,,,,4,1,1.21627035387,,,,,,2016_Apr_12_0857,P13,PLC_L_D2S1,NHGY,60.0131891348,
stim/negf.jpg,stim/posf.jpg,stim/3.jpg,stim/1.jpg,stim/latef.jpg,EF,1,2,,,,,0,3,3,47,,,,,,,,,,,,,,2,1,0.683127314559,,,,,,2016_Apr_12_0857,P13,PLC_L_D2S1,NHGY,60.0131891348,
stim/posf.jpg,stim/negf.jpg,stim/4.jpg,stim/6.jpg,stim/latef.jpg,AB,1,2,,,,,0,4,4,1,,,,,,,,,,,,,,2,1,0.816370915899,,,,,,2016_Apr_12_0857,P13,PLC_L_D2S1,NHGY,60.0131891348,
stim/posf.jpg,stim/negf.jpg,stim/5.jpg,stim/2.jpg,stim/latef.jpg,CD,2,4,,,,,0,5,5,34,,,,,,,,,,,,,,4,1,0.966366330954,,,,,,2016_Apr_12_0857,P13,PLC_L_D2S1,NHGY,60.0131891348,
stim/negf.jpg,stim/posf.jpg,stim/5.jpg,stim/2.jpg,stim/latef.jpg,CD,2,4,,,,,0,6,6,38,,,,,,,,,,,,,,4,1,0.849698694366,,,,,,2016_Apr_12_0857,P13,PLC_L_D2S1,NHGY,60.0131891348,
stim/posf.jpg,stim/negf.jpg,stim/4.jpg,stim/6.jpg,stim/latef.jpg,AB,1,2,,,,,0,7,7,6,,,,,,,,,,,,,,2,1,0.649780291052,,,,,,2016_Apr_12_0857,P13,PLC_L_D2S1,NHGY,60.0131891348,
stim/posf.jpg,stim/negf.jpg,stim/5.jpg,stim/2.jpg,stim/latef.jpg,CD,2,4,,,,,0,8,8,30,,,,,,,,,,,,,,4,1,1.04970010789,,,,,,2016_Apr_12_0857,P13,PLC_L_D2S1,NHGY,60.0131891348,
stim/posf.jpg,stim/negf.jpg,stim/6.jpg,stim/4.jpg,stim/latef.jpg,AB,2,4,,,,,0,9,9,15,,,,,,,,,,,,,,4,1,1.04965149755,,,,,,2016_Apr_12_0857,P13,PLC_L_D2S1,NHGY,60.0131891348,
stim/posf.jpg,stim/negf.jpg,stim/4.jpg,stim/6.jpg,stim/latef.jpg,AB,1,2,,,,,0,10,10,0,,,,,,,,,,,,,,2,1,0.866368974553,,,,,,2016_Apr_12_0857,P13,PLC_L_D2S1,NHGY,60.0131891348,
stim/posf.jpg,stim/negf.jpg,stim/4.jpg,stim/6.jpg,stim/latef.jpg,AB,1,2,,,,,0,11,11,3,,,,,,,,,,,,,,2,1,0.966356069338,,,,,,2016_Apr_12_0857,P13,PLC_L_D2S1,NHGY,60.0131891348,
stim/posf.jpg,stim/negf.jpg,stim/2.jpg,stim/5.jpg,stim/latef.jpg,CD,1,2,,,,,0,12,12,20,,,,,,,,,,,,,,2,1,1.04964409608,,,,,,2016_Apr_12_0857,P13,PLC_L_D2S1,NHGY,60.0131891348,
stim/posf.jpg,stim/negf.jpg,stim/2.jpg,stim/5.jpg,stim/latef.jpg,CD,1,2,,,,,0,13,13,25,,,,,,,,,,,,,,2,1,0.91634825433,,,,,,2016_Apr_12_0857,P13,PLC_L_D2S1,NHGY,60.0131891348,
stim/posf.jpg,stim/negf.jpg,stim/2.jpg,stim/5.jpg,stim/latef.jpg,CD,1,2,,,,,0,14,14,23,,,,,,,,,,,,,,2,1,0.833075623024,,,,,,2016_Apr_12_0857,P13,PLC_L_D2S1,NHGY,60.0131891348,
stim/posf.jpg,stim/negf.jpg,stim/5.jpg,stim/2.jpg,stim/latef.jpg,CD,2,4,,,,,0,15,15,36,,,,,,,,,,,,,,4,1,0.816397469182,,,,,,2016_Apr_12_0857,P13,PLC_L_D2S1,NHGY,60.0131891348,
stim/posf.jpg,stim/negf.jpg,stim/6.jpg,stim/4.jpg,stim/latef.jpg,AB,2,4,,,,,0,16,16,11,,,,,,,,,,,,,,4,1,0.833073421528,,,,,,2016_Apr_12_0857,P13,PLC_L_D2S1,NHGY,60.0131891348,
stim/negf.jpg,stim/posf.jpg,stim/1.jpg,stim/3.jpg,stim/latef.jpg,EF,2,4,,,,,0,17,17,59,,,,,,,,,,,,,,4,1,1.29958352337,,,,,,2016_Apr_12_0857,P13,PLC_L_D2S1,NHGY,60.0131891348,
stim/posf.jpg,stim/negf.jpg,stim/3.jpg,stim/1.jpg,stim/latef.jpg,EF,1,2,,,,,0,18,18,43,,,,,,,,,,,,,,4,0,0.916365433212,,,,,,2016_Apr_12_0857,P13,PLC_L_D2S1,NHGY,60.0131891348,
stim/posf.jpg,stim/negf.jpg,stim/6.jpg,stim/4.jpg,stim/latef.jpg,AB,2,4,,,,,0,19,19,12,,,,,,,,,,,,,,4,1,0.916374317389,,,,,,2016_Apr_12_0857,P13,PLC_L_D2S1,NHGY,60.0131891348,
stim/posf.jpg,stim/negf.jpg,stim/6.jpg,stim/4.jpg,stim/latef.jpg,AB,2,4,,,,,0,20,20,17,,,,,,,,,,,,,,4,1,0.816408389442,,,,,,2016_Apr_12_0857,P13,PLC_L_D2S1,NHGY,60.0131891348,
stim/posf.jpg,stim/negf.jpg,stim/6.jpg,stim/4.jpg,stim/latef.jpg,AB,2,4,,,,,0,21,21,13,,,,,,,,,,,,,,4,1,1.36622392247,,,,,,2016_Apr_12_0857,P13,PLC_L_D2S1,NHGY,60.0131891348,
stim/posf.jpg,stim/negf.jpg,stim/1.jpg,stim/3.jpg,stim/latef.jpg,EF,2,4,,,,,0,22,22,55,,,,,,,,,,,,,,2,0,1.08298923989,,,,,,2016_Apr_12_0857,P13,PLC_L_D2S1,NHGY,60.0131891348,
stim/posf.jpg,stim/negf.jpg,stim/5.jpg,stim/2.jpg,stim/latef.jpg,CD,2,4,,,,,0,23,23,35,,,,,,,,,,,,,,4,1,1.01634763178,,,,,,2016_Apr_12_0857,P13,PLC_L_D2S1,NHGY,60.0131891348,
stim/posf.jpg,stim/negf.jpg,stim/3.jpg,stim/1.jpg,stim/latef.jpg,EF,1,2,,,,,0,24,24,41,,,,,,,,,,,,,,2,1,1.26625189229,,,,,,2016_Apr_12_0857,P13,PLC_L_D2S1,NHGY,60.0131891348,
stim/posf.jpg,stim/negf.jpg,stim/4.jpg,stim/6.jpg,stim/latef.jpg,AB,1,2,,,,,0,25,25,5,,,,,,,,,,,,,,2,1,0.833064729832,,,,,,2016_Apr_12_0857,P13,PLC_L_D2S1,NHGY,60.0131891348,
stim/posf.jpg,stim/negf.jpg,stim/4.jpg,stim/6.jpg,stim/latef.jpg,AB,1,2,,,,,0,26,26,4,,,,,,,,,,,,,,2,1,0.799654503554,,,,,,2016_Apr_12_0857,P13,PLC_L_D2S1,NHGY,60.0131891348,
stim/negf.jpg,stim/posf.jpg,stim/6.jpg,stim/4.jpg,stim/latef.jpg,AB,2,4,,,,,0,27,27,19,,,,,,,,,,,,,,4,1,0.866382391044,,,,,,2016_Apr_12_0857,P13,PLC_L_D2S1,NHGY,60.0131891348,
stim/posf.jpg,stim/negf.jpg,stim/3.jpg,stim/1.jpg,stim/latef.jpg,EF,1,2,,,,,0,28,28,40,,,,,,,,,,,,,,4,0,1.56614899042,,,,,,2016_Apr_12_0857,P13,PLC_L_D2S1,NHGY,60.0131891348,
stim/posf.jpg,stim/negf.jpg,stim/1.jpg,stim/3.jpg,stim/latef.jpg,EF,2,4,,,,,0,29,29,54,,,,,,,,,,,,,,4,1,0.666445491559,,,,,,2016_Apr_12_0857,P13,PLC_L_D2S1,NHGY,60.0131891348,
stim/negf.jpg,stim/posf.jpg,stim/1.jpg,stim/3.jpg,stim/latef.jpg,EF,2,4,,,,,0,30,30,57,,,,,,,,,,,,,,4,1,0.749742125782,,,,,,2016_Apr_12_0857,P13,PLC_L_D2S1,NHGY,60.0131891348,
stim/negf.jpg,stim/posf.jpg,stim/4.jpg,stim/6.jpg,stim/latef.jpg,AB,1,2,,,,,0,31,31,9,,,,,,,,,,,,,,2,1,0.599805820279,,,,,,2016_Apr_12_0857,P13,PLC_L_D2S1,NHGY,60.0131891348,
stim/negf.jpg,stim/posf.jpg,stim/4.jpg,stim/6.jpg,stim/latef.jpg,AB,1,2,,,,,0,32,32,8,,,,,,,,,,,,,,2,1,0.599811612738,,,,,,2016_Apr_12_0857,P13,PLC_L_D2S1,NHGY,60.0131891348,
stim/negf.jpg,stim/posf.jpg,stim/1.jpg,stim/3.jpg,stim/latef.jpg,EF,2,4,,,,,0,33,33,56,,,,,,,,,,,,,,4,1,1.08293566415,,,,,,2016_Apr_12_0857,P13,PLC_L_D2S1,NHGY,60.0131891348,
stim/posf.jpg,stim/negf.jpg,stim/2.jpg,stim/5.jpg,stim/latef.jpg,CD,1,2,,,,,0,34,34,24,,,,,,,,,,,,,,2,1,0.933021617212,,,,,,2016_Apr_12_0857,P13,PLC_L_D2S1,NHGY,60.0131891348,
stim/posf.jpg,stim/negf.jpg,stim/6.jpg,stim/4.jpg,stim/latef.jpg,AB,2,4,,,,,0,35,35,10,,,,,,,,,,,,,,4,1,0.733087514709,,,,,,2016_Apr_12_0857,P13,PLC_L_D2S1,NHGY,60.0131891348,
stim/negf.jpg,stim/posf.jpg,stim/2.jpg,stim/5.jpg,stim/latef.jpg,CD,1,2,,,,,0,36,36,29,,,,,,,,,,,,,,2,1,0.799741381423,,,,,,2016_Apr_12_0857,P13,PLC_L_D2S1,NHGY,60.0131891348,
stim/posf.jpg,stim/negf.jpg,stim/3.jpg,stim/1.jpg,stim/latef.jpg,EF,1,2,,,,,0,37,37,42,,,,,,,,,,,,,,2,1,0.99966659975,,,,,,2016_Apr_12_0857,P13,PLC_L_D2S1,NHGY,60.0131891348,
stim/posf.jpg,stim/negf.jpg,stim/4.jpg,stim/6.jpg,stim/latef.jpg,AB,1,2,,,,,0,38,38,7,,,,,,,,,,,,,,2,1,0.833057538882,,,,,,2016_Apr_12_0857,P13,PLC_L_D2S1,NHGY,60.0131891348,
stim/posf.jpg,stim/negf.jpg,stim/6.jpg,stim/4.jpg,stim/latef.jpg,AB,2,4,,,,,0,39,39,14,,,,,,,,,,,,,,4,1,0.849737993466,,,,,,2016_Apr_12_0857,P13,PLC_L_D2S1,NHGY,60.0131891348,
stim/posf.jpg,stim/negf.jpg,stim/2.jpg,stim/5.jpg,stim/latef.jpg,CD,1,2,,,,,0,40,40,26,,,,,,,,,,,,,,2,1,0.849709563498,,,,,,2016_Apr_12_0857,P13,PLC_L_D2S1,NHGY,60.0131891348,
stim/negf.jpg,stim/posf.jpg,stim/3.jpg,stim/1.jpg,stim/latef.jpg,EF,1,2,,,,,0,41,41,48,,,,,,,,,,,,,,2,1,1.08298584441,,,,,,2016_Apr_12_0857,P13,PLC_L_D2S1,NHGY,60.0131891348,
stim/posf.jpg,stim/negf.jpg,stim/1.jpg,stim/3.jpg,stim/latef.jpg,EF,2,4,,,,,0,42,42,53,,,,,,,,,,,,,,4,1,1.06631847249,,,,,,2016_Apr_12_0857,P13,PLC_L_D2S1,NHGY,60.0131891348,
stim/posf.jpg,stim/negf.jpg,stim/5.jpg,stim/2.jpg,stim/latef.jpg,CD,2,4,,,,,0,43,43,32,,,,,,,,,,,,,,4,1,0.933023160063,,,,,,2016_Apr_12_0857,P13,PLC_L_D2S1,NHGY,60.0131891348,
stim/posf.jpg,stim/negf.jpg,stim/3.jpg,stim/1.jpg,stim/latef.jpg,EF,1,2,,,,,0,44,44,44,,,,,,,,,,,,,,2,1,0.849723106304,,,,,,2016_Apr_12_0857,P13,PLC_L_D2S1,NHGY,60.0131891348,
stim/posf.jpg,stim/negf.jpg,stim/2.jpg,stim/5.jpg,stim/latef.jpg,CD,1,2,,,,,0,45,45,22,,,,,,,,,,,,,,2,1,0.883058180984,,,,,,2016_Apr_12_0857,P13,PLC_L_D2S1,NHGY,60.0131891348,
stim/posf.jpg,stim/negf.jpg,stim/5.jpg,stim/2.jpg,stim/latef.jpg,CD,2,4,,,,,0,46,46,31,,,,,,,,,,,,,,4,1,0.8497052778,,,,,,2016_Apr_12_0857,P13,PLC_L_D2S1,NHGY,60.0131891348,
stim/posf.jpg,stim/negf.jpg,stim/1.jpg,stim/3.jpg,stim/latef.jpg,EF,2,4,,,,,0,47,47,52,,,,,,,,,,,,,,4,1,1.1496234736,,,,,,2016_Apr_12_0857,P13,PLC_L_D2S1,NHGY,60.0131891348,
stim/negf.jpg,stim/posf.jpg,stim/6.jpg,stim/4.jpg,stim/latef.jpg,AB,2,4,,,,,0,48,48,18,,,,,,,,,,,,,,4,1,0.799733576941,,,,,,2016_Apr_12_0857,P13,PLC_L_D2S1,NHGY,60.0131891348,
stim/posf.jpg,stim/negf.jpg,stim/1.jpg,stim/3.jpg,stim/latef.jpg,EF,2,4,,,,,0,49,49,51,,,,,,,,,,,,,,4,1,1.08297495724,,,,,,2016_Apr_12_0857,P13,PLC_L_D2S1,NHGY,60.0131891348,
stim/negf.jpg,stim/posf.jpg,stim/2.jpg,stim/5.jpg,stim/latef.jpg,CD,1,2,,,,,0,50,50,28,,,,,,,,,,,,,,2,1,0.716480184661,,,,,,2016_Apr_12_0857,P13,PLC_L_D2S1,NHGY,60.0131891348,
stim/posf.jpg,stim/negf.jpg,stim/3.jpg,stim/1.jpg,stim/latef.jpg,EF,1,2,,,,,0,51,51,45,,,,,,,,,,,,,,2,1,1.19961136687,,,,,,2016_Apr_12_0857,P13,PLC_L_D2S1,NHGY,60.0131891348,
stim/posf.jpg,stim/negf.jpg,stim/4.jpg,stim/6.jpg,stim/latef.jpg,AB,1,2,,,,,0,52,52,2,,,,,,,,,,,,,,2,1,0.599814996184,,,,,,2016_Apr_12_0857,P13,PLC_L_D2S1,NHGY,60.0131891348,
stim/negf.jpg,stim/posf.jpg,stim/2.jpg,stim/5.jpg,stim/latef.jpg,CD,1,2,,,,,0,53,53,27,,,,,,,,,,,,,,2,1,0.666446941177,,,,,,2016_Apr_12_0857,P13,PLC_L_D2S1,NHGY,60.0131891348,
stim/negf.jpg,stim/posf.jpg,stim/3.jpg,stim/1.jpg,stim/latef.jpg,EF,1,2,,,,,0,54,54,46,,,,,,,,,,,,,,4,0,0.666483774121,,,,,,2016_Apr_12_0857,P13,PLC_L_D2S1,NHGY,60.0131891348,
stim/posf.jpg,stim/negf.jpg,stim/1.jpg,stim/3.jpg,stim/latef.jpg,EF,2,4,,,,,0,55,55,50,,,,,,,,,,,,,,4,1,0.999691333491,,,,,,2016_Apr_12_0857,P13,PLC_L_D2S1,NHGY,60.0131891348,
stim/negf.jpg,stim/posf.jpg,stim/5.jpg,stim/2.jpg,stim/latef.jpg,CD,2,4,,,,,0,56,56,37,,,,,,,,,,,,,,4,1,0.833044161488,,,,,,2016_Apr_12_0857,P13,PLC_L_D2S1,NHGY,60.0131891348,
stim/negf.jpg,stim/posf.jpg,stim/3.jpg,stim/1.jpg,stim/latef.jpg,EF,1,2,,,,,0,57,57,49,,,,,,,,,,,,,,2,1,0.933014775133,,,,,,2016_Apr_12_0857,P13,PLC_L_D2S1,NHGY,60.0131891348,
stim/negf.jpg,stim/posf.jpg,stim/5.jpg,stim/2.jpg,stim/latef.jpg,CD,2,4,,,,,0,58,58,39,,,,,,,,,,,,,,4,1,0.7330870305,,,,,,2016_Apr_12_0857,P13,PLC_L_D2S1,NHGY,60.0131891348,
stim/posf.jpg,stim/negf.jpg,stim/5.jpg,stim/2.jpg,stim/latef.jpg,CD,2,4,,,,,0,59,59,33,,,,,,,,,,,,,,4,1,0.783072096721,,,,,,2016_Apr_12_0857,P13,PLC_L_D2S1,NHGY,60.0131891348,
,,,,,,,,,,,,,,,,,,,,,,,,,,,,,,,,0.9984375,0.79296875,1,0,0,2016_Apr_12_0857,P13,PLC_L_D2S1,NHGY,60.0131891348,
stim/negf.jpg,stim/posf.jpg,stim/4.jpg,stim/6.jpg,stim/latef.jpg,AB,1,2,,,,,,,,,0,0,0,8,,,,,,,,,,2,1,0.816443866001,,,,,,2016_Apr_12_0857,P13,PLC_L_D2S1,NHGY,60.0131891348,
stim/posf.jpg,stim/negf.jpg,stim/3.jpg,stim/1.jpg,stim/latef.jpg,EF,1,2,,,,,,,,,0,1,1,42,,,,,,,,,,2,1,0.883050863718,,,,,,2016_Apr_12_0857,P13,PLC_L_D2S1,NHGY,60.0131891348,
stim/posf.jpg,stim/negf.jpg,stim/4.jpg,stim/6.jpg,stim/latef.jpg,AB,1,2,,,,,,,,,0,2,2,2,,,,,,,,,,2,1,0.583135537085,,,,,,2016_Apr_12_0857,P13,PLC_L_D2S1,NHGY,60.0131891348,
stim/posf.jpg,stim/negf.jpg,stim/4.jpg,stim/6.jpg,stim/latef.jpg,AB,1,2,,,,,,,,,0,3,3,5,,,,,,,,,,2,1,0.549797039861,,,,,,2016_Apr_12_0857,P13,PLC_L_D2S1,NHGY,60.0131891348,
stim/negf.jpg,stim/posf.jpg,stim/3.jpg,stim/1.jpg,stim/latef.jpg,EF,1,2,,,,,,,,,0,4,4,47,,,,,,,,,,2,1,0.783108818388,,,,,,2016_Apr_12_0857,P13,PLC_L_D2S1,NHGY,60.0131891348,
stim/posf.jpg,stim/negf.jpg,stim/4.jpg,stim/6.jpg,stim/latef.jpg,AB,1,2,,,,,,,,,0,5,5,6,,,,,,,,,,2,1,0.59978797373,,,,,,2016_Apr_12_0857,P13,PLC_L_D2S1,NHGY,60.0131891348,
stim/posf.jpg,stim/negf.jpg,stim/1.jpg,stim/3.jpg,stim/latef.jpg,EF,2,4,,,,,,,,,0,6,6,55,,,,,,,,,,4,1,1.03299778272,,,,,,2016_Apr_12_0857,P13,PLC_L_D2S1,NHGY,60.0131891348,
stim/posf.jpg,stim/negf.jpg,stim/1.jpg,stim/3.jpg,stim/latef.jpg,EF,2,4,,,,,,,,,0,7,7,51,,,,,,,,,,4,1,0.633107764257,,,,,,2016_Apr_12_0857,P13,PLC_L_D2S1,NHGY,60.0131891348,
stim/posf.jpg,stim/negf.jpg,stim/1.jpg,stim/3.jpg,stim/latef.jpg,EF,2,4,,,,,,,,,0,8,8,50,,,,,,,,,,4,1,0.566470026804,,,,,,2016_Apr_12_0857,P13,PLC_L_D2S1,NHGY,60.0131891348,
stim/negf.jpg,stim/posf.jpg,stim/6.jpg,stim/4.jpg,stim/latef.jpg,AB,2,4,,,,,,,,,0,9,9,18,,,,,,,,,,4,1,0.733104967275,,,,,,2016_Apr_12_0857,P13,PLC_L_D2S1,NHGY,60.0131891348,
stim/negf.jpg,stim/posf.jpg,stim/3.jpg,stim/1.jpg,stim/latef.jpg,EF,1,2,,,,,,,,,0,10,10,48,,,,,,,,,,2,1,0.566481620746,,,,,,2016_Apr_12_0857,P13,PLC_L_D2S1,NHGY,60.0131891348,
stim/posf.jpg,stim/negf.jpg,stim/6.jpg,stim/4.jpg,stim/latef.jpg,AB,2,4,,,,,,,,,0,11,11,13,,,,,,,,,,4,1,0.633177974519,,,,,,2016_Apr_12_0857,P13,PLC_L_D2S1,NHGY,60.0131891348,
stim/posf.jpg,stim/negf.jpg,stim/5.jpg,stim/2.jpg,stim/latef.jpg,CD,2,4,,,,,,,,,0,12,12,36,,,,,,,,,,4,1,0.816351938527,,,,,,2016_Apr_12_0857,P13,PLC_L_D2S1,NHGY,60.0131891348,
stim/negf.jpg,stim/posf.jpg,stim/1.jpg,stim/3.jpg,stim/latef.jpg,EF,2,4,,,,,,,,,0,13,13,59,,,,,,,,,,2,0,0.749734026564,,,,,,2016_Apr_12_0857,P13,PLC_L_D2S1,NHGY,60.0131891348,
stim/posf.jpg,stim/negf.jpg,stim/6.jpg,stim/4.jpg,stim/latef.jpg,AB,2,4,,,,,,,,,0,14,14,10,,,,,,,,,,4,1,0.616469372671,,,,,,2016_Apr_12_0857,P13,PLC_L_D2S1,NHGY,60.0131891348,
stim/posf.jpg,stim/negf.jpg,stim/6.jpg,stim/4.jpg,stim/latef.jpg,AB,2,4,,,,,,,,,0,15,15,11,,,,,,,,,,4,1,0.683111684542,,,,,,2016_Apr_12_0857,P13,PLC_L_D2S1,NHGY,60.0131891348,
stim/negf.jpg,stim/posf.jpg,stim/1.jpg,stim/3.jpg,stim/latef.jpg,EF,2,4,,,,,,,,,0,16,16,58,,,,,,,,,,2,0,0.883033083334,,,,,,2016_Apr_12_0857,P13,PLC_L_D2S1,NHGY,60.0131891348,
stim/posf.jpg,stim/negf.jpg,stim/4.jpg,stim/6.jpg,stim/latef.jpg,AB,1,2,,,,,,,,,0,17,17,7,,,,,,,,,,2,1,0.799728807035,,,,,,2016_Apr_12_0857,P13,PLC_L_D2S1,NHGY,60.0131891348,
stim/posf.jpg,stim/negf.jpg,stim/3.jpg,stim/1.jpg,stim/latef.jpg,EF,1,2,,,,,,,,,0,18,18,41,,,,,,,,,,4,0,1.08298465946,,,,,,2016_Apr_12_0857,P13,PLC_L_D2S1,NHGY,60.0131891348,
stim/posf.jpg,stim/negf.jpg,stim/6.jpg,stim/4.jpg,stim/latef.jpg,AB,2,4,,,,,,,,,0,19,19,17,,,,,,,,,,4,1,0.916334549118,,,,,,2016_Apr_12_0857,P13,PLC_L_D2S1,NHGY,60.0131891348,
stim/posf.jpg,stim/negf.jpg,stim/6.jpg,stim/4.jpg,stim/latef.jpg,AB,2,4,,,,,,,,,0,20,20,14,,,,,,,,,,4,1,0.999707962,,,,,,2016_Apr_12_0857,P13,PLC_L_D2S1,NHGY,60.0131891348,
stim/posf.jpg,stim/negf.jpg,stim/4.jpg,stim/6.jpg,stim/latef.jpg,AB,1,2,,,,,,,,,0,21,21,0,,,,,,,,,,2,1,0.616443664498,,,,,,2016_Apr_12_0857,P13,PLC_L_D2S1,NHGY,60.0131891348,
stim/posf.jpg,stim/negf.jpg,stim/4.jpg,stim/6.jpg,stim/latef.jpg,AB,1,2,,,,,,,,,0,22,22,3,,,,,,,,,,2,1,0.633129481468,,,,,,2016_Apr_12_0857,P13,PLC_L_D2S1,NHGY,60.0131891348,
stim/posf.jpg,stim/negf.jpg,stim/2.jpg,stim/5.jpg,stim/latef.jpg,CD,1,2,,,,,,,,,0,23,23,23,,,,,,,,,,2,1,0.916333066417,,,,,,2016_Apr_12_0857,P13,PLC_L_D2S1,NHGY,60.0131891348,
stim/posf.jpg,stim/negf.jpg,stim/2.jpg,stim/5.jpg,stim/latef.jpg,CD,1,2,,,,,,,,,0,24,24,20,,,,,,,,,,2,1,0.599773531679,,,,,,2016_Apr_12_0857,P13,PLC_L_D2S1,NHGY,60.0131891348,
stim/posf.jpg,stim/negf.jpg,stim/5.jpg,stim/2.jpg,stim/latef.jpg,CD,2,4,,,,,,,,,0,25,25,32,,,,,,,,,,4,1,0.766434547239,,,,,,2016_Apr_12_0857,P13,PLC_L_D2S1,NHGY,60.0131891348,
stim/posf.jpg,stim/negf.jpg,stim/4.jpg,stim/6.jpg,stim/latef.jpg,AB,1,2,,,,,,,,,0,26,26,1,,,,,,,,,,2,1,0.56649240266,,,,,,2016_Apr_12_0857,P13,PLC_L_D2S1,NHGY,60.0131891348,
stim/posf.jpg,stim/negf.jpg,stim/4.jpg,stim/6.jpg,stim/latef.jpg,AB,1,2,,,,,,,,,0,27,27,4,,,,,,,,,,2,1,0.766398941357,,,,,,2016_Apr_12_0857,P13,PLC_L_D2S1,NHGY,60.0131891348,
stim/posf.jpg,stim/negf.jpg,stim/6.jpg,stim/4.jpg,stim/latef.jpg,AB,2,4,,,,,,,,,0,28,28,12,,,,,,,,,,4,1,1.11629641392,,,,,,2016_Apr_12_0857,P13,PLC_L_D2S1,NHGY,60.0131891348,
stim/negf.jpg,stim/posf.jpg,stim/5.jpg,stim/2.jpg,stim/latef.jpg,CD,2,4,,,,,,,,,0,29,29,38,,,,,,,,,,4,1,0.849730020564,,,,,,2016_Apr_12_0857,P13,PLC_L_D2S1,NHGY,60.0131891348,
stim/posf.jpg,stim/negf.jpg,stim/5.jpg,stim/2.jpg,stim/latef.jpg,CD,2,4,,,,,,,,,0,30,30,31,,,,,,,,,,4,1,0.616451228379,,,,,,2016_Apr_12_0857,P13,PLC_L_D2S1,NHGY,60.0131891348,
stim/posf.jpg,stim/negf.jpg,stim/3.jpg,stim/1.jpg,stim/latef.jpg,EF,1,2,,,,,,,,,0,31,31,44,,,,,,,,,,2,1,0.999676148586,,,,,,2016_Apr_12_0857,P13,PLC_L_D2S1,NHGY,60.0131891348,
stim/posf.jpg,stim/negf.jpg,stim/3.jpg,stim/1.jpg,stim/latef.jpg,EF,1,2,,,,,,,,,0,32,32,40,,,,,,,,,,2,1,0.783079792933,,,,,,2016_Apr_12_0857,P13,PLC_L_D2S1,NHGY,60.0131891348,
stim/posf.jpg,stim/negf.jpg,stim/5.jpg,stim/2.jpg,stim/latef.jpg,CD,2,4,,,,,,,,,0,33,33,35,,,,,,,,,,4,1,0.699785736144,,,,,,2016_Apr_12_0857,P13,PLC_L_D2S1,NHGY,60.0131891348,
stim/posf.jpg,stim/negf.jpg,stim/2.jpg,stim/5.jpg,stim/latef.jpg,CD,1,2,,,,,,,,,0,34,34,26,,,,,,,,,,2,1,0.649825403664,,,,,,2016_Apr_12_0857,P13,PLC_L_D2S1,NHGY,60.0131891348,
stim/posf.jpg,stim/negf.jpg,stim/2.jpg,stim/5.jpg,stim/latef.jpg,CD,1,2,,,,,,,,,0,35,35,24,,,,,,,,,,2,1,0.583132812283,,,,,,2016_Apr_12_0857,P13,PLC_L_D2S1,NHGY,60.0131891348,
stim/negf.jpg,stim/posf.jpg,stim/4.jpg,stim/6.jpg,stim/latef.jpg,AB,1,2,,,,,,,,,0,36,36,9,,,,,,,,,,2,1,0.666458462938,,,,,,2016_Apr_12_0857,P13,PLC_L_D2S1,NHGY,60.0131891348,
stim/posf.jpg,stim/negf.jpg,stim/3.jpg,stim/1.jpg,stim/latef.jpg,EF,1,2,,,,,,,,,0,37,37,43,,,,,,,,,,2,1,0.88303852993,,,,,,2016_Apr_12_0857,P13,PLC_L_D2S1,NHGY,60.0131891348,
stim/posf.jpg,stim/negf.jpg,stim/2.jpg,stim/5.jpg,stim/latef.jpg,CD,1,2,,,,,,,,,0,38,38,22,,,,,,,,,,2,1,0.816414082654,,,,,,2016_Apr_12_0857,P13,PLC_L_D2S1,NHGY,60.0131891348,
stim/posf.jpg,stim/negf.jpg,stim/6.jpg,stim/4.jpg,stim/latef.jpg,AB,2,4,,,,,,,,,0,39,39,16,,,,,,,,,,4,1,0.816397487227,,,,,,2016_Apr_12_0857,P13,PLC_L_D2S1,NHGY,60.0131891348,
stim/negf.jpg,stim/posf.jpg,stim/3.jpg,stim/1.jpg,stim/latef.jpg,EF,1,2,,,,,,,,,0,40,40,46,,,,,,,,,,2,1,0.933026194638,,,,,,2016_Apr_12_0857,P13,PLC_L_D2S1,NHGY,60.0131891348,
stim/negf.jpg,stim/posf.jpg,stim/5.jpg,stim/2.jpg,stim/latef.jpg,CD,2,4,,,,,,,,,0,41,41,39,,,,,,,,,,4,1,0.733035791595,,,,,,2016_Apr_12_0857,P13,PLC_L_D2S1,NHGY,60.0131891348,
stim/posf.jpg,stim/negf.jpg,stim/2.jpg,stim/5.jpg,stim/latef.jpg,CD,1,2,,,,,,,,,0,42,42,21,,,,,,,,,,2,1,0.549809740565,,,,,,2016_Apr_12_0857,P13,PLC_L_D2S1,NHGY,60.0131891348,
stim/posf.jpg,stim/negf.jpg,stim/5.jpg,stim/2.jpg,stim/latef.jpg,CD,2,4,,,,,,,,,0,43,43,30,,,,,,,,,,4,1,0.666455705054,,,,,,2016_Apr_12_0857,P13,PLC_L_D2S1,NHGY,60.0131891348,
stim/negf.jpg,stim/posf.jpg,stim/3.jpg,stim/1.jpg,stim/latef.jpg,EF,1,2,,,,,,,,,0,44,44,49,,,,,,,,,,2,1,0.766415257086,,,,,,2016_Apr_12_0857,P13,PLC_L_D2S1,NHGY,60.0131891348,
stim/negf.jpg,stim/posf.jpg,stim/2.jpg,stim/5.jpg,stim/latef.jpg,CD,1,2,,,,,,,,,0,45,45,28,,,,,,,,,,2,1,0.616468298991,,,,,,2016_Apr_12_0857,P13,PLC_L_D2S1,NHGY,60.0131891348,
stim/negf.jpg,stim/posf.jpg,stim/5.jpg,stim/2.jpg,stim/latef.jpg,CD,2,4,,,,,,,,,0,46,46,37,,,,,,,,,,4,1,0.766420733757,,,,,,2016_Apr_12_0857,P13,PLC_L_D2S1,NHGY,60.0131891348,
stim/negf.jpg,stim/posf.jpg,stim/6.jpg,stim/4.jpg,stim/latef.jpg,AB,2,4,,,,,,,,,0,47,47,19,,,,,,,,,,4,1,0.883060343382,,,,,,2016_Apr_12_0857,P13,PLC_L_D2S1,NHGY,60.0131891348,
stim/posf.jpg,stim/negf.jpg,stim/3.jpg,stim/1.jpg,stim/latef.jpg,EF,1,2,,,,,,,,,0,48,48,45,,,,,,,,,,4,0,0.966361795632,,,,,,2016_Apr_12_0857,P13,PLC_L_D2S1,NHGY,60.0131891348,
stim/negf.jpg,stim/posf.jpg,stim/1.jpg,stim/3.jpg,stim/latef.jpg,EF,2,4,,,,,,,,,0,49,49,56,,,,,,,,,,2,0,0.816388139895,,,,,,2016_Apr_12_0857,P13,PLC_L_D2S1,NHGY,60.0131891348,
stim/posf.jpg,stim/negf.jpg,stim/1.jpg,stim/3.jpg,stim/latef.jpg,EF,2,4,,,,,,,,,0,50,50,53,,,,,,,,,,2,0,0.716429075078,,,,,,2016_Apr_12_0857,P13,PLC_L_D2S1,NHGY,60.0131891348,
stim/posf.jpg,stim/negf.jpg,stim/1.jpg,stim/3.jpg,stim/latef.jpg,EF,2,4,,,,,,,,,0,51,51,52,,,,,,,,,,4,1,0.799732542359,,,,,,2016_Apr_12_0857,P13,PLC_L_D2S1,NHGY,60.0131891348,
stim/posf.jpg,stim/negf.jpg,stim/5.jpg,stim/2.jpg,stim/latef.jpg,CD,2,4,,,,,,,,,0,52,52,33,,,,,,,,,,4,1,0.54979898271,,,,,,2016_Apr_12_0857,P13,PLC_L_D2S1,NHGY,60.0131891348,
stim/posf.jpg,stim/negf.jpg,stim/6.jpg,stim/4.jpg,stim/latef.jpg,AB,2,4,,,,,,,,,0,53,53,15,,,,,,,,,,4,1,0.866375609115,,,,,,2016_Apr_12_0857,P13,PLC_L_D2S1,NHGY,60.0131891348,
stim/negf.jpg,stim/posf.jpg,stim/2.jpg,stim/5.jpg,stim/latef.jpg,CD,1,2,,,,,,,,,0,54,54,29,,,,,,,,,,2,1,0.733073144838,,,,,,2016_Apr_12_0857,P13,PLC_L_D2S1,NHGY,60.0131891348,
stim/posf.jpg,stim/negf.jpg,stim/5.jpg,stim/2.jpg,stim/latef.jpg,CD,2,4,,,,,,,,,0,55,55,34,,,,,,,,,,4,1,0.583125233364,,,,,,2016_Apr_12_0857,P13,PLC_L_D2S1,NHGY,60.0131891348,
stim/posf.jpg,stim/negf.jpg,stim/2.jpg,stim/5.jpg,stim/latef.jpg,CD,1,2,,,,,,,,,0,56,56,25,,,,,,,,,,2,1,0.599824042767,,,,,,2016_Apr_12_0857,P13,PLC_L_D2S1,NHGY,60.0131891348,
stim/negf.jpg,stim/posf.jpg,stim/2.jpg,stim/5.jpg,stim/latef.jpg,CD,1,2,,,,,,,,,0,57,57,27,,,,,,,,,,2,1,0.516551985895,,,,,,2016_Apr_12_0857,P13,PLC_L_D2S1,NHGY,60.0131891348,
stim/posf.jpg,stim/negf.jpg,stim/1.jpg,stim/3.jpg,stim/latef.jpg,EF,2,4,,,,,,,,,0,58,58,54,,,,,,,,,,4,1,0.733102696607,,,,,,2016_Apr_12_0857,P13,PLC_L_D2S1,NHGY,60.0131891348,
stim/negf.jpg,stim/posf.jpg,stim/1.jpg,stim/3.jpg,stim/latef.jpg,EF,2,4,,,,,,,,,0,59,59,57,,,,,,,,,,4,1,0.833040489321,,,,,,2016_Apr_12_0857,P13,PLC_L_D2S1,NHGY,60.0131891348,
,,,,,,,,,,,,,,,,,,,,,,,,,,,,,,,,0.9984375,0.79296875,1,0,0,2016_Apr_12_0857,P13,PLC_L_D2S1,NHGY,60.0131891348,
stim/posf.jpg,stim/negf.jpg,stim/4.jpg,stim/6.jpg,stim/latef.jpg,AB,1,2,,,,,,,,,,,,,0,0,0,4,,,,,,2,1,0.799723558934,,,,,,2016_Apr_12_0857,P13,PLC_L_D2S1,NHGY,60.0131891348,
stim/posf.jpg,stim/negf.jpg,stim/6.jpg,stim/4.jpg,stim/latef.jpg,AB,2,4,,,,,,,,,,,,,0,1,1,17,,,,,,4,1,0.616492632734,,,,,,2016_Apr_12_0857,P13,PLC_L_D2S1,NHGY,60.0131891348,
stim/negf.jpg,stim/posf.jpg,stim/3.jpg,stim/1.jpg,stim/latef.jpg,EF,1,2,,,,,,,,,,,,,0,2,2,46,,,,,,2,1,0.899750915222,,,,,,2016_Apr_12_0857,P13,PLC_L_D2S1,NHGY,60.0131891348,
stim/posf.jpg,stim/negf.jpg,stim/4.jpg,stim/6.jpg,stim/latef.jpg,AB,1,2,,,,,,,,,,,,,0,3,3,2,,,,,,2,1,0.699780635411,,,,,,2016_Apr_12_0857,P13,PLC_L_D2S1,NHGY,60.0131891348,
stim/negf.jpg,stim/posf.jpg,stim/1.jpg,stim/3.jpg,stim/latef.jpg,EF,2,4,,,,,,,,,,,,,0,4,4,58,,,,,,4,1,0.599808229293,,,,,,2016_Apr_12_0857,P13,PLC_L_D2S1,NHGY,60.0131891348,
stim/posf.jpg,stim/negf.jpg,stim/4.jpg,stim/6.jpg,stim/latef.jpg,AB,1,2,,,,,,,,,,,,,0,5,5,5,,,,,,2,1,0.78308375382,,,,,,2016_Apr_12_0857,P13,PLC_L_D2S1,NHGY,60.0131891348,
stim/posf.jpg,stim/negf.jpg,stim/2.jpg,stim/5.jpg,stim/latef.jpg,CD,1,2,,,,,,,,,,,,,0,6,6,22,,,,,,2,1,0.566478691434,,,,,,2016_Apr_12_0857,P13,PLC_L_D2S1,NHGY,60.0131891348,
stim/posf.jpg,stim/negf.jpg,stim/1.jpg,stim/3.jpg,stim/latef.jpg,EF,2,4,,,,,,,,,,,,,0,7,7,52,,,,,,2,0,0.883058983989,,,,,,2016_Apr_12_0857,P13,PLC_L_D2S1,NHGY,60.0131891348,
stim/posf.jpg,stim/negf.jpg,stim/4.jpg,stim/6.jpg,stim/latef.jpg,AB,1,2,,,,,,,,,,,,,0,8,8,3,,,,,,2,1,0.699780936162,,,,,,2016_Apr_12_0857,P13,PLC_L_D2S1,NHGY,60.0131891348,
stim/posf.jpg,stim/negf.jpg,stim/1.jpg,stim/3.jpg,stim/latef.jpg,EF,2,4,,,,,,,,,,,,,0,9,9,51,,,,,,2,0,0.949690748531,,,,,,2016_Apr_12_0857,P13,PLC_L_D2S1,NHGY,60.0131891348,
stim/posf.jpg,stim/negf.jpg,stim/2.jpg,stim/5.jpg,stim/latef.jpg,CD,1,2,,,,,,,,,,,,,0,10,10,25,,,,,,2,1,0.59979812106,,,,,,2016_Apr_12_0857,P13,PLC_L_D2S1,NHGY,60.0131891348,
stim/posf.jpg,stim/negf.jpg,stim/5.jpg,stim/2.jpg,stim/latef.jpg,CD,2,4,,,,,,,,,,,,,0,11,11,33,,,,,,4,1,0.666445094567,,,,,,2016_Apr_12_0857,P13,PLC_L_D2S1,NHGY,60.0131891348,
stim/negf.jpg,stim/posf.jpg,stim/1.jpg,stim/3.jpg,stim/latef.jpg,EF,2,4,,,,,,,,,,,,,0,12,12,57,,,,,,4,1,0.81638651584,,,,,,2016_Apr_12_0857,P13,PLC_L_D2S1,NHGY,60.0131891348,
stim/posf.jpg,stim/negf.jpg,stim/3.jpg,stim/1.jpg,stim/latef.jpg,EF,1,2,,,,,,,,,,,,,0,13,13,43,,,,,,2,1,0.699775612874,,,,,,2016_Apr_12_0857,P13,PLC_L_D2S1,NHGY,60.0131891348,
stim/negf.jpg,stim/posf.jpg,stim/3.jpg,stim/1.jpg,stim/latef.jpg,EF,1,2,,,,,,,,,,,,,0,14,14,49,,,,,,2,1,0.633134600246,,,,,,2016_Apr_12_0857,P13,PLC_L_D2S1,NHGY,60.0131891348,
stim/negf.jpg,stim/posf.jpg,stim/1.jpg,stim/3.jpg,stim/latef.jpg,EF,2,4,,,,,,,,,,,,,0,15,15,56,,,,,,4,1,1.03299399927,,,,,,2016_Apr_12_0857,P13,PLC_L_D2S1,NHGY,60.0131891348,
stim/posf.jpg,stim/negf.jpg,stim/5.jpg,stim/2.jpg,stim/latef.jpg,CD,2,4,,,,,,,,,,,,,0,16,16,34,,,,,,4,1,0.899723895775,,,,,,2016_Apr_12_0857,P13,PLC_L_D2S1,NHGY,60.0131891348,
stim/negf.jpg,stim/posf.jpg,stim/5.jpg,stim/2.jpg,stim/latef.jpg,CD,2,4,,,,,,,,,,,,,0,17,17,38,,,,,,4,1,0.683125377724,,,,,,2016_Apr_12_0857,P13,PLC_L_D2S1,NHGY,60.0131891348,
stim/posf.jpg,stim/negf.jpg,stim/4.jpg,stim/6.jpg,stim/latef.jpg,AB,1,2,,,,,,,,,,,,,0,18,18,1,,,,,,2,1,0.966364171563,,,,,,2016_Apr_12_0857,P13,PLC_L_D2S1,NHGY,60.0131891348,
stim/posf.jpg,stim/negf.jpg,stim/5.jpg,stim/2.jpg,stim/latef.jpg,CD,2,4,,,,,,,,,,,,,0,19,19,31,,,,,,4,1,0.583128400269,,,,,,2016_Apr_12_0857,P13,PLC_L_D2S1,NHGY,60.0131891348,
stim/negf.jpg,stim/posf.jpg,stim/5.jpg,stim/2.jpg,stim/latef.jpg,CD,2,4,,,,,,,,,,,,,0,20,20,37,,,,,,4,1,0.649811878903,,,,,,2016_Apr_12_0857,P13,PLC_L_D2S1,NHGY,60.0131891348,
stim/negf.jpg,stim/posf.jpg,stim/6.jpg,stim/4.jpg,stim/latef.jpg,AB,2,4,,,,,,,,,,,,,0,21,21,18,,,,,,4,1,0.716497895873,,,,,,2016_Apr_12_0857,P13,PLC_L_D2S1,NHGY,60.0131891348,
stim/posf.jpg,stim/negf.jpg,stim/1.jpg,stim/3.jpg,stim/latef.jpg,EF,2,4,,,,,,,,,,,,,0,22,22,54,,,,,,2,0,0.983032445743,,,,,,2016_Apr_12_0857,P13,PLC_L_D2S1,NHGY,60.0131891348,
stim/posf.jpg,stim/negf.jpg,stim/6.jpg,stim/4.jpg,stim/latef.jpg,AB,2,4,,,,,,,,,,,,,0,23,23,10,,,,,,4,1,0.599767252002,,,,,,2016_Apr_12_0857,P13,PLC_L_D2S1,NHGY,60.0131891348,
stim/negf.jpg,stim/posf.jpg,stim/5.jpg,stim/2.jpg,stim/latef.jpg,CD,2,4,,,,,,,,,,,,,0,24,24,39,,,,,,4,1,0.499832391607,,,,,,2016_Apr_12_0857,P13,PLC_L_D2S1,NHGY,60.0131891348,
stim/negf.jpg,stim/posf.jpg,stim/3.jpg,stim/1.jpg,stim/latef.jpg,EF,1,2,,,,,,,,,,,,,0,25,25,47,,,,,,2,1,1.09970206729,,,,,,2016_Apr_12_0857,P13,PLC_L_D2S1,NHGY,60.0131891348,
stim/negf.jpg,stim/posf.jpg,stim/4.jpg,stim/6.jpg,stim/latef.jpg,AB,1,2,,,,,,,,,,,,,0,26,26,9,,,,,,2,1,0.699793477468,,,,,,2016_Apr_12_0857,P13,PLC_L_D2S1,NHGY,60.0131891348,
stim/posf.jpg,stim/negf.jpg,stim/4.jpg,stim/6.jpg,stim/latef.jpg,AB,1,2,,,,,,,,,,,,,0,27,27,7,,,,,,4,0,0.699751456574,,,,,,2016_Apr_12_0857,P13,PLC_L_D2S1,NHGY,60.0131891348,
stim/posf.jpg,stim/negf.jpg,stim/5.jpg,stim/2.jpg,stim/latef.jpg,CD,2,4,,,,,,,,,,,,,0,28,28,35,,,,,,2,0,0.616467126064,,,,,,2016_Apr_12_0857,P13,PLC_L_D2S1,NHGY,60.0131891348,
stim/posf.jpg,stim/negf.jpg,stim/2.jpg,stim/5.jpg,stim/latef.jpg,CD,1,2,,,,,,,,,,,,,0,29,29,26,,,,,,4,0,0.616508650719,,,,,,2016_Apr_12_0857,P13,PLC_L_D2S1,NHGY,60.0131891348,
stim/posf.jpg,stim/negf.jpg,stim/6.jpg,stim/4.jpg,stim/latef.jpg,AB,2,4,,,,,,,,,,,,,0,30,30,16,,,,,,2,0,0.93302387585,,,,,,2016_Apr_12_0857,P13,PLC_L_D2S1,NHGY,60.0131891348,
stim/negf.jpg,stim/posf.jpg,stim/3.jpg,stim/1.jpg,stim/latef.jpg,EF,1,2,,,,,,,,,,,,,0,31,31,48,,,,,,2,1,0.699786671478,,,,,,2016_Apr_12_0857,P13,PLC_L_D2S1,NHGY,60.0131891348,
stim/posf.jpg,stim/negf.jpg,stim/6.jpg,stim/4.jpg,stim/latef.jpg,AB,2,4,,,,,,,,,,,,,0,32,32,13,,,,,,4,1,0.649777367754,,,,,,2016_Apr_12_0857,P13,PLC_L_D2S1,NHGY,60.0131891348,
stim/posf.jpg,stim/negf.jpg,stim/3.jpg,stim/1.jpg,stim/latef.jpg,EF,1,2,,,,,,,,,,,,,0,33,33,45,,,,,,2,1,0.616460506539,,,,,,2016_Apr_12_0857,P13,PLC_L_D2S1,NHGY,60.0131891348,
stim/posf.jpg,stim/negf.jpg,stim/3.jpg,stim/1.jpg,stim/latef.jpg,EF,1,2,,,,,,,,,,,,,0,34,34,44,,,,,,2,1,0.666444598328,,,,,,2016_Apr_12_0857,P13,PLC_L_D2S1,NHGY,60.0131891348,
stim/posf.jpg,stim/negf.jpg,stim/6.jpg,stim/4.jpg,stim/latef.jpg,AB,2,4,,,,,,,,,,,,,0,35,35,12,,,,,,4,1,0.716433691603,,,,,,2016_Apr_12_0857,P13,PLC_L_D2S1,NHGY,60.0131891348,
stim/negf.jpg,stim/posf.jpg,stim/2.jpg,stim/5.jpg,stim/latef.jpg,CD,1,2,,,,,,,,,,,,,0,36,36,27,,,,,,2,1,0.46652033639,,,,,,2016_Apr_12_0857,P13,PLC_L_D2S1,NHGY,60.0131891348,
stim/negf.jpg,stim/posf.jpg,stim/4.jpg,stim/6.jpg,stim/latef.jpg,AB,1,2,,,,,,,,,,,,,0,37,37,8,,,,,,2,1,0.599787378243,,,,,,2016_Apr_12_0857,P13,PLC_L_D2S1,NHGY,60.0131891348,
stim/posf.jpg,stim/negf.jpg,stim/3.jpg,stim/1.jpg,stim/latef.jpg,EF,1,2,,,,,,,,,,,,,0,38,38,40,,,,,,2,1,0.566515037161,,,,,,2016_Apr_12_0857,P13,PLC_L_D2S1,NHGY,60.0131891348,
stim/posf.jpg,stim/negf.jpg,stim/1.jpg,stim/3.jpg,stim/latef.jpg,EF,2,4,,,,,,,,,,,,,0,39,39,55,,,,,,4,1,0.766430691614,,,,,,2016_Apr_12_0857,P13,PLC_L_D2S1,NHGY,60.0131891348,
stim/posf.jpg,stim/negf.jpg,stim/6.jpg,stim/4.jpg,stim/latef.jpg,AB,2,4,,,,,,,,,,,,,0,40,40,14,,,,,,4,1,0.716431387852,,,,,,2016_Apr_12_0857,P13,PLC_L_D2S1,NHGY,60.0131891348,
stim/posf.jpg,stim/negf.jpg,stim/5.jpg,stim/2.jpg,stim/latef.jpg,CD,2,4,,,,,,,,,,,,,0,41,41,30,,,,,,4,1,0.73310195676,,,,,,2016_Apr_12_0857,P13,PLC_L_D2S1,NHGY,60.0131891348,
stim/posf.jpg,stim/negf.jpg,stim/6.jpg,stim/4.jpg,stim/latef.jpg,AB,2,4,,,,,,,,,,,,,0,42,42,15,,,,,,4,1,0.766418796922,,,,,,2016_Apr_12_0857,P13,PLC_L_D2S1,NHGY,60.0131891348,
stim/posf.jpg,stim/negf.jpg,stim/4.jpg,stim/6.jpg,stim/latef.jpg,AB,1,2,,,,,,,,,,,,,0,43,43,0,,,,,,2,1,0.583138941583,,,,,,2016_Apr_12_0857,P13,PLC_L_D2S1,NHGY,60.0131891348,
stim/posf.jpg,stim/negf.jpg,stim/2.jpg,stim/5.jpg,stim/latef.jpg,CD,1,2,,,,,,,,,,,,,0,44,44,21,,,,,,2,1,0.566487530498,,,,,,2016_Apr_12_0857,P13,PLC_L_D2S1,NHGY,60.0131891348,
stim/negf.jpg,stim/posf.jpg,stim/2.jpg,stim/5.jpg,stim/latef.jpg,CD,1,2,,,,,,,,,,,,,0,45,45,29,,,,,,2,1,0.583122806305,,,,,,2016_Apr_12_0857,P13,PLC_L_D2S1,NHGY,60.0131891348,
stim/posf.jpg,stim/negf.jpg,stim/1.jpg,stim/3.jpg,stim/latef.jpg,EF,2,4,,,,,,,,,,,,,0,46,46,53,,,,,,4,1,0.699718106323,,,,,,2016_Apr_12_0857,P13,PLC_L_D2S1,NHGY,60.0131891348,
stim/posf.jpg,stim/negf.jpg,stim/5.jpg,stim/2.jpg,stim/latef.jpg,CD,2,4,,,,,,,,,,,,,0,47,47,36,,,,,,4,1,0.733102486081,,,,,,2016_Apr_12_0857,P13,PLC_L_D2S1,NHGY,60.0131891348,
stim/posf.jpg,stim/negf.jpg,stim/5.jpg,stim/2.jpg,stim/latef.jpg,CD,2,4,,,,,,,,,,,,,0,48,48,32,,,,,,4,1,0.632183424874,,,,,,2016_Apr_12_0857,P13,PLC_L_D2S1,NHGY,60.0131891348,
stim/negf.jpg,stim/posf.jpg,stim/6.jpg,stim/4.jpg,stim/latef.jpg,AB,2,4,,,,,,,,,,,,,0,49,49,19,,,,,,4,1,0.71643472017,,,,,,2016_Apr_12_0857,P13,PLC_L_D2S1,NHGY,60.0131891348,
stim/posf.jpg,stim/negf.jpg,stim/3.jpg,stim/1.jpg,stim/latef.jpg,EF,1,2,,,,,,,,,,,,,0,50,50,41,,,,,,2,1,0.583147260349,,,,,,2016_Apr_12_0857,P13,PLC_L_D2S1,NHGY,60.0131891348,
stim/posf.jpg,stim/negf.jpg,stim/6.jpg,stim/4.jpg,stim/latef.jpg,AB,2,4,,,,,,,,,,,,,0,51,51,11,,,,,,4,1,0.583190336878,,,,,,2016_Apr_12_0857,P13,PLC_L_D2S1,NHGY,60.0131891348,
stim/posf.jpg,stim/negf.jpg,stim/2.jpg,stim/5.jpg,stim/latef.jpg,CD,1,2,,,,,,,,,,,,,0,52,52,24,,,,,,2,1,0.666483398183,,,,,,2016_Apr_12_0857,P13,PLC_L_D2S1,NHGY,60.0131891348,
stim/posf.jpg,stim/negf.jpg,stim/2.jpg,stim/5.jpg,stim/latef.jpg,CD,1,2,,,,,,,,,,,,,0,53,53,23,,,,,,2,1,0.699762166308,,,,,,2016_Apr_12_0857,P13,PLC_L_D2S1,NHGY,60.0131891348,
stim/posf.jpg,stim/negf.jpg,stim/1.jpg,stim/3.jpg,stim/latef.jpg,EF,2,4,,,,,,,,,,,,,0,54,54,50,,,,,,4,1,0.649816826252,,,,,,2016_Apr_12_0857,P13,PLC_L_D2S1,NHGY,60.0131891348,
stim/posf.jpg,stim/negf.jpg,stim/4.jpg,stim/6.jpg,stim/latef.jpg,AB,1,2,,,,,,,,,,,,,0,55,55,6,,,,,,2,1,0.716401123304,,,,,,2016_Apr_12_0857,P13,PLC_L_D2S1,NHGY,60.0131891348,
stim/negf.jpg,stim/posf.jpg,stim/1.jpg,stim/3.jpg,stim/latef.jpg,EF,2,4,,,,,,,,,,,,,0,56,56,59,,,,,,4,1,0.699767652001,,,,,,2016_Apr_12_0857,P13,PLC_L_D2S1,NHGY,60.0131891348,
stim/posf.jpg,stim/negf.jpg,stim/2.jpg,stim/5.jpg,stim/latef.jpg,CD,1,2,,,,,,,,,,,,,0,57,57,20,,,,,,2,1,0.516477023771,,,,,,2016_Apr_12_0857,P13,PLC_L_D2S1,NHGY,60.0131891348,
stim/negf.jpg,stim/posf.jpg,stim/2.jpg,stim/5.jpg,stim/latef.jpg,CD,1,2,,,,,,,,,,,,,0,58,58,28,,,,,,2,1,0.616479513987,,,,,,2016_Apr_12_0857,P13,PLC_L_D2S1,NHGY,60.0131891348,
stim/posf.jpg,stim/negf.jpg,stim/3.jpg,stim/1.jpg,stim/latef.jpg,EF,1,2,,,,,,,,,,,,,0,59,59,42,,,,,,2,1,0.749745331785,,,,,,2016_Apr_12_0857,P13,PLC_L_D2S1,NHGY,60.0131891348,
