fb_corr,fb_incorr,symbol2,symbol1,fb_late,pair,position,correct,block_01.thisRepN,block_01.thisTrialN,block_01.thisN,block_01.thisIndex,block_02.thisRepN,block_02.thisTrialN,block_02.thisN,block_02.thisIndex,block_03.thisRepN,block_03.thisTrialN,block_03.thisN,block_03.thisIndex,block_04.thisRepN,block_04.thisTrialN,block_04.thisN,block_04.thisIndex,mouse.x,mouse.y,mouse.leftButton,mouse.midButton,mouse.rightButton,buttonBox_2.keys,buttonBox_2.corr,buttonBox_2.rt,mouse_2.x,mouse_2.y,mouse_2.leftButton,mouse_2.midButton,mouse_2.rightButton,date,Participant,expName,Group,frameRate,
,,,,,,,,,,,,,,,,,,,,,,,,0.9984375,1.0,1,0,0,,,,,,,,,2016_Feb_16_1401,P14,PLC_L_D2S1,NHGY,60.0248144298,
stim/negf.jpg,stim/posf.jpg,stim/6.jpg,stim/4.jpg,stim/latef.jpg,EF,1,2,0,0,0,48,,,,,,,,,,,,,,,,,,4,0,1.21636126811,,,,,,2016_Feb_16_1401,P14,PLC_L_D2S1,NHGY,60.0248144298,
stim/negf.jpg,stim/posf.jpg,stim/1.jpg,stim/2.jpg,stim/latef.jpg,AB,2,4,0,1,1,19,,,,,,,,,,,,,,,,,,2,0,1.26620437514,,,,,,2016_Feb_16_1401,P14,PLC_L_D2S1,NHGY,60.0248144298,
stim/posf.jpg,stim/negf.jpg,stim/2.jpg,stim/1.jpg,stim/latef.jpg,AB,1,2,0,2,2,7,,,,,,,,,,,,,,,,,,4,0,1.34950853035,,,,,,2016_Feb_16_1401,P14,PLC_L_D2S1,NHGY,60.0248144298,
stim/posf.jpg,stim/negf.jpg,stim/4.jpg,stim/6.jpg,stim/latef.jpg,EF,2,4,0,3,3,55,,,,,,,,,,,,,,,,,,4,1,1.28298333177,,,,,,2016_Feb_16_1401,P14,PLC_L_D2S1,NHGY,60.0248144298,
stim/negf.jpg,stim/posf.jpg,stim/2.jpg,stim/1.jpg,stim/latef.jpg,AB,1,2,0,4,4,9,,,,,,,,,,,,,,,,,,2,1,1.43286329252,,,,,,2016_Feb_16_1401,P14,PLC_L_D2S1,NHGY,60.0248144298,
stim/posf.jpg,stim/negf.jpg,stim/1.jpg,stim/2.jpg,stim/latef.jpg,AB,2,4,0,5,5,16,,,,,,,,,,,,,,,,,,4,1,1.3494767262,,,,,,2016_Feb_16_1401,P14,PLC_L_D2S1,NHGY,60.0248144298,
stim/posf.jpg,stim/negf.jpg,stim/5.jpg,stim/3.jpg,stim/latef.jpg,CD,1,2,0,6,6,20,,,,,,,,,,,,,,,,,,2,1,1.13293345113,,,,,,2016_Feb_16_1401,P14,PLC_L_D2S1,NHGY,60.0248144298,
stim/posf.jpg,stim/negf.jpg,stim/2.jpg,stim/1.jpg,stim/latef.jpg,AB,1,2,0,7,7,5,,,,,,,,,,,,,,,,,,4,0,1.38285996173,,,,,,2016_Feb_16_1401,P14,PLC_L_D2S1,NHGY,60.0248144298,
stim/negf.jpg,stim/posf.jpg,stim/5.jpg,stim/3.jpg,stim/latef.jpg,CD,1,2,0,8,8,29,,,,,,,,,,,,,,,,,,4,0,0.99965137536,,,,,,2016_Feb_16_1401,P14,PLC_L_D2S1,NHGY,60.0248144298,
stim/posf.jpg,stim/negf.jpg,stim/3.jpg,stim/5.jpg,stim/latef.jpg,CD,2,4,0,9,9,36,,,,,,,,,,,,,,,,,,4,1,1.31622018398,,,,,,2016_Feb_16_1401,P14,PLC_L_D2S1,NHGY,60.0248144298,
stim/posf.jpg,stim/negf.jpg,stim/2.jpg,stim/1.jpg,stim/latef.jpg,AB,1,2,0,10,10,4,,,,,,,,,,,,,,,,,,2,1,1.43285024605,,,,,,2016_Feb_16_1401,P14,PLC_L_D2S1,NHGY,60.0248144298,
stim/negf.jpg,stim/posf.jpg,stim/6.jpg,stim/4.jpg,stim/latef.jpg,EF,1,2,0,11,11,46,,,,,,,,,,,,,,,,,,4,0,1.63276963643,,,,,,2016_Feb_16_1401,P14,PLC_L_D2S1,NHGY,60.0248144298,
stim/negf.jpg,stim/posf.jpg,stim/4.jpg,stim/6.jpg,stim/latef.jpg,EF,2,4,0,12,12,59,,,,,,,,,,,,,,,,,,2,0,1.38289688161,,,,,,2016_Feb_16_1401,P14,PLC_L_D2S1,NHGY,60.0248144298,
stim/posf.jpg,stim/negf.jpg,stim/3.jpg,stim/5.jpg,stim/latef.jpg,CD,2,4,0,13,13,30,,,,,,,,,,,,,,,,,,4,1,1.48284075292,,,,,,2016_Feb_16_1401,P14,PLC_L_D2S1,NHGY,60.0248144298,
stim/posf.jpg,stim/negf.jpg,stim/3.jpg,stim/5.jpg,stim/latef.jpg,CD,2,4,0,14,14,33,,,,,,,,,,,,,,,,,,2,0,1.34960741646,,,,,,2016_Feb_16_1401,P14,PLC_L_D2S1,NHGY,60.0248144298,
stim/posf.jpg,stim/negf.jpg,stim/5.jpg,stim/3.jpg,stim/latef.jpg,CD,1,2,0,15,15,22,,,,,,,,,,,,,,,,,,2,1,0.899699711657,,,,,,2016_Feb_16_1401,P14,PLC_L_D2S1,NHGY,60.0248144298,
stim/posf.jpg,stim/negf.jpg,stim/3.jpg,stim/5.jpg,stim/latef.jpg,CD,2,4,0,16,16,31,,,,,,,,,,,,,,,,,,2,0,1.49947079695,,,,,,2016_Feb_16_1401,P14,PLC_L_D2S1,NHGY,60.0248144298,
stim/negf.jpg,stim/posf.jpg,stim/6.jpg,stim/4.jpg,stim/latef.jpg,EF,1,2,0,17,17,47,,,,,,,,,,,,,,,,,,4,0,1.39955448021,,,,,,2016_Feb_16_1401,P14,PLC_L_D2S1,NHGY,60.0248144298,
stim/posf.jpg,stim/negf.jpg,stim/4.jpg,stim/6.jpg,stim/latef.jpg,EF,2,4,0,18,18,54,,,,,,,,,,,,,,,,,,4,1,1.26626100006,,,,,,2016_Feb_16_1401,P14,PLC_L_D2S1,NHGY,60.0248144298,
stim/posf.jpg,stim/negf.jpg,stim/4.jpg,stim/6.jpg,stim/latef.jpg,EF,2,4,0,19,19,51,,,,,,,,,,,,,,,,,,2,0,1.49951318143,,,,,,2016_Feb_16_1401,P14,PLC_L_D2S1,NHGY,60.0248144298,
stim/posf.jpg,stim/negf.jpg,stim/2.jpg,stim/1.jpg,stim/latef.jpg,AB,1,2,0,20,20,6,,,,,,,,,,,,,,,,,,2,1,0.883057192588,,,,,,2016_Feb_16_1401,P14,PLC_L_D2S1,NHGY,60.0248144298,
stim/negf.jpg,stim/posf.jpg,stim/6.jpg,stim/4.jpg,stim/latef.jpg,EF,1,2,0,21,21,49,,,,,,,,,,,,,,,,,,4,0,1.19957997767,,,,,,2016_Feb_16_1401,P14,PLC_L_D2S1,NHGY,60.0248144298,
stim/posf.jpg,stim/negf.jpg,stim/6.jpg,stim/4.jpg,stim/latef.jpg,EF,1,2,0,22,22,44,,,,,,,,,,,,,,,,,,2,1,1.29955828468,,,,,,2016_Feb_16_1401,P14,PLC_L_D2S1,NHGY,60.0248144298,
stim/posf.jpg,stim/negf.jpg,stim/2.jpg,stim/1.jpg,stim/latef.jpg,AB,1,2,0,23,23,2,,,,,,,,,,,,,,,,,,2,1,0.866391879791,,,,,,2016_Feb_16_1401,P14,PLC_L_D2S1,NHGY,60.0248144298,
stim/posf.jpg,stim/negf.jpg,stim/3.jpg,stim/5.jpg,stim/latef.jpg,CD,2,4,0,24,24,35,,,,,,,,,,,,,,,,,,4,1,0.833055395616,,,,,,2016_Feb_16_1401,P14,PLC_L_D2S1,NHGY,60.0248144298,
stim/negf.jpg,stim/posf.jpg,stim/3.jpg,stim/5.jpg,stim/latef.jpg,CD,2,4,0,25,25,38,,,,,,,,,,,,,,,,,,2,0,0.366539995414,,,,,,2016_Feb_16_1401,P14,PLC_L_D2S1,NHGY,60.0248144298,
stim/negf.jpg,stim/posf.jpg,stim/3.jpg,stim/5.jpg,stim/latef.jpg,CD,2,4,0,26,26,39,,,,,,,,,,,,,,,,,,2,0,0.866385882866,,,,,,2016_Feb_16_1401,P14,PLC_L_D2S1,NHGY,60.0248144298,
stim/posf.jpg,stim/negf.jpg,stim/4.jpg,stim/6.jpg,stim/latef.jpg,EF,2,4,0,27,27,53,,,,,,,,,,,,,,,,,,4,1,0.499840404807,,,,,,2016_Feb_16_1401,P14,PLC_L_D2S1,NHGY,60.0248144298,
stim/posf.jpg,stim/negf.jpg,stim/2.jpg,stim/1.jpg,stim/latef.jpg,AB,1,2,0,28,28,0,,,,,,,,,,,,,,,,,,4,0,0.966330764691,,,,,,2016_Feb_16_1401,P14,PLC_L_D2S1,NHGY,60.0248144298,
stim/posf.jpg,stim/negf.jpg,stim/6.jpg,stim/4.jpg,stim/latef.jpg,EF,1,2,0,29,29,43,,,,,,,,,,,,,,,,,,4,0,1.4827645613,,,,,,2016_Feb_16_1401,P14,PLC_L_D2S1,NHGY,60.0248144298,
stim/posf.jpg,stim/negf.jpg,stim/1.jpg,stim/2.jpg,stim/latef.jpg,AB,2,4,0,30,30,12,,,,,,,,,,,,,,,,,,4,1,1.53283322068,,,,,,2016_Feb_16_1401,P14,PLC_L_D2S1,NHGY,60.0248144298,
stim/posf.jpg,stim/negf.jpg,stim/5.jpg,stim/3.jpg,stim/latef.jpg,CD,1,2,0,31,31,21,,,,,,,,,,,,,,,,,,2,1,0.99965801288,,,,,,2016_Feb_16_1401,P14,PLC_L_D2S1,NHGY,60.0248144298,
stim/posf.jpg,stim/negf.jpg,stim/4.jpg,stim/6.jpg,stim/latef.jpg,EF,2,4,0,32,32,52,,,,,,,,,,,,,,,,,,2,0,1.03297854235,,,,,,2016_Feb_16_1401,P14,PLC_L_D2S1,NHGY,60.0248144298,
stim/negf.jpg,stim/posf.jpg,stim/1.jpg,stim/2.jpg,stim/latef.jpg,AB,2,4,0,33,33,18,,,,,,,,,,,,,,,,,,2,0,1.24959505269,,,,,,2016_Feb_16_1401,P14,PLC_L_D2S1,NHGY,60.0248144298,
stim/posf.jpg,stim/negf.jpg,stim/5.jpg,stim/3.jpg,stim/latef.jpg,CD,1,2,0,34,34,25,,,,,,,,,,,,,,,,,,2,1,1.23303815972,,,,,,2016_Feb_16_1401,P14,PLC_L_D2S1,NHGY,60.0248144298,
stim/negf.jpg,stim/posf.jpg,stim/4.jpg,stim/6.jpg,stim/latef.jpg,EF,2,4,0,35,35,56,,,,,,,,,,,,,,,,,,4,1,1.48284764909,,,,,,2016_Feb_16_1401,P14,PLC_L_D2S1,NHGY,60.0248144298,
stim/posf.jpg,stim/negf.jpg,stim/6.jpg,stim/4.jpg,stim/latef.jpg,EF,1,2,0,36,36,41,,,,,,,,,,,,,,,,,,4,0,1.48283801912,,,,,,2016_Feb_16_1401,P14,PLC_L_D2S1,NHGY,60.0248144298,
stim/negf.jpg,stim/posf.jpg,stim/4.jpg,stim/6.jpg,stim/latef.jpg,EF,2,4,0,37,37,58,,,,,,,,,,,,,,,,,,4,1,0.933003299963,,,,,,2016_Feb_16_1401,P14,PLC_L_D2S1,NHGY,60.0248144298,
stim/negf.jpg,stim/posf.jpg,stim/3.jpg,stim/5.jpg,stim/latef.jpg,CD,2,4,0,38,38,37,,,,,,,,,,,,,,,,,,2,0,1.33286902479,,,,,,2016_Feb_16_1401,P14,PLC_L_D2S1,NHGY,60.0248144298,
stim/negf.jpg,stim/posf.jpg,stim/4.jpg,stim/6.jpg,stim/latef.jpg,EF,2,4,0,39,39,57,,,,,,,,,,,,,,,,,,4,1,1.63271526712,,,,,,2016_Feb_16_1401,P14,PLC_L_D2S1,NHGY,60.0248144298,
stim/posf.jpg,stim/negf.jpg,stim/1.jpg,stim/2.jpg,stim/latef.jpg,AB,2,4,0,40,40,14,,,,,,,,,,,,,,,,,,2,0,0.833045925046,,,,,,2016_Feb_16_1401,P14,PLC_L_D2S1,NHGY,60.0248144298,
stim/posf.jpg,stim/negf.jpg,stim/5.jpg,stim/3.jpg,stim/latef.jpg,CD,1,2,0,41,41,24,,,,,,,,,,,,,,,,,,2,1,1.18292127232,,,,,,2016_Feb_16_1401,P14,PLC_L_D2S1,NHGY,60.0248144298,
stim/posf.jpg,stim/negf.jpg,stim/6.jpg,stim/4.jpg,stim/latef.jpg,EF,1,2,0,42,42,40,,,,,,,,,,,,,,,,,,None,0,,,,,,,2016_Feb_16_1401,P14,PLC_L_D2S1,NHGY,60.0248144298,
stim/posf.jpg,stim/negf.jpg,stim/4.jpg,stim/6.jpg,stim/latef.jpg,EF,2,4,0,43,43,50,,,,,,,,,,,,,,,,,,2,0,1.01626682406,,,,,,2016_Feb_16_1401,P14,PLC_L_D2S1,NHGY,60.0248144298,
stim/negf.jpg,stim/posf.jpg,stim/5.jpg,stim/3.jpg,stim/latef.jpg,CD,1,2,0,44,44,27,,,,,,,,,,,,,,,,,,2,1,0.899752739631,,,,,,2016_Feb_16_1401,P14,PLC_L_D2S1,NHGY,60.0248144298,
stim/negf.jpg,stim/posf.jpg,stim/2.jpg,stim/1.jpg,stim/latef.jpg,AB,1,2,0,45,45,8,,,,,,,,,,,,,,,,,,2,1,1.24958679413,,,,,,2016_Feb_16_1401,P14,PLC_L_D2S1,NHGY,60.0248144298,
stim/posf.jpg,stim/negf.jpg,stim/1.jpg,stim/2.jpg,stim/latef.jpg,AB,2,4,0,46,46,13,,,,,,,,,,,,,,,,,,2,0,1.43286889546,,,,,,2016_Feb_16_1401,P14,PLC_L_D2S1,NHGY,60.0248144298,
stim/posf.jpg,stim/negf.jpg,stim/1.jpg,stim/2.jpg,stim/latef.jpg,AB,2,4,0,47,47,15,,,,,,,,,,,,,,,,,,2,0,1.18293292331,,,,,,2016_Feb_16_1401,P14,PLC_L_D2S1,NHGY,60.0248144298,
stim/posf.jpg,stim/negf.jpg,stim/2.jpg,stim/1.jpg,stim/latef.jpg,AB,1,2,0,48,48,1,,,,,,,,,,,,,,,,,,4,0,1.29956661241,,,,,,2016_Feb_16_1401,P14,PLC_L_D2S1,NHGY,60.0248144298,
stim/posf.jpg,stim/negf.jpg,stim/1.jpg,stim/2.jpg,stim/latef.jpg,AB,2,4,0,49,49,10,,,,,,,,,,,,,,,,,,4,1,1.66611353707,,,,,,2016_Feb_16_1401,P14,PLC_L_D2S1,NHGY,60.0248144298,
stim/posf.jpg,stim/negf.jpg,stim/1.jpg,stim/2.jpg,stim/latef.jpg,AB,2,4,0,50,50,11,,,,,,,,,,,,,,,,,,2,0,0.949620213306,,,,,,2016_Feb_16_1401,P14,PLC_L_D2S1,NHGY,60.0248144298,
stim/posf.jpg,stim/negf.jpg,stim/5.jpg,stim/3.jpg,stim/latef.jpg,CD,1,2,0,51,51,26,,,,,,,,,,,,,,,,,,2,1,0.633120330222,,,,,,2016_Feb_16_1401,P14,PLC_L_D2S1,NHGY,60.0248144298,
stim/posf.jpg,stim/negf.jpg,stim/1.jpg,stim/2.jpg,stim/latef.jpg,AB,2,4,0,52,52,17,,,,,,,,,,,,,,,,,,2,0,1.08295875761,,,,,,2016_Feb_16_1401,P14,PLC_L_D2S1,NHGY,60.0248144298,
stim/posf.jpg,stim/negf.jpg,stim/3.jpg,stim/5.jpg,stim/latef.jpg,CD,2,4,0,53,53,32,,,,,,,,,,,,,,,,,,2,0,0.549835101108,,,,,,2016_Feb_16_1401,P14,PLC_L_D2S1,NHGY,60.0248144298,
stim/posf.jpg,stim/negf.jpg,stim/6.jpg,stim/4.jpg,stim/latef.jpg,EF,1,2,0,54,54,42,,,,,,,,,,,,,,,,,,4,0,0.883043755146,,,,,,2016_Feb_16_1401,P14,PLC_L_D2S1,NHGY,60.0248144298,
stim/posf.jpg,stim/negf.jpg,stim/3.jpg,stim/5.jpg,stim/latef.jpg,CD,2,4,0,55,55,34,,,,,,,,,,,,,,,,,,4,1,0.333230061315,,,,,,2016_Feb_16_1401,P14,PLC_L_D2S1,NHGY,60.0248144298,
stim/posf.jpg,stim/negf.jpg,stim/5.jpg,stim/3.jpg,stim/latef.jpg,CD,1,2,0,56,56,23,,,,,,,,,,,,,,,,,,None,0,,,,,,,2016_Feb_16_1401,P14,PLC_L_D2S1,NHGY,60.0248144298,
stim/posf.jpg,stim/negf.jpg,stim/6.jpg,stim/4.jpg,stim/latef.jpg,EF,1,2,0,57,57,45,,,,,,,,,,,,,,,,,,4,0,1.23293049176,,,,,,2016_Feb_16_1401,P14,PLC_L_D2S1,NHGY,60.0248144298,
stim/negf.jpg,stim/posf.jpg,stim/5.jpg,stim/3.jpg,stim/latef.jpg,CD,1,2,0,58,58,28,,,,,,,,,,,,,,,,,,2,1,0.266552515573,,,,,,2016_Feb_16_1401,P14,PLC_L_D2S1,NHGY,60.0248144298,
stim/posf.jpg,stim/negf.jpg,stim/2.jpg,stim/1.jpg,stim/latef.jpg,AB,1,2,0,59,59,3,,,,,,,,,,,,,,,,,,2,1,1.14961969301,,,,,,2016_Feb_16_1401,P14,PLC_L_D2S1,NHGY,60.0248144298,
,,,,,,,,,,,,,,,,,,,,,,,,,,,,,,,,0.9984375,1.0,1,0,0,2016_Feb_16_1401,P14,PLC_L_D2S1,NHGY,60.0248144298,
stim/posf.jpg,stim/negf.jpg,stim/2.jpg,stim/1.jpg,stim/latef.jpg,AB,1,2,,,,,0,0,0,0,,,,,,,,,,,,,,2,1,1.08297803559,,,,,,2016_Feb_16_1401,P14,PLC_L_D2S1,NHGY,60.0248144298,
stim/negf.jpg,stim/posf.jpg,stim/4.jpg,stim/6.jpg,stim/latef.jpg,EF,2,4,,,,,0,1,1,56,,,,,,,,,,,,,,4,1,1.26623261241,,,,,,2016_Feb_16_1401,P14,PLC_L_D2S1,NHGY,60.0248144298,
stim/negf.jpg,stim/posf.jpg,stim/4.jpg,stim/6.jpg,stim/latef.jpg,EF,2,4,,,,,0,2,2,57,,,,,,,,,,,,,,2,0,1.29957875062,,,,,,2016_Feb_16_1401,P14,PLC_L_D2S1,NHGY,60.0248144298,
stim/posf.jpg,stim/negf.jpg,stim/5.jpg,stim/3.jpg,stim/latef.jpg,CD,1,2,,,,,0,3,3,26,,,,,,,,,,,,,,2,1,0.533164137246,,,,,,2016_Feb_16_1401,P14,PLC_L_D2S1,NHGY,60.0248144298,
stim/posf.jpg,stim/negf.jpg,stim/5.jpg,stim/3.jpg,stim/latef.jpg,CD,1,2,,,,,0,4,4,22,,,,,,,,,,,,,,4,0,1.28290921832,,,,,,2016_Feb_16_1401,P14,PLC_L_D2S1,NHGY,60.0248144298,
stim/posf.jpg,stim/negf.jpg,stim/6.jpg,stim/4.jpg,stim/latef.jpg,EF,1,2,,,,,0,5,5,42,,,,,,,,,,,,,,4,0,1.14958148893,,,,,,2016_Feb_16_1401,P14,PLC_L_D2S1,NHGY,60.0248144298,
stim/negf.jpg,stim/posf.jpg,stim/5.jpg,stim/3.jpg,stim/latef.jpg,CD,1,2,,,,,0,6,6,29,,,,,,,,,,,,,,2,1,0.683097706417,,,,,,2016_Feb_16_1401,P14,PLC_L_D2S1,NHGY,60.0248144298,
stim/posf.jpg,stim/negf.jpg,stim/2.jpg,stim/1.jpg,stim/latef.jpg,AB,1,2,,,,,0,7,7,1,,,,,,,,,,,,,,2,1,1.29956277486,,,,,,2016_Feb_16_1401,P14,PLC_L_D2S1,NHGY,60.0248144298,
stim/posf.jpg,stim/negf.jpg,stim/2.jpg,stim/1.jpg,stim/latef.jpg,AB,1,2,,,,,0,8,8,2,,,,,,,,,,,,,,2,1,1.56609799138,,,,,,2016_Feb_16_1401,P14,PLC_L_D2S1,NHGY,60.0248144298,
stim/posf.jpg,stim/negf.jpg,stim/4.jpg,stim/6.jpg,stim/latef.jpg,EF,2,4,,,,,0,9,9,55,,,,,,,,,,,,,,4,1,0.716409171325,,,,,,2016_Feb_16_1401,P14,PLC_L_D2S1,NHGY,60.0248144298,
stim/negf.jpg,stim/posf.jpg,stim/6.jpg,stim/4.jpg,stim/latef.jpg,EF,1,2,,,,,0,10,10,49,,,,,,,,,,,,,,4,0,1.41622251779,,,,,,2016_Feb_16_1401,P14,PLC_L_D2S1,NHGY,60.0248144298,
stim/negf.jpg,stim/posf.jpg,stim/6.jpg,stim/4.jpg,stim/latef.jpg,EF,1,2,,,,,0,11,11,46,,,,,,,,,,,,,,2,1,0.949683707327,,,,,,2016_Feb_16_1401,P14,PLC_L_D2S1,NHGY,60.0248144298,
stim/posf.jpg,stim/negf.jpg,stim/5.jpg,stim/3.jpg,stim/latef.jpg,CD,1,2,,,,,0,12,12,23,,,,,,,,,,,,,,2,1,0.649786858043,,,,,,2016_Feb_16_1401,P14,PLC_L_D2S1,NHGY,60.0248144298,
stim/posf.jpg,stim/negf.jpg,stim/3.jpg,stim/5.jpg,stim/latef.jpg,CD,2,4,,,,,0,13,13,32,,,,,,,,,,,,,,2,0,1.4661699244,,,,,,2016_Feb_16_1401,P14,PLC_L_D2S1,NHGY,60.0248144298,
stim/posf.jpg,stim/negf.jpg,stim/1.jpg,stim/2.jpg,stim/latef.jpg,AB,2,4,,,,,0,14,14,10,,,,,,,,,,,,,,2,0,1.16628405544,,,,,,2016_Feb_16_1401,P14,PLC_L_D2S1,NHGY,60.0248144298,
stim/posf.jpg,stim/negf.jpg,stim/3.jpg,stim/5.jpg,stim/latef.jpg,CD,2,4,,,,,0,15,15,30,,,,,,,,,,,,,,4,1,1.36620419168,,,,,,2016_Feb_16_1401,P14,PLC_L_D2S1,NHGY,60.0248144298,
stim/posf.jpg,stim/negf.jpg,stim/3.jpg,stim/5.jpg,stim/latef.jpg,CD,2,4,,,,,0,16,16,33,,,,,,,,,,,,,,4,1,0.716424948591,,,,,,2016_Feb_16_1401,P14,PLC_L_D2S1,NHGY,60.0248144298,
stim/negf.jpg,stim/posf.jpg,stim/4.jpg,stim/6.jpg,stim/latef.jpg,EF,2,4,,,,,0,17,17,59,,,,,,,,,,,,,,4,1,0.899697531231,,,,,,2016_Feb_16_1401,P14,PLC_L_D2S1,NHGY,60.0248144298,
stim/posf.jpg,stim/negf.jpg,stim/1.jpg,stim/2.jpg,stim/latef.jpg,AB,2,4,,,,,0,18,18,16,,,,,,,,,,,,,,4,1,1.1996024917,,,,,,2016_Feb_16_1401,P14,PLC_L_D2S1,NHGY,60.0248144298,
stim/posf.jpg,stim/negf.jpg,stim/5.jpg,stim/3.jpg,stim/latef.jpg,CD,1,2,,,,,0,19,19,21,,,,,,,,,,,,,,2,1,0.849713992699,,,,,,2016_Feb_16_1401,P14,PLC_L_D2S1,NHGY,60.0248144298,
stim/posf.jpg,stim/negf.jpg,stim/3.jpg,stim/5.jpg,stim/latef.jpg,CD,2,4,,,,,0,20,20,34,,,,,,,,,,,,,,4,1,0.616434804119,,,,,,2016_Feb_16_1401,P14,PLC_L_D2S1,NHGY,60.0248144298,
stim/posf.jpg,stim/negf.jpg,stim/2.jpg,stim/1.jpg,stim/latef.jpg,AB,1,2,,,,,0,21,21,6,,,,,,,,,,,,,,2,1,1.46614687504,,,,,,2016_Feb_16_1401,P14,PLC_L_D2S1,NHGY,60.0248144298,
stim/posf.jpg,stim/negf.jpg,stim/4.jpg,stim/6.jpg,stim/latef.jpg,EF,2,4,,,,,0,22,22,50,,,,,,,,,,,,,,4,1,1.01629727785,,,,,,2016_Feb_16_1401,P14,PLC_L_D2S1,NHGY,60.0248144298,
stim/negf.jpg,stim/posf.jpg,stim/3.jpg,stim/5.jpg,stim/latef.jpg,CD,2,4,,,,,0,23,23,37,,,,,,,,,,,,,,4,1,1.08266168126,,,,,,2016_Feb_16_1401,P14,PLC_L_D2S1,NHGY,60.0248144298,
stim/posf.jpg,stim/negf.jpg,stim/5.jpg,stim/3.jpg,stim/latef.jpg,CD,1,2,,,,,0,24,24,24,,,,,,,,,,,,,,2,1,1.24959596696,,,,,,2016_Feb_16_1401,P14,PLC_L_D2S1,NHGY,60.0248144298,
stim/posf.jpg,stim/negf.jpg,stim/3.jpg,stim/5.jpg,stim/latef.jpg,CD,2,4,,,,,0,25,25,31,,,,,,,,,,,,,,4,1,1.41619228355,,,,,,2016_Feb_16_1401,P14,PLC_L_D2S1,NHGY,60.0248144298,
stim/posf.jpg,stim/negf.jpg,stim/1.jpg,stim/2.jpg,stim/latef.jpg,AB,2,4,,,,,0,26,26,12,,,,,,,,,,,,,,4,1,1.23290344545,,,,,,2016_Feb_16_1401,P14,PLC_L_D2S1,NHGY,60.0248144298,
stim/posf.jpg,stim/negf.jpg,stim/5.jpg,stim/3.jpg,stim/latef.jpg,CD,1,2,,,,,0,27,27,25,,,,,,,,,,,,,,4,0,0.733104688293,,,,,,2016_Feb_16_1401,P14,PLC_L_D2S1,NHGY,60.0248144298,
stim/negf.jpg,stim/posf.jpg,stim/5.jpg,stim/3.jpg,stim/latef.jpg,CD,1,2,,,,,0,28,28,27,,,,,,,,,,,,,,4,0,0.549727869234,,,,,,2016_Feb_16_1401,P14,PLC_L_D2S1,NHGY,60.0248144298,
stim/posf.jpg,stim/negf.jpg,stim/3.jpg,stim/5.jpg,stim/latef.jpg,CD,2,4,,,,,0,29,29,36,,,,,,,,,,,,,,4,1,0.766333844355,,,,,,2016_Feb_16_1401,P14,PLC_L_D2S1,NHGY,60.0248144298,
stim/negf.jpg,stim/posf.jpg,stim/2.jpg,stim/1.jpg,stim/latef.jpg,AB,1,2,,,,,0,30,30,9,,,,,,,,,,,,,,4,0,1.29954080217,,,,,,2016_Feb_16_1401,P14,PLC_L_D2S1,NHGY,60.0248144298,
stim/negf.jpg,stim/posf.jpg,stim/6.jpg,stim/4.jpg,stim/latef.jpg,EF,1,2,,,,,0,31,31,48,,,,,,,,,,,,,,2,1,0.749713303986,,,,,,2016_Feb_16_1401,P14,PLC_L_D2S1,NHGY,60.0248144298,
stim/negf.jpg,stim/posf.jpg,stim/1.jpg,stim/2.jpg,stim/latef.jpg,AB,2,4,,,,,0,32,32,19,,,,,,,,,,,,,,2,0,0.283235103363,,,,,,2016_Feb_16_1401,P14,PLC_L_D2S1,NHGY,60.0248144298,
stim/negf.jpg,stim/posf.jpg,stim/6.jpg,stim/4.jpg,stim/latef.jpg,EF,1,2,,,,,0,33,33,47,,,,,,,,,,,,,,4,0,0.799745527682,,,,,,2016_Feb_16_1401,P14,PLC_L_D2S1,NHGY,60.0248144298,
stim/posf.jpg,stim/negf.jpg,stim/1.jpg,stim/2.jpg,stim/latef.jpg,AB,2,4,,,,,0,34,34,17,,,,,,,,,,,,,,4,1,0.7164365244,,,,,,2016_Feb_16_1401,P14,PLC_L_D2S1,NHGY,60.0248144298,
stim/posf.jpg,stim/negf.jpg,stim/2.jpg,stim/1.jpg,stim/latef.jpg,AB,1,2,,,,,0,35,35,3,,,,,,,,,,,,,,2,1,0.665433259023,,,,,,2016_Feb_16_1401,P14,PLC_L_D2S1,NHGY,60.0248144298,
stim/posf.jpg,stim/negf.jpg,stim/6.jpg,stim/4.jpg,stim/latef.jpg,EF,1,2,,,,,0,36,36,41,,,,,,,,,,,,,,4,0,0.699763882362,,,,,,2016_Feb_16_1401,P14,PLC_L_D2S1,NHGY,60.0248144298,
stim/posf.jpg,stim/negf.jpg,stim/2.jpg,stim/1.jpg,stim/latef.jpg,AB,1,2,,,,,0,37,37,4,,,,,,,,,,,,,,2,1,0.866428507949,,,,,,2016_Feb_16_1401,P14,PLC_L_D2S1,NHGY,60.0248144298,
stim/posf.jpg,stim/negf.jpg,stim/4.jpg,stim/6.jpg,stim/latef.jpg,EF,2,4,,,,,0,38,38,51,,,,,,,,,,,,,,4,1,0.583131438367,,,,,,2016_Feb_16_1401,P14,PLC_L_D2S1,NHGY,60.0248144298,
stim/posf.jpg,stim/negf.jpg,stim/2.jpg,stim/1.jpg,stim/latef.jpg,AB,1,2,,,,,0,39,39,7,,,,,,,,,,,,,,4,0,1.04965898881,,,,,,2016_Feb_16_1401,P14,PLC_L_D2S1,NHGY,60.0248144298,
stim/negf.jpg,stim/posf.jpg,stim/5.jpg,stim/3.jpg,stim/latef.jpg,CD,1,2,,,,,0,40,40,28,,,,,,,,,,,,,,4,0,0.28323226129,,,,,,2016_Feb_16_1401,P14,PLC_L_D2S1,NHGY,60.0248144298,
stim/posf.jpg,stim/negf.jpg,stim/6.jpg,stim/4.jpg,stim/latef.jpg,EF,1,2,,,,,0,41,41,44,,,,,,,,,,,,,,2,1,0.733096583121,,,,,,2016_Feb_16_1401,P14,PLC_L_D2S1,NHGY,60.0248144298,
stim/posf.jpg,stim/negf.jpg,stim/4.jpg,stim/6.jpg,stim/latef.jpg,EF,2,4,,,,,0,42,42,52,,,,,,,,,,,,,,4,1,1.3995317346,,,,,,2016_Feb_16_1401,P14,PLC_L_D2S1,NHGY,60.0248144298,
stim/posf.jpg,stim/negf.jpg,stim/1.jpg,stim/2.jpg,stim/latef.jpg,AB,2,4,,,,,0,43,43,11,,,,,,,,,,,,,,4,1,1.04964292884,,,,,,2016_Feb_16_1401,P14,PLC_L_D2S1,NHGY,60.0248144298,
stim/posf.jpg,stim/negf.jpg,stim/4.jpg,stim/6.jpg,stim/latef.jpg,EF,2,4,,,,,0,44,44,53,,,,,,,,,,,,,,4,1,1.33287721717,,,,,,2016_Feb_16_1401,P14,PLC_L_D2S1,NHGY,60.0248144298,
stim/negf.jpg,stim/posf.jpg,stim/2.jpg,stim/1.jpg,stim/latef.jpg,AB,1,2,,,,,0,45,45,8,,,,,,,,,,,,,,2,1,1.2162578407,,,,,,2016_Feb_16_1401,P14,PLC_L_D2S1,NHGY,60.0248144298,
stim/posf.jpg,stim/negf.jpg,stim/4.jpg,stim/6.jpg,stim/latef.jpg,EF,2,4,,,,,0,46,46,54,,,,,,,,,,,,,,4,1,1.08296368387,,,,,,2016_Feb_16_1401,P14,PLC_L_D2S1,NHGY,60.0248144298,
stim/posf.jpg,stim/negf.jpg,stim/6.jpg,stim/4.jpg,stim/latef.jpg,EF,1,2,,,,,0,47,47,40,,,,,,,,,,,,,,4,0,1.08302374334,,,,,,2016_Feb_16_1401,P14,PLC_L_D2S1,NHGY,60.0248144298,
stim/negf.jpg,stim/posf.jpg,stim/4.jpg,stim/6.jpg,stim/latef.jpg,EF,2,4,,,,,0,48,48,58,,,,,,,,,,,,,,4,1,0.866383876873,,,,,,2016_Feb_16_1401,P14,PLC_L_D2S1,NHGY,60.0248144298,
stim/posf.jpg,stim/negf.jpg,stim/2.jpg,stim/1.jpg,stim/latef.jpg,AB,1,2,,,,,0,49,49,5,,,,,,,,,,,,,,2,1,1.38280400447,,,,,,2016_Feb_16_1401,P14,PLC_L_D2S1,NHGY,60.0248144298,
stim/negf.jpg,stim/posf.jpg,stim/1.jpg,stim/2.jpg,stim/latef.jpg,AB,2,4,,,,,0,50,50,18,,,,,,,,,,,,,,2,0,1.23289933422,,,,,,2016_Feb_16_1401,P14,PLC_L_D2S1,NHGY,60.0248144298,
stim/posf.jpg,stim/negf.jpg,stim/6.jpg,stim/4.jpg,stim/latef.jpg,EF,1,2,,,,,0,51,51,43,,,,,,,,,,,,,,2,1,1.03305557907,,,,,,2016_Feb_16_1401,P14,PLC_L_D2S1,NHGY,60.0248144298,
stim/posf.jpg,stim/negf.jpg,stim/1.jpg,stim/2.jpg,stim/latef.jpg,AB,2,4,,,,,0,52,52,13,,,,,,,,,,,,,,4,1,1.04965594824,,,,,,2016_Feb_16_1401,P14,PLC_L_D2S1,NHGY,60.0248144298,
stim/posf.jpg,stim/negf.jpg,stim/6.jpg,stim/4.jpg,stim/latef.jpg,EF,1,2,,,,,0,53,53,45,,,,,,,,,,,,,,2,1,1.08290292064,,,,,,2016_Feb_16_1401,P14,PLC_L_D2S1,NHGY,60.0248144298,
stim/posf.jpg,stim/negf.jpg,stim/5.jpg,stim/3.jpg,stim/latef.jpg,CD,1,2,,,,,0,54,54,20,,,,,,,,,,,,,,2,1,0.966349125385,,,,,,2016_Feb_16_1401,P14,PLC_L_D2S1,NHGY,60.0248144298,
stim/posf.jpg,stim/negf.jpg,stim/1.jpg,stim/2.jpg,stim/latef.jpg,AB,2,4,,,,,0,55,55,14,,,,,,,,,,,,,,4,1,1.28288138404,,,,,,2016_Feb_16_1401,P14,PLC_L_D2S1,NHGY,60.0248144298,
stim/negf.jpg,stim/posf.jpg,stim/3.jpg,stim/5.jpg,stim/latef.jpg,CD,2,4,,,,,0,56,56,38,,,,,,,,,,,,,,4,1,0.866381630282,,,,,,2016_Feb_16_1401,P14,PLC_L_D2S1,NHGY,60.0248144298,
stim/posf.jpg,stim/negf.jpg,stim/1.jpg,stim/2.jpg,stim/latef.jpg,AB,2,4,,,,,0,57,57,15,,,,,,,,,,,,,,4,1,0.783050239283,,,,,,2016_Feb_16_1401,P14,PLC_L_D2S1,NHGY,60.0248144298,
stim/negf.jpg,stim/posf.jpg,stim/3.jpg,stim/5.jpg,stim/latef.jpg,CD,2,4,,,,,0,58,58,39,,,,,,,,,,,,,,4,1,1.31621384721,,,,,,2016_Feb_16_1401,P14,PLC_L_D2S1,NHGY,60.0248144298,
stim/posf.jpg,stim/negf.jpg,stim/3.jpg,stim/5.jpg,stim/latef.jpg,CD,2,4,,,,,0,59,59,35,,,,,,,,,,,,,,4,1,0.533152910305,,,,,,2016_Feb_16_1401,P14,PLC_L_D2S1,NHGY,60.0248144298,
,,,,,,,,,,,,,,,,,,,,,,,,,,,,,,,,0.9984375,1.0,1,0,0,2016_Feb_16_1401,P14,PLC_L_D2S1,NHGY,60.0248144298,
stim/posf.jpg,stim/negf.jpg,stim/4.jpg,stim/6.jpg,stim/latef.jpg,EF,2,4,,,,,,,,,0,0,0,52,,,,,,,,,,4,1,0.599767960512,,,,,,2016_Feb_16_1401,P14,PLC_L_D2S1,NHGY,60.0248144298,
stim/negf.jpg,stim/posf.jpg,stim/6.jpg,stim/4.jpg,stim/latef.jpg,EF,1,2,,,,,,,,,0,1,1,47,,,,,,,,,,2,1,0.733098315432,,,,,,2016_Feb_16_1401,P14,PLC_L_D2S1,NHGY,60.0248144298,
stim/posf.jpg,stim/negf.jpg,stim/1.jpg,stim/2.jpg,stim/latef.jpg,AB,2,4,,,,,,,,,0,2,2,14,,,,,,,,,,4,1,1.23292522265,,,,,,2016_Feb_16_1401,P14,PLC_L_D2S1,NHGY,60.0248144298,
stim/negf.jpg,stim/posf.jpg,stim/5.jpg,stim/3.jpg,stim/latef.jpg,CD,1,2,,,,,,,,,0,3,3,27,,,,,,,,,,2,1,0.533162441025,,,,,,2016_Feb_16_1401,P14,PLC_L_D2S1,NHGY,60.0248144298,
stim/posf.jpg,stim/negf.jpg,stim/6.jpg,stim/4.jpg,stim/latef.jpg,EF,1,2,,,,,,,,,0,4,4,43,,,,,,,,,,2,1,0.733095509449,,,,,,2016_Feb_16_1401,P14,PLC_L_D2S1,NHGY,60.0248144298,
stim/posf.jpg,stim/negf.jpg,stim/3.jpg,stim/5.jpg,stim/latef.jpg,CD,2,4,,,,,,,,,0,5,5,36,,,,,,,,,,4,1,0.766412090089,,,,,,2016_Feb_16_1401,P14,PLC_L_D2S1,NHGY,60.0248144298,
stim/negf.jpg,stim/posf.jpg,stim/5.jpg,stim/3.jpg,stim/latef.jpg,CD,1,2,,,,,,,,,0,6,6,28,,,,,,,,,,4,0,1.28283719808,,,,,,2016_Feb_16_1401,P14,PLC_L_D2S1,NHGY,60.0248144298,
stim/negf.jpg,stim/posf.jpg,stim/6.jpg,stim/4.jpg,stim/latef.jpg,EF,1,2,,,,,,,,,0,7,7,49,,,,,,,,,,4,0,1.48288591332,,,,,,2016_Feb_16_1401,P14,PLC_L_D2S1,NHGY,60.0248144298,
stim/negf.jpg,stim/posf.jpg,stim/3.jpg,stim/5.jpg,stim/latef.jpg,CD,2,4,,,,,,,,,0,8,8,37,,,,,,,,,,2,0,1.03297481307,,,,,,2016_Feb_16_1401,P14,PLC_L_D2S1,NHGY,60.0248144298,
stim/posf.jpg,stim/negf.jpg,stim/3.jpg,stim/5.jpg,stim/latef.jpg,CD,2,4,,,,,,,,,0,9,9,31,,,,,,,,,,4,1,0.799729903798,,,,,,2016_Feb_16_1401,P14,PLC_L_D2S1,NHGY,60.0248144298,
stim/posf.jpg,stim/negf.jpg,stim/1.jpg,stim/2.jpg,stim/latef.jpg,AB,2,4,,,,,,,,,0,10,10,12,,,,,,,,,,4,1,1.06630641008,,,,,,2016_Feb_16_1401,P14,PLC_L_D2S1,NHGY,60.0248144298,
stim/negf.jpg,stim/posf.jpg,stim/5.jpg,stim/3.jpg,stim/latef.jpg,CD,1,2,,,,,,,,,0,11,11,29,,,,,,,,,,4,0,1.26625189641,,,,,,2016_Feb_16_1401,P14,PLC_L_D2S1,NHGY,60.0248144298,
stim/posf.jpg,stim/negf.jpg,stim/1.jpg,stim/2.jpg,stim/latef.jpg,AB,2,4,,,,,,,,,0,12,12,15,,,,,,,,,,2,0,1.01632075428,,,,,,2016_Feb_16_1401,P14,PLC_L_D2S1,NHGY,60.0248144298,
stim/posf.jpg,stim/negf.jpg,stim/4.jpg,stim/6.jpg,stim/latef.jpg,EF,2,4,,,,,,,,,0,13,13,51,,,,,,,,,,4,1,1.21633178874,,,,,,2016_Feb_16_1401,P14,PLC_L_D2S1,NHGY,60.0248144298,
stim/posf.jpg,stim/negf.jpg,stim/4.jpg,stim/6.jpg,stim/latef.jpg,EF,2,4,,,,,,,,,0,14,14,54,,,,,,,,,,4,1,1.29951846859,,,,,,2016_Feb_16_1401,P14,PLC_L_D2S1,NHGY,60.0248144298,
stim/posf.jpg,stim/negf.jpg,stim/2.jpg,stim/1.jpg,stim/latef.jpg,AB,1,2,,,,,,,,,0,15,15,5,,,,,,,,,,2,1,1.16631778439,,,,,,2016_Feb_16_1401,P14,PLC_L_D2S1,NHGY,60.0248144298,
stim/posf.jpg,stim/negf.jpg,stim/2.jpg,stim/1.jpg,stim/latef.jpg,AB,1,2,,,,,,,,,0,16,16,7,,,,,,,,,,4,0,1.4161837453,,,,,,2016_Feb_16_1401,P14,PLC_L_D2S1,NHGY,60.0248144298,
stim/posf.jpg,stim/negf.jpg,stim/1.jpg,stim/2.jpg,stim/latef.jpg,AB,2,4,,,,,,,,,0,17,17,10,,,,,,,,,,4,1,0.933087356158,,,,,,2016_Feb_16_1401,P14,PLC_L_D2S1,NHGY,60.0248144298,
stim/posf.jpg,stim/negf.jpg,stim/5.jpg,stim/3.jpg,stim/latef.jpg,CD,1,2,,,,,,,,,0,18,18,25,,,,,,,,,,2,1,0.716409890114,,,,,,2016_Feb_16_1401,P14,PLC_L_D2S1,NHGY,60.0248144298,
stim/posf.jpg,stim/negf.jpg,stim/1.jpg,stim/2.jpg,stim/latef.jpg,AB,2,4,,,,,,,,,0,19,19,16,,,,,,,,,,2,0,1.26624356868,,,,,,2016_Feb_16_1401,P14,PLC_L_D2S1,NHGY,60.0248144298,
stim/posf.jpg,stim/negf.jpg,stim/5.jpg,stim/3.jpg,stim/latef.jpg,CD,1,2,,,,,,,,,0,20,20,22,,,,,,,,,,2,1,0.648779657372,,,,,,2016_Feb_16_1401,P14,PLC_L_D2S1,NHGY,60.0248144298,
stim/negf.jpg,stim/posf.jpg,stim/4.jpg,stim/6.jpg,stim/latef.jpg,EF,2,4,,,,,,,,,0,21,21,57,,,,,,,,,,4,1,0.949608204419,,,,,,2016_Feb_16_1401,P14,PLC_L_D2S1,NHGY,60.0248144298,
stim/negf.jpg,stim/posf.jpg,stim/3.jpg,stim/5.jpg,stim/latef.jpg,CD,2,4,,,,,,,,,0,22,22,39,,,,,,,,,,4,1,0.56641083296,,,,,,2016_Feb_16_1401,P14,PLC_L_D2S1,NHGY,60.0248144298,
stim/posf.jpg,stim/negf.jpg,stim/4.jpg,stim/6.jpg,stim/latef.jpg,EF,2,4,,,,,,,,,0,23,23,50,,,,,,,,,,4,1,0.299949480269,,,,,,2016_Feb_16_1401,P14,PLC_L_D2S1,NHGY,60.0248144298,
stim/posf.jpg,stim/negf.jpg,stim/2.jpg,stim/1.jpg,stim/latef.jpg,AB,1,2,,,,,,,,,0,24,24,1,,,,,,,,,,2,1,0.249909620568,,,,,,2016_Feb_16_1401,P14,PLC_L_D2S1,NHGY,60.0248144298,
stim/negf.jpg,stim/posf.jpg,stim/2.jpg,stim/1.jpg,stim/latef.jpg,AB,1,2,,,,,,,,,0,25,25,8,,,,,,,,,,4,0,0.283246970899,,,,,,2016_Feb_16_1401,P14,PLC_L_D2S1,NHGY,60.0248144298,
stim/posf.jpg,stim/negf.jpg,stim/2.jpg,stim/1.jpg,stim/latef.jpg,AB,1,2,,,,,,,,,0,26,26,6,,,,,,,,,,2,1,0.783056918907,,,,,,2016_Feb_16_1401,P14,PLC_L_D2S1,NHGY,60.0248144298,
stim/posf.jpg,stim/negf.jpg,stim/6.jpg,stim/4.jpg,stim/latef.jpg,EF,1,2,,,,,,,,,0,27,27,41,,,,,,,,,,4,0,1.61612410086,,,,,,2016_Feb_16_1401,P14,PLC_L_D2S1,NHGY,60.0248144298,
stim/posf.jpg,stim/negf.jpg,stim/5.jpg,stim/3.jpg,stim/latef.jpg,CD,1,2,,,,,,,,,0,28,28,23,,,,,,,,,,2,1,1.14956208464,,,,,,2016_Feb_16_1401,P14,PLC_L_D2S1,NHGY,60.0248144298,
stim/negf.jpg,stim/posf.jpg,stim/6.jpg,stim/4.jpg,stim/latef.jpg,EF,1,2,,,,,,,,,0,29,29,46,,,,,,,,,,2,1,0.93303060191,,,,,,2016_Feb_16_1401,P14,PLC_L_D2S1,NHGY,60.0248144298,
stim/posf.jpg,stim/negf.jpg,stim/3.jpg,stim/5.jpg,stim/latef.jpg,CD,2,4,,,,,,,,,0,30,30,30,,,,,,,,,,4,1,0.949682104337,,,,,,2016_Feb_16_1401,P14,PLC_L_D2S1,NHGY,60.0248144298,
stim/negf.jpg,stim/posf.jpg,stim/1.jpg,stim/2.jpg,stim/latef.jpg,AB,2,4,,,,,,,,,0,31,31,18,,,,,,,,,,4,1,0.583143158536,,,,,,2016_Feb_16_1401,P14,PLC_L_D2S1,NHGY,60.0248144298,
stim/posf.jpg,stim/negf.jpg,stim/4.jpg,stim/6.jpg,stim/latef.jpg,EF,2,4,,,,,,,,,0,32,32,53,,,,,,,,,,4,1,0.666434480814,,,,,,2016_Feb_16_1401,P14,PLC_L_D2S1,NHGY,60.0248144298,
stim/negf.jpg,stim/posf.jpg,stim/4.jpg,stim/6.jpg,stim/latef.jpg,EF,2,4,,,,,,,,,0,33,33,58,,,,,,,,,,4,1,1.48283750785,,,,,,2016_Feb_16_1401,P14,PLC_L_D2S1,NHGY,60.0248144298,
stim/posf.jpg,stim/negf.jpg,stim/5.jpg,stim/3.jpg,stim/latef.jpg,CD,1,2,,,,,,,,,0,34,34,21,,,,,,,,,,2,1,0.549801712011,,,,,,2016_Feb_16_1401,P14,PLC_L_D2S1,NHGY,60.0248144298,
stim/posf.jpg,stim/negf.jpg,stim/1.jpg,stim/2.jpg,stim/latef.jpg,AB,2,4,,,,,,,,,0,35,35,13,,,,,,,,,,4,1,0.633106607068,,,,,,2016_Feb_16_1401,P14,PLC_L_D2S1,NHGY,60.0248144298,
stim/negf.jpg,stim/posf.jpg,stim/2.jpg,stim/1.jpg,stim/latef.jpg,AB,1,2,,,,,,,,,0,36,36,9,,,,,,,,,,2,1,0.849770040188,,,,,,2016_Feb_16_1401,P14,PLC_L_D2S1,NHGY,60.0248144298,
stim/negf.jpg,stim/posf.jpg,stim/4.jpg,stim/6.jpg,stim/latef.jpg,EF,2,4,,,,,,,,,0,37,37,56,,,,,,,,,,4,1,0.699771136416,,,,,,2016_Feb_16_1401,P14,PLC_L_D2S1,NHGY,60.0248144298,
stim/posf.jpg,stim/negf.jpg,stim/2.jpg,stim/1.jpg,stim/latef.jpg,AB,1,2,,,,,,,,,0,38,38,4,,,,,,,,,,4,0,0.666386866314,,,,,,2016_Feb_16_1401,P14,PLC_L_D2S1,NHGY,60.0248144298,
stim/posf.jpg,stim/negf.jpg,stim/3.jpg,stim/5.jpg,stim/latef.jpg,CD,2,4,,,,,,,,,0,39,39,32,,,,,,,,,,4,1,0.499820227591,,,,,,2016_Feb_16_1401,P14,PLC_L_D2S1,NHGY,60.0248144298,
stim/posf.jpg,stim/negf.jpg,stim/1.jpg,stim/2.jpg,stim/latef.jpg,AB,2,4,,,,,,,,,0,40,40,17,,,,,,,,,,4,1,0.8663568456,,,,,,2016_Feb_16_1401,P14,PLC_L_D2S1,NHGY,60.0248144298,
stim/posf.jpg,stim/negf.jpg,stim/3.jpg,stim/5.jpg,stim/latef.jpg,CD,2,4,,,,,,,,,0,41,41,33,,,,,,,,,,2,0,0.549820129848,,,,,,2016_Feb_16_1401,P14,PLC_L_D2S1,NHGY,60.0248144298,
stim/negf.jpg,stim/posf.jpg,stim/1.jpg,stim/2.jpg,stim/latef.jpg,AB,2,4,,,,,,,,,0,42,42,19,,,,,,,,,,4,1,0.666395179001,,,,,,2016_Feb_16_1401,P14,PLC_L_D2S1,NHGY,60.0248144298,
stim/posf.jpg,stim/negf.jpg,stim/6.jpg,stim/4.jpg,stim/latef.jpg,EF,1,2,,,,,,,,,0,43,43,40,,,,,,,,,,2,1,0.783065060169,,,,,,2016_Feb_16_1401,P14,PLC_L_D2S1,NHGY,60.0248144298,
stim/posf.jpg,stim/negf.jpg,stim/4.jpg,stim/6.jpg,stim/latef.jpg,EF,2,4,,,,,,,,,0,44,44,55,,,,,,,,,,4,1,1.03297646418,,,,,,2016_Feb_16_1401,P14,PLC_L_D2S1,NHGY,60.0248144298,
stim/posf.jpg,stim/negf.jpg,stim/6.jpg,stim/4.jpg,stim/latef.jpg,EF,1,2,,,,,,,,,0,45,45,45,,,,,,,,,,2,1,0.916355911775,,,,,,2016_Feb_16_1401,P14,PLC_L_D2S1,NHGY,60.0248144298,
stim/posf.jpg,stim/negf.jpg,stim/6.jpg,stim/4.jpg,stim/latef.jpg,EF,1,2,,,,,,,,,0,46,46,44,,,,,,,,,,4,0,1.11627040898,,,,,,2016_Feb_16_1401,P14,PLC_L_D2S1,NHGY,60.0248144298,
stim/posf.jpg,stim/negf.jpg,stim/1.jpg,stim/2.jpg,stim/latef.jpg,AB,2,4,,,,,,,,,0,47,47,11,,,,,,,,,,4,1,0.683109188994,,,,,,2016_Feb_16_1401,P14,PLC_L_D2S1,NHGY,60.0248144298,
stim/negf.jpg,stim/posf.jpg,stim/6.jpg,stim/4.jpg,stim/latef.jpg,EF,1,2,,,,,,,,,0,48,48,48,,,,,,,,,,2,1,0.866362388394,,,,,,2016_Feb_16_1401,P14,PLC_L_D2S1,NHGY,60.0248144298,
stim/negf.jpg,stim/posf.jpg,stim/4.jpg,stim/6.jpg,stim/latef.jpg,EF,2,4,,,,,,,,,0,49,49,59,,,,,,,,,,2,0,1.1162803397,,,,,,2016_Feb_16_1401,P14,PLC_L_D2S1,NHGY,60.0248144298,
stim/posf.jpg,stim/negf.jpg,stim/3.jpg,stim/5.jpg,stim/latef.jpg,CD,2,4,,,,,,,,,0,50,50,35,,,,,,,,,,4,1,0.749726031661,,,,,,2016_Feb_16_1401,P14,PLC_L_D2S1,NHGY,60.0248144298,
stim/posf.jpg,stim/negf.jpg,stim/5.jpg,stim/3.jpg,stim/latef.jpg,CD,1,2,,,,,,,,,0,51,51,24,,,,,,,,,,2,1,0.733101671786,,,,,,2016_Feb_16_1401,P14,PLC_L_D2S1,NHGY,60.0248144298,
stim/negf.jpg,stim/posf.jpg,stim/3.jpg,stim/5.jpg,stim/latef.jpg,CD,2,4,,,,,,,,,0,52,52,38,,,,,,,,,,4,1,0.79969973271,,,,,,2016_Feb_16_1401,P14,PLC_L_D2S1,NHGY,60.0248144298,
stim/posf.jpg,stim/negf.jpg,stim/5.jpg,stim/3.jpg,stim/latef.jpg,CD,1,2,,,,,,,,,0,53,53,26,,,,,,,,,,2,1,0.99965792867,,,,,,2016_Feb_16_1401,P14,PLC_L_D2S1,NHGY,60.0248144298,
stim/posf.jpg,stim/negf.jpg,stim/6.jpg,stim/4.jpg,stim/latef.jpg,EF,1,2,,,,,,,,,0,54,54,42,,,,,,,,,,2,1,0.88309764326,,,,,,2016_Feb_16_1401,P14,PLC_L_D2S1,NHGY,60.0248144298,
stim/posf.jpg,stim/negf.jpg,stim/2.jpg,stim/1.jpg,stim/latef.jpg,AB,1,2,,,,,,,,,0,55,55,3,,,,,,,,,,4,0,0.766387389616,,,,,,2016_Feb_16_1401,P14,PLC_L_D2S1,NHGY,60.0248144298,
stim/posf.jpg,stim/negf.jpg,stim/2.jpg,stim/1.jpg,stim/latef.jpg,AB,1,2,,,,,,,,,0,56,56,2,,,,,,,,,,4,0,0.666493616989,,,,,,2016_Feb_16_1401,P14,PLC_L_D2S1,NHGY,60.0248144298,
stim/posf.jpg,stim/negf.jpg,stim/2.jpg,stim/1.jpg,stim/latef.jpg,AB,1,2,,,,,,,,,0,57,57,0,,,,,,,,,,4,0,0.983017301308,,,,,,2016_Feb_16_1401,P14,PLC_L_D2S1,NHGY,60.0248144298,
stim/posf.jpg,stim/negf.jpg,stim/5.jpg,stim/3.jpg,stim/latef.jpg,CD,1,2,,,,,,,,,0,58,58,20,,,,,,,,,,2,1,0.916358741819,,,,,,2016_Feb_16_1401,P14,PLC_L_D2S1,NHGY,60.0248144298,
stim/posf.jpg,stim/negf.jpg,stim/3.jpg,stim/5.jpg,stim/latef.jpg,CD,2,4,,,,,,,,,0,59,59,34,,,,,,,,,,4,1,0.533170200336,,,,,,2016_Feb_16_1401,P14,PLC_L_D2S1,NHGY,60.0248144298,
,,,,,,,,,,,,,,,,,,,,,,,,,,,,,,,,0.9984375,1.0,1,0,0,2016_Feb_16_1401,P14,PLC_L_D2S1,NHGY,60.0248144298,
stim/negf.jpg,stim/posf.jpg,stim/2.jpg,stim/1.jpg,stim/latef.jpg,AB,1,2,,,,,,,,,,,,,0,0,0,8,,,,,,2,1,0.999682890794,,,,,,2016_Feb_16_1401,P14,PLC_L_D2S1,NHGY,60.0248144298,
stim/posf.jpg,stim/negf.jpg,stim/4.jpg,stim/6.jpg,stim/latef.jpg,EF,2,4,,,,,,,,,,,,,0,1,1,52,,,,,,4,1,0.54981369383,,,,,,2016_Feb_16_1401,P14,PLC_L_D2S1,NHGY,60.0248144298,
stim/posf.jpg,stim/negf.jpg,stim/2.jpg,stim/1.jpg,stim/latef.jpg,AB,1,2,,,,,,,,,,,,,0,2,2,7,,,,,,2,1,0.89969371774,,,,,,2016_Feb_16_1401,P14,PLC_L_D2S1,NHGY,60.0248144298,
stim/negf.jpg,stim/posf.jpg,stim/4.jpg,stim/6.jpg,stim/latef.jpg,EF,2,4,,,,,,,,,,,,,0,3,3,57,,,,,,4,1,0.799717242287,,,,,,2016_Feb_16_1401,P14,PLC_L_D2S1,NHGY,60.0248144298,
stim/posf.jpg,stim/negf.jpg,stim/1.jpg,stim/2.jpg,stim/latef.jpg,AB,2,4,,,,,,,,,,,,,0,4,4,10,,,,,,4,1,0.566471902948,,,,,,2016_Feb_16_1401,P14,PLC_L_D2S1,NHGY,60.0248144298,
stim/posf.jpg,stim/negf.jpg,stim/1.jpg,stim/2.jpg,stim/latef.jpg,AB,2,4,,,,,,,,,,,,,0,5,5,17,,,,,,2,0,1.08295273662,,,,,,2016_Feb_16_1401,P14,PLC_L_D2S1,NHGY,60.0248144298,
stim/negf.jpg,stim/posf.jpg,stim/2.jpg,stim/1.jpg,stim/latef.jpg,AB,1,2,,,,,,,,,,,,,0,6,6,9,,,,,,2,1,0.966350102819,,,,,,2016_Feb_16_1401,P14,PLC_L_D2S1,NHGY,60.0248144298,
stim/posf.jpg,stim/negf.jpg,stim/2.jpg,stim/1.jpg,stim/latef.jpg,AB,1,2,,,,,,,,,,,,,0,7,7,3,,,,,,2,1,1.36622395988,,,,,,2016_Feb_16_1401,P14,PLC_L_D2S1,NHGY,60.0248144298,
stim/posf.jpg,stim/negf.jpg,stim/1.jpg,stim/2.jpg,stim/latef.jpg,AB,2,4,,,,,,,,,,,,,0,8,8,16,,,,,,4,1,1.43286005947,,,,,,2016_Feb_16_1401,P14,PLC_L_D2S1,NHGY,60.0248144298,
stim/negf.jpg,stim/posf.jpg,stim/4.jpg,stim/6.jpg,stim/latef.jpg,EF,2,4,,,,,,,,,,,,,0,9,9,56,,,,,,4,1,0.516476400642,,,,,,2016_Feb_16_1401,P14,PLC_L_D2S1,NHGY,60.0248144298,
stim/posf.jpg,stim/negf.jpg,stim/1.jpg,stim/2.jpg,stim/latef.jpg,AB,2,4,,,,,,,,,,,,,0,10,10,12,,,,,,4,1,0.616446446093,,,,,,2016_Feb_16_1401,P14,PLC_L_D2S1,NHGY,60.0248144298,
stim/posf.jpg,stim/negf.jpg,stim/5.jpg,stim/3.jpg,stim/latef.jpg,CD,1,2,,,,,,,,,,,,,0,11,11,22,,,,,,2,1,0.533158669639,,,,,,2016_Feb_16_1401,P14,PLC_L_D2S1,NHGY,60.0248144298,
stim/negf.jpg,stim/posf.jpg,stim/5.jpg,stim/3.jpg,stim/latef.jpg,CD,1,2,,,,,,,,,,,,,0,12,12,29,,,,,,4,0,1.11628375319,,,,,,2016_Feb_16_1401,P14,PLC_L_D2S1,NHGY,60.0248144298,
stim/negf.jpg,stim/posf.jpg,stim/4.jpg,stim/6.jpg,stim/latef.jpg,EF,2,4,,,,,,,,,,,,,0,13,13,59,,,,,,2,0,0.216658133931,,,,,,2016_Feb_16_1401,P14,PLC_L_D2S1,NHGY,60.0248144298,
stim/posf.jpg,stim/negf.jpg,stim/3.jpg,stim/5.jpg,stim/latef.jpg,CD,2,4,,,,,,,,,,,,,0,14,14,36,,,,,,4,1,0.216581190438,,,,,,2016_Feb_16_1401,P14,PLC_L_D2S1,NHGY,60.0248144298,
stim/negf.jpg,stim/posf.jpg,stim/3.jpg,stim/5.jpg,stim/latef.jpg,CD,2,4,,,,,,,,,,,,,0,15,15,37,,,,,,2,0,0.266543851009,,,,,,2016_Feb_16_1401,P14,PLC_L_D2S1,NHGY,60.0248144298,
stim/posf.jpg,stim/negf.jpg,stim/4.jpg,stim/6.jpg,stim/latef.jpg,EF,2,4,,,,,,,,,,,,,0,16,16,53,,,,,,4,1,0.699767701868,,,,,,2016_Feb_16_1401,P14,PLC_L_D2S1,NHGY,60.0248144298,
stim/posf.jpg,stim/negf.jpg,stim/4.jpg,stim/6.jpg,stim/latef.jpg,EF,2,4,,,,,,,,,,,,,0,17,17,55,,,,,,2,0,0.233244401003,,,,,,2016_Feb_16_1401,P14,PLC_L_D2S1,NHGY,60.0248144298,
stim/posf.jpg,stim/negf.jpg,stim/2.jpg,stim/1.jpg,stim/latef.jpg,AB,1,2,,,,,,,,,,,,,0,18,18,1,,,,,,4,0,0.483153666688,,,,,,2016_Feb_16_1401,P14,PLC_L_D2S1,NHGY,60.0248144298,
stim/posf.jpg,stim/negf.jpg,stim/5.jpg,stim/3.jpg,stim/latef.jpg,CD,1,2,,,,,,,,,,,,,0,19,19,24,,,,,,2,1,0.249994482769,,,,,,2016_Feb_16_1401,P14,PLC_L_D2S1,NHGY,60.0248144298,
stim/posf.jpg,stim/negf.jpg,stim/5.jpg,stim/3.jpg,stim/latef.jpg,CD,1,2,,,,,,,,,,,,,0,20,20,23,,,,,,4,0,0.216577428074,,,,,,2016_Feb_16_1401,P14,PLC_L_D2S1,NHGY,60.0248144298,
stim/posf.jpg,stim/negf.jpg,stim/3.jpg,stim/5.jpg,stim/latef.jpg,CD,2,4,,,,,,,,,,,,,0,21,21,31,,,,,,4,1,0.833047437811,,,,,,2016_Feb_16_1401,P14,PLC_L_D2S1,NHGY,60.0248144298,
stim/posf.jpg,stim/negf.jpg,stim/4.jpg,stim/6.jpg,stim/latef.jpg,EF,2,4,,,,,,,,,,,,,0,22,22,50,,,,,,4,1,0.899690385447,,,,,,2016_Feb_16_1401,P14,PLC_L_D2S1,NHGY,60.0248144298,
stim/posf.jpg,stim/negf.jpg,stim/6.jpg,stim/4.jpg,stim/latef.jpg,EF,1,2,,,,,,,,,,,,,0,23,23,41,,,,,,2,1,0.599710358154,,,,,,2016_Feb_16_1401,P14,PLC_L_D2S1,NHGY,60.0248144298,
stim/posf.jpg,stim/negf.jpg,stim/3.jpg,stim/5.jpg,stim/latef.jpg,CD,2,4,,,,,,,,,,,,,0,24,24,33,,,,,,4,1,0.683118097164,,,,,,2016_Feb_16_1401,P14,PLC_L_D2S1,NHGY,60.0248144298,
stim/posf.jpg,stim/negf.jpg,stim/6.jpg,stim/4.jpg,stim/latef.jpg,EF,1,2,,,,,,,,,,,,,0,25,25,40,,,,,,4,0,0.949692350838,,,,,,2016_Feb_16_1401,P14,PLC_L_D2S1,NHGY,60.0248144298,
stim/posf.jpg,stim/negf.jpg,stim/3.jpg,stim/5.jpg,stim/latef.jpg,CD,2,4,,,,,,,,,,,,,0,26,26,35,,,,,,4,1,0.516571175513,,,,,,2016_Feb_16_1401,P14,PLC_L_D2S1,NHGY,60.0248144298,
stim/posf.jpg,stim/negf.jpg,stim/3.jpg,stim/5.jpg,stim/latef.jpg,CD,2,4,,,,,,,,,,,,,0,27,27,30,,,,,,2,0,0.566432784593,,,,,,2016_Feb_16_1401,P14,PLC_L_D2S1,NHGY,60.0248144298,
stim/negf.jpg,stim/posf.jpg,stim/3.jpg,stim/5.jpg,stim/latef.jpg,CD,2,4,,,,,,,,,,,,,0,28,28,38,,,,,,2,0,0.966325071522,,,,,,2016_Feb_16_1401,P14,PLC_L_D2S1,NHGY,60.0248144298,
stim/posf.jpg,stim/negf.jpg,stim/6.jpg,stim/4.jpg,stim/latef.jpg,EF,1,2,,,,,,,,,,,,,0,29,29,44,,,,,,4,0,0.299898473325,,,,,,2016_Feb_16_1401,P14,PLC_L_D2S1,NHGY,60.0248144298,
stim/posf.jpg,stim/negf.jpg,stim/6.jpg,stim/4.jpg,stim/latef.jpg,EF,1,2,,,,,,,,,,,,,0,30,30,42,,,,,,2,1,0.616440569468,,,,,,2016_Feb_16_1401,P14,PLC_L_D2S1,NHGY,60.0248144298,
stim/posf.jpg,stim/negf.jpg,stim/6.jpg,stim/4.jpg,stim/latef.jpg,EF,1,2,,,,,,,,,,,,,0,31,31,43,,,,,,2,1,0.73307148566,,,,,,2016_Feb_16_1401,P14,PLC_L_D2S1,NHGY,60.0248144298,
stim/negf.jpg,stim/posf.jpg,stim/5.jpg,stim/3.jpg,stim/latef.jpg,CD,1,2,,,,,,,,,,,,,0,32,32,28,,,,,,2,1,0.549867266159,,,,,,2016_Feb_16_1401,P14,PLC_L_D2S1,NHGY,60.0248144298,
stim/posf.jpg,stim/negf.jpg,stim/2.jpg,stim/1.jpg,stim/latef.jpg,AB,1,2,,,,,,,,,,,,,0,33,33,6,,,,,,2,1,0.949703355225,,,,,,2016_Feb_16_1401,P14,PLC_L_D2S1,NHGY,60.0248144298,
stim/posf.jpg,stim/negf.jpg,stim/2.jpg,stim/1.jpg,stim/latef.jpg,AB,1,2,,,,,,,,,,,,,0,34,34,2,,,,,,4,0,1.28292331139,,,,,,2016_Feb_16_1401,P14,PLC_L_D2S1,NHGY,60.0248144298,
stim/posf.jpg,stim/negf.jpg,stim/6.jpg,stim/4.jpg,stim/latef.jpg,EF,1,2,,,,,,,,,,,,,0,35,35,45,,,,,,2,1,0.833000379695,,,,,,2016_Feb_16_1401,P14,PLC_L_D2S1,NHGY,60.0248144298,
stim/posf.jpg,stim/negf.jpg,stim/5.jpg,stim/3.jpg,stim/latef.jpg,CD,1,2,,,,,,,,,,,,,0,36,36,21,,,,,,4,0,1.3162316034,,,,,,2016_Feb_16_1401,P14,PLC_L_D2S1,NHGY,60.0248144298,
stim/posf.jpg,stim/negf.jpg,stim/2.jpg,stim/1.jpg,stim/latef.jpg,AB,1,2,,,,,,,,,,,,,0,37,37,5,,,,,,4,0,1.16620730443,,,,,,2016_Feb_16_1401,P14,PLC_L_D2S1,NHGY,60.0248144298,
stim/negf.jpg,stim/posf.jpg,stim/6.jpg,stim/4.jpg,stim/latef.jpg,EF,1,2,,,,,,,,,,,,,0,38,38,46,,,,,,2,1,0.716401646598,,,,,,2016_Feb_16_1401,P14,PLC_L_D2S1,NHGY,60.0248144298,
stim/posf.jpg,stim/negf.jpg,stim/5.jpg,stim/3.jpg,stim/latef.jpg,CD,1,2,,,,,,,,,,,,,0,39,39,26,,,,,,2,1,0.216581292692,,,,,,2016_Feb_16_1401,P14,PLC_L_D2S1,NHGY,60.0248144298,
stim/posf.jpg,stim/negf.jpg,stim/1.jpg,stim/2.jpg,stim/latef.jpg,AB,2,4,,,,,,,,,,,,,0,40,40,11,,,,,,4,1,0.799741001417,,,,,,2016_Feb_16_1401,P14,PLC_L_D2S1,NHGY,60.0248144298,
stim/posf.jpg,stim/negf.jpg,stim/1.jpg,stim/2.jpg,stim/latef.jpg,AB,2,4,,,,,,,,,,,,,0,41,41,15,,,,,,2,0,0.933014923892,,,,,,2016_Feb_16_1401,P14,PLC_L_D2S1,NHGY,60.0248144298,
stim/posf.jpg,stim/negf.jpg,stim/4.jpg,stim/6.jpg,stim/latef.jpg,EF,2,4,,,,,,,,,,,,,0,42,42,54,,,,,,4,1,0.73309286587,,,,,,2016_Feb_16_1401,P14,PLC_L_D2S1,NHGY,60.0248144298,
stim/negf.jpg,stim/posf.jpg,stim/6.jpg,stim/4.jpg,stim/latef.jpg,EF,1,2,,,,,,,,,,,,,0,43,43,49,,,,,,2,1,0.749805393172,,,,,,2016_Feb_16_1401,P14,PLC_L_D2S1,NHGY,60.0248144298,
stim/posf.jpg,stim/negf.jpg,stim/4.jpg,stim/6.jpg,stim/latef.jpg,EF,2,4,,,,,,,,,,,,,0,44,44,51,,,,,,4,1,0.633102958989,,,,,,2016_Feb_16_1401,P14,PLC_L_D2S1,NHGY,60.0248144298,
stim/negf.jpg,stim/posf.jpg,stim/3.jpg,stim/5.jpg,stim/latef.jpg,CD,2,4,,,,,,,,,,,,,0,45,45,39,,,,,,2,0,0.94967416157,,,,,,2016_Feb_16_1401,P14,PLC_L_D2S1,NHGY,60.0248144298,
stim/negf.jpg,stim/posf.jpg,stim/6.jpg,stim/4.jpg,stim/latef.jpg,EF,1,2,,,,,,,,,,,,,0,46,46,47,,,,,,2,1,1.13294869907,,,,,,2016_Feb_16_1401,P14,PLC_L_D2S1,NHGY,60.0248144298,
stim/posf.jpg,stim/negf.jpg,stim/1.jpg,stim/2.jpg,stim/latef.jpg,AB,2,4,,,,,,,,,,,,,0,47,47,14,,,,,,4,1,0.383207124732,,,,,,2016_Feb_16_1401,P14,PLC_L_D2S1,NHGY,60.0248144298,
stim/posf.jpg,stim/negf.jpg,stim/5.jpg,stim/3.jpg,stim/latef.jpg,CD,1,2,,,,,,,,,,,,,0,48,48,20,,,,,,2,1,1.13293078649,,,,,,2016_Feb_16_1401,P14,PLC_L_D2S1,NHGY,60.0248144298,
stim/posf.jpg,stim/negf.jpg,stim/5.jpg,stim/3.jpg,stim/latef.jpg,CD,1,2,,,,,,,,,,,,,0,49,49,25,,,,,,4,0,0.749763856799,,,,,,2016_Feb_16_1401,P14,PLC_L_D2S1,NHGY,60.0248144298,
stim/negf.jpg,stim/posf.jpg,stim/6.jpg,stim/4.jpg,stim/latef.jpg,EF,1,2,,,,,,,,,,,,,0,50,50,48,,,,,,2,1,0.999654100142,,,,,,2016_Feb_16_1401,P14,PLC_L_D2S1,NHGY,60.0248144298,
stim/posf.jpg,stim/negf.jpg,stim/3.jpg,stim/5.jpg,stim/latef.jpg,CD,2,4,,,,,,,,,,,,,0,51,51,32,,,,,,4,1,0.466500371801,,,,,,2016_Feb_16_1401,P14,PLC_L_D2S1,NHGY,60.0248144298,
stim/negf.jpg,stim/posf.jpg,stim/5.jpg,stim/3.jpg,stim/latef.jpg,CD,1,2,,,,,,,,,,,,,0,52,52,27,,,,,,4,0,0.699755479449,,,,,,2016_Feb_16_1401,P14,PLC_L_D2S1,NHGY,60.0248144298,
stim/posf.jpg,stim/negf.jpg,stim/1.jpg,stim/2.jpg,stim/latef.jpg,AB,2,4,,,,,,,,,,,,,0,53,53,13,,,,,,2,0,0.849735842077,,,,,,2016_Feb_16_1401,P14,PLC_L_D2S1,NHGY,60.0248144298,
stim/posf.jpg,stim/negf.jpg,stim/3.jpg,stim/5.jpg,stim/latef.jpg,CD,2,4,,,,,,,,,,,,,0,54,54,34,,,,,,4,1,0.816438918358,,,,,,2016_Feb_16_1401,P14,PLC_L_D2S1,NHGY,60.0248144298,
stim/negf.jpg,stim/posf.jpg,stim/4.jpg,stim/6.jpg,stim/latef.jpg,EF,2,4,,,,,,,,,,,,,0,55,55,58,,,,,,4,1,0.333200786457,,,,,,2016_Feb_16_1401,P14,PLC_L_D2S1,NHGY,60.0248144298,
stim/negf.jpg,stim/posf.jpg,stim/1.jpg,stim/2.jpg,stim/latef.jpg,AB,2,4,,,,,,,,,,,,,0,56,56,18,,,,,,4,1,0.233237850701,,,,,,2016_Feb_16_1401,P14,PLC_L_D2S1,NHGY,60.0248144298,
stim/posf.jpg,stim/negf.jpg,stim/2.jpg,stim/1.jpg,stim/latef.jpg,AB,1,2,,,,,,,,,,,,,0,57,57,4,,,,,,2,1,1.46619157228,,,,,,2016_Feb_16_1401,P14,PLC_L_D2S1,NHGY,60.0248144298,
stim/posf.jpg,stim/negf.jpg,stim/2.jpg,stim/1.jpg,stim/latef.jpg,AB,1,2,,,,,,,,,,,,,0,58,58,0,,,,,,4,0,1.41618227464,,,,,,2016_Feb_16_1401,P14,PLC_L_D2S1,NHGY,60.0248144298,
stim/negf.jpg,stim/posf.jpg,stim/1.jpg,stim/2.jpg,stim/latef.jpg,AB,2,4,,,,,,,,,,,,,0,59,59,19,,,,,,4,1,0.916345689334,,,,,,2016_Feb_16_1401,P14,PLC_L_D2S1,NHGY,60.0248144298,
