fb_corr,fb_incorr,symbol2,symbol1,fb_late,pair,position,correct,block_01.thisRepN,block_01.thisTrialN,block_01.thisN,block_01.thisIndex,block_02.thisRepN,block_02.thisTrialN,block_02.thisN,block_02.thisIndex,block_03.thisRepN,block_03.thisTrialN,block_03.thisN,block_03.thisIndex,block_04.thisRepN,block_04.thisTrialN,block_04.thisN,block_04.thisIndex,mouse.x,mouse.y,mouse.leftButton,mouse.midButton,mouse.rightButton,buttonBox_2.keys,buttonBox_2.corr,buttonBox_2.rt,mouse_2.x,mouse_2.y,mouse_2.leftButton,mouse_2.midButton,mouse_2.rightButton,date,Participant,expName,Group,frameRate,
,,,,,,,,,,,,,,,,,,,,,,,,0.9984375,0.6875,1,0,0,,,,,,,,,2016_Feb_19_1424,P15,PLC_L_D2S1,NHGY,60.0213384734,
stim/posf.jpg,stim/negf.jpg,stim/4.jpg,stim/6.jpg,stim/latef.jpg,CD,1,2,0,0,0,23,,,,,,,,,,,,,,,,,,2,1,0.63316397785,,,,,,2016_Feb_19_1424,P15,PLC_L_D2S1,NHGY,60.0213384734,
stim/negf.jpg,stim/posf.jpg,stim/4.jpg,stim/6.jpg,stim/latef.jpg,CD,1,2,0,1,1,29,,,,,,,,,,,,,,,,,,2,1,0.733085741138,,,,,,2016_Feb_19_1424,P15,PLC_L_D2S1,NHGY,60.0213384734,
stim/negf.jpg,stim/posf.jpg,stim/1.jpg,stim/3.jpg,stim/latef.jpg,EF,2,4,0,2,2,58,,,,,,,,,,,,,,,,,,4,1,0.983034101119,,,,,,2016_Feb_19_1424,P15,PLC_L_D2S1,NHGY,60.0213384734,
stim/posf.jpg,stim/negf.jpg,stim/4.jpg,stim/6.jpg,stim/latef.jpg,CD,1,2,0,3,3,22,,,,,,,,,,,,,,,,,,2,1,0.733077226949,,,,,,2016_Feb_19_1424,P15,PLC_L_D2S1,NHGY,60.0213384734,
stim/negf.jpg,stim/posf.jpg,stim/6.jpg,stim/4.jpg,stim/latef.jpg,CD,2,4,0,4,4,38,,,,,,,,,,,,,,,,,,4,1,0.79972208133,,,,,,2016_Feb_19_1424,P15,PLC_L_D2S1,NHGY,60.0213384734,
stim/posf.jpg,stim/negf.jpg,stim/5.jpg,stim/2.jpg,stim/latef.jpg,AB,1,2,0,5,5,7,,,,,,,,,,,,,,,,,,2,1,0.849713325038,,,,,,2016_Feb_19_1424,P15,PLC_L_D2S1,NHGY,60.0213384734,
stim/negf.jpg,stim/posf.jpg,stim/3.jpg,stim/1.jpg,stim/latef.jpg,EF,1,2,0,6,6,48,,,,,,,,,,,,,,,,,,2,1,0.933036583798,,,,,,2016_Feb_19_1424,P15,PLC_L_D2S1,NHGY,60.0213384734,
stim/posf.jpg,stim/negf.jpg,stim/1.jpg,stim/3.jpg,stim/latef.jpg,EF,2,4,0,7,7,50,,,,,,,,,,,,,,,,,,4,1,0.799734472168,,,,,,2016_Feb_19_1424,P15,PLC_L_D2S1,NHGY,60.0213384734,
stim/posf.jpg,stim/negf.jpg,stim/6.jpg,stim/4.jpg,stim/latef.jpg,CD,2,4,0,8,8,30,,,,,,,,,,,,,,,,,,4,1,0.649788436972,,,,,,2016_Feb_19_1424,P15,PLC_L_D2S1,NHGY,60.0213384734,
stim/posf.jpg,stim/negf.jpg,stim/6.jpg,stim/4.jpg,stim/latef.jpg,CD,2,4,0,9,9,36,,,,,,,,,,,,,,,,,,4,1,0.633128321109,,,,,,2016_Feb_19_1424,P15,PLC_L_D2S1,NHGY,60.0213384734,
stim/posf.jpg,stim/negf.jpg,stim/3.jpg,stim/1.jpg,stim/latef.jpg,EF,1,2,0,10,10,41,,,,,,,,,,,,,,,,,,2,1,0.816402524784,,,,,,2016_Feb_19_1424,P15,PLC_L_D2S1,NHGY,60.0213384734,
stim/posf.jpg,stim/negf.jpg,stim/1.jpg,stim/3.jpg,stim/latef.jpg,EF,2,4,0,11,11,53,,,,,,,,,,,,,,,,,,4,1,0.783067237588,,,,,,2016_Feb_19_1424,P15,PLC_L_D2S1,NHGY,60.0213384734,
stim/posf.jpg,stim/negf.jpg,stim/1.jpg,stim/3.jpg,stim/latef.jpg,EF,2,4,0,12,12,55,,,,,,,,,,,,,,,,,,4,1,0.749764004165,,,,,,2016_Feb_19_1424,P15,PLC_L_D2S1,NHGY,60.0213384734,
stim/posf.jpg,stim/negf.jpg,stim/5.jpg,stim/2.jpg,stim/latef.jpg,AB,1,2,0,13,13,0,,,,,,,,,,,,,,,,,,2,1,0.866391985053,,,,,,2016_Feb_19_1424,P15,PLC_L_D2S1,NHGY,60.0213384734,
stim/posf.jpg,stim/negf.jpg,stim/5.jpg,stim/2.jpg,stim/latef.jpg,AB,1,2,0,14,14,4,,,,,,,,,,,,,,,,,,2,1,0.71643103574,,,,,,2016_Feb_19_1424,P15,PLC_L_D2S1,NHGY,60.0213384734,
stim/posf.jpg,stim/negf.jpg,stim/5.jpg,stim/2.jpg,stim/latef.jpg,AB,1,2,0,15,15,5,,,,,,,,,,,,,,,,,,2,1,0.566501012395,,,,,,2016_Feb_19_1424,P15,PLC_L_D2S1,NHGY,60.0213384734,
stim/negf.jpg,stim/posf.jpg,stim/3.jpg,stim/1.jpg,stim/latef.jpg,EF,1,2,0,16,16,47,,,,,,,,,,,,,,,,,,2,1,0.766487147889,,,,,,2016_Feb_19_1424,P15,PLC_L_D2S1,NHGY,60.0213384734,
stim/posf.jpg,stim/negf.jpg,stim/1.jpg,stim/3.jpg,stim/latef.jpg,EF,2,4,0,17,17,54,,,,,,,,,,,,,,,,,,4,1,0.716406608948,,,,,,2016_Feb_19_1424,P15,PLC_L_D2S1,NHGY,60.0213384734,
stim/posf.jpg,stim/negf.jpg,stim/5.jpg,stim/2.jpg,stim/latef.jpg,AB,1,2,0,18,18,2,,,,,,,,,,,,,,,,,,2,1,0.666440489769,,,,,,2016_Feb_19_1424,P15,PLC_L_D2S1,NHGY,60.0213384734,
stim/posf.jpg,stim/negf.jpg,stim/4.jpg,stim/6.jpg,stim/latef.jpg,CD,1,2,0,19,19,25,,,,,,,,,,,,,,,,,,2,1,0.749735538321,,,,,,2016_Feb_19_1424,P15,PLC_L_D2S1,NHGY,60.0213384734,
stim/negf.jpg,stim/posf.jpg,stim/4.jpg,stim/6.jpg,stim/latef.jpg,CD,1,2,0,20,20,27,,,,,,,,,,,,,,,,,,2,1,0.533152317831,,,,,,2016_Feb_19_1424,P15,PLC_L_D2S1,NHGY,60.0213384734,
stim/posf.jpg,stim/negf.jpg,stim/2.jpg,stim/5.jpg,stim/latef.jpg,AB,2,4,0,21,21,15,,,,,,,,,,,,,,,,,,4,1,1.03299413014,,,,,,2016_Feb_19_1424,P15,PLC_L_D2S1,NHGY,60.0213384734,
stim/posf.jpg,stim/negf.jpg,stim/3.jpg,stim/1.jpg,stim/latef.jpg,EF,1,2,0,22,22,40,,,,,,,,,,,,,,,,,,2,1,0.949665030845,,,,,,2016_Feb_19_1424,P15,PLC_L_D2S1,NHGY,60.0213384734,
stim/negf.jpg,stim/posf.jpg,stim/1.jpg,stim/3.jpg,stim/latef.jpg,EF,2,4,0,23,23,59,,,,,,,,,,,,,,,,,,4,1,0.799772237155,,,,,,2016_Feb_19_1424,P15,PLC_L_D2S1,NHGY,60.0213384734,
stim/posf.jpg,stim/negf.jpg,stim/6.jpg,stim/4.jpg,stim/latef.jpg,CD,2,4,0,24,24,34,,,,,,,,,,,,,,,,,,4,1,0.833017756943,,,,,,2016_Feb_19_1424,P15,PLC_L_D2S1,NHGY,60.0213384734,
stim/posf.jpg,stim/negf.jpg,stim/4.jpg,stim/6.jpg,stim/latef.jpg,CD,1,2,0,25,25,26,,,,,,,,,,,,,,,,,,2,1,0.58314329688,,,,,,2016_Feb_19_1424,P15,PLC_L_D2S1,NHGY,60.0213384734,
stim/posf.jpg,stim/negf.jpg,stim/5.jpg,stim/2.jpg,stim/latef.jpg,AB,1,2,0,26,26,6,,,,,,,,,,,,,,,,,,2,1,0.749751877986,,,,,,2016_Feb_19_1424,P15,PLC_L_D2S1,NHGY,60.0213384734,
stim/negf.jpg,stim/posf.jpg,stim/1.jpg,stim/3.jpg,stim/latef.jpg,EF,2,4,0,27,27,57,,,,,,,,,,,,,,,,,,4,1,1.04962397266,,,,,,2016_Feb_19_1424,P15,PLC_L_D2S1,NHGY,60.0213384734,
stim/posf.jpg,stim/negf.jpg,stim/2.jpg,stim/5.jpg,stim/latef.jpg,AB,2,4,0,28,28,13,,,,,,,,,,,,,,,,,,4,1,0.866383308459,,,,,,2016_Feb_19_1424,P15,PLC_L_D2S1,NHGY,60.0213384734,
stim/posf.jpg,stim/negf.jpg,stim/4.jpg,stim/6.jpg,stim/latef.jpg,CD,1,2,0,29,29,24,,,,,,,,,,,,,,,,,,2,1,0.64978537836,,,,,,2016_Feb_19_1424,P15,PLC_L_D2S1,NHGY,60.0213384734,
stim/negf.jpg,stim/posf.jpg,stim/6.jpg,stim/4.jpg,stim/latef.jpg,CD,2,4,0,30,30,39,,,,,,,,,,,,,,,,,,4,1,0.583097351534,,,,,,2016_Feb_19_1424,P15,PLC_L_D2S1,NHGY,60.0213384734,
stim/posf.jpg,stim/negf.jpg,stim/2.jpg,stim/5.jpg,stim/latef.jpg,AB,2,4,0,31,31,17,,,,,,,,,,,,,,,,,,4,1,0.633124276042,,,,,,2016_Feb_19_1424,P15,PLC_L_D2S1,NHGY,60.0213384734,
stim/posf.jpg,stim/negf.jpg,stim/5.jpg,stim/2.jpg,stim/latef.jpg,AB,1,2,0,32,32,3,,,,,,,,,,,,,,,,,,2,1,0.816395544411,,,,,,2016_Feb_19_1424,P15,PLC_L_D2S1,NHGY,60.0213384734,
stim/negf.jpg,stim/posf.jpg,stim/2.jpg,stim/5.jpg,stim/latef.jpg,AB,2,4,0,33,33,18,,,,,,,,,,,,,,,,,,4,1,0.516477747995,,,,,,2016_Feb_19_1424,P15,PLC_L_D2S1,NHGY,60.0213384734,
stim/posf.jpg,stim/negf.jpg,stim/2.jpg,stim/5.jpg,stim/latef.jpg,AB,2,4,0,34,34,10,,,,,,,,,,,,,,,,,,4,1,0.549815041184,,,,,,2016_Feb_19_1424,P15,PLC_L_D2S1,NHGY,60.0213384734,
stim/negf.jpg,stim/posf.jpg,stim/3.jpg,stim/1.jpg,stim/latef.jpg,EF,1,2,0,35,35,46,,,,,,,,,,,,,,,,,,2,1,0.699769007117,,,,,,2016_Feb_19_1424,P15,PLC_L_D2S1,NHGY,60.0213384734,
stim/negf.jpg,stim/posf.jpg,stim/2.jpg,stim/5.jpg,stim/latef.jpg,AB,2,4,0,36,36,19,,,,,,,,,,,,,,,,,,4,1,0.649770864238,,,,,,2016_Feb_19_1424,P15,PLC_L_D2S1,NHGY,60.0213384734,
stim/posf.jpg,stim/negf.jpg,stim/4.jpg,stim/6.jpg,stim/latef.jpg,CD,1,2,0,37,37,20,,,,,,,,,,,,,,,,,,2,1,0.783050149058,,,,,,2016_Feb_19_1424,P15,PLC_L_D2S1,NHGY,60.0213384734,
stim/posf.jpg,stim/negf.jpg,stim/6.jpg,stim/4.jpg,stim/latef.jpg,CD,2,4,0,38,38,35,,,,,,,,,,,,,,,,,,4,1,0.733099001139,,,,,,2016_Feb_19_1424,P15,PLC_L_D2S1,NHGY,60.0213384734,
stim/negf.jpg,stim/posf.jpg,stim/6.jpg,stim/4.jpg,stim/latef.jpg,CD,2,4,0,39,39,37,,,,,,,,,,,,,,,,,,4,1,0.783086088503,,,,,,2016_Feb_19_1424,P15,PLC_L_D2S1,NHGY,60.0213384734,
stim/posf.jpg,stim/negf.jpg,stim/5.jpg,stim/2.jpg,stim/latef.jpg,AB,1,2,0,40,40,1,,,,,,,,,,,,,,,,,,2,1,0.849780334808,,,,,,2016_Feb_19_1424,P15,PLC_L_D2S1,NHGY,60.0213384734,
stim/posf.jpg,stim/negf.jpg,stim/2.jpg,stim/5.jpg,stim/latef.jpg,AB,2,4,0,41,41,11,,,,,,,,,,,,,,,,,,4,1,0.649764163562,,,,,,2016_Feb_19_1424,P15,PLC_L_D2S1,NHGY,60.0213384734,
stim/posf.jpg,stim/negf.jpg,stim/2.jpg,stim/5.jpg,stim/latef.jpg,AB,2,4,0,42,42,14,,,,,,,,,,,,,,,,,,4,1,0.466583179889,,,,,,2016_Feb_19_1424,P15,PLC_L_D2S1,NHGY,60.0213384734,
stim/negf.jpg,stim/posf.jpg,stim/4.jpg,stim/6.jpg,stim/latef.jpg,CD,1,2,0,43,43,28,,,,,,,,,,,,,,,,,,2,1,0.666465220317,,,,,,2016_Feb_19_1424,P15,PLC_L_D2S1,NHGY,60.0213384734,
stim/posf.jpg,stim/negf.jpg,stim/6.jpg,stim/4.jpg,stim/latef.jpg,CD,2,4,0,44,44,32,,,,,,,,,,,,,,,,,,4,1,0.549798668436,,,,,,2016_Feb_19_1424,P15,PLC_L_D2S1,NHGY,60.0213384734,
stim/posf.jpg,stim/negf.jpg,stim/6.jpg,stim/4.jpg,stim/latef.jpg,CD,2,4,0,45,45,33,,,,,,,,,,,,,,,,,,4,1,0.58311800694,,,,,,2016_Feb_19_1424,P15,PLC_L_D2S1,NHGY,60.0213384734,
stim/negf.jpg,stim/posf.jpg,stim/5.jpg,stim/2.jpg,stim/latef.jpg,AB,1,2,0,46,46,8,,,,,,,,,,,,,,,,,,2,1,0.649766220682,,,,,,2016_Feb_19_1424,P15,PLC_L_D2S1,NHGY,60.0213384734,
stim/posf.jpg,stim/negf.jpg,stim/2.jpg,stim/5.jpg,stim/latef.jpg,AB,2,4,0,47,47,12,,,,,,,,,,,,,,,,,,4,1,0.533141262317,,,,,,2016_Feb_19_1424,P15,PLC_L_D2S1,NHGY,60.0213384734,
stim/posf.jpg,stim/negf.jpg,stim/1.jpg,stim/3.jpg,stim/latef.jpg,EF,2,4,0,48,48,52,,,,,,,,,,,,,,,,,,4,1,0.866372631888,,,,,,2016_Feb_19_1424,P15,PLC_L_D2S1,NHGY,60.0213384734,
stim/posf.jpg,stim/negf.jpg,stim/3.jpg,stim/1.jpg,stim/latef.jpg,EF,1,2,0,49,49,45,,,,,,,,,,,,,,,,,,2,1,0.616435366518,,,,,,2016_Feb_19_1424,P15,PLC_L_D2S1,NHGY,60.0213384734,
stim/posf.jpg,stim/negf.jpg,stim/6.jpg,stim/4.jpg,stim/latef.jpg,CD,2,4,0,50,50,31,,,,,,,,,,,,,,,,,,4,1,0.599804197697,,,,,,2016_Feb_19_1424,P15,PLC_L_D2S1,NHGY,60.0213384734,
stim/posf.jpg,stim/negf.jpg,stim/3.jpg,stim/1.jpg,stim/latef.jpg,EF,1,2,0,51,51,42,,,,,,,,,,,,,,,,,,2,1,0.683084939644,,,,,,2016_Feb_19_1424,P15,PLC_L_D2S1,NHGY,60.0213384734,
stim/posf.jpg,stim/negf.jpg,stim/3.jpg,stim/1.jpg,stim/latef.jpg,EF,1,2,0,52,52,43,,,,,,,,,,,,,,,,,,2,1,0.616464999267,,,,,,2016_Feb_19_1424,P15,PLC_L_D2S1,NHGY,60.0213384734,
stim/posf.jpg,stim/negf.jpg,stim/4.jpg,stim/6.jpg,stim/latef.jpg,CD,1,2,0,53,53,21,,,,,,,,,,,,,,,,,,2,1,0.699768246223,,,,,,2016_Feb_19_1424,P15,PLC_L_D2S1,NHGY,60.0213384734,
stim/negf.jpg,stim/posf.jpg,stim/1.jpg,stim/3.jpg,stim/latef.jpg,EF,2,4,0,54,54,56,,,,,,,,,,,,,,,,,,4,1,0.716432759029,,,,,,2016_Feb_19_1424,P15,PLC_L_D2S1,NHGY,60.0213384734,
stim/posf.jpg,stim/negf.jpg,stim/2.jpg,stim/5.jpg,stim/latef.jpg,AB,2,4,0,55,55,16,,,,,,,,,,,,,,,,,,4,1,0.549875783356,,,,,,2016_Feb_19_1424,P15,PLC_L_D2S1,NHGY,60.0213384734,
stim/negf.jpg,stim/posf.jpg,stim/3.jpg,stim/1.jpg,stim/latef.jpg,EF,1,2,0,56,56,49,,,,,,,,,,,,,,,,,,2,1,0.666436483799,,,,,,2016_Feb_19_1424,P15,PLC_L_D2S1,NHGY,60.0213384734,
stim/negf.jpg,stim/posf.jpg,stim/5.jpg,stim/2.jpg,stim/latef.jpg,AB,1,2,0,57,57,9,,,,,,,,,,,,,,,,,,2,1,0.666442164938,,,,,,2016_Feb_19_1424,P15,PLC_L_D2S1,NHGY,60.0213384734,
stim/posf.jpg,stim/negf.jpg,stim/1.jpg,stim/3.jpg,stim/latef.jpg,EF,2,4,0,58,58,51,,,,,,,,,,,,,,,,,,4,1,0.599785307685,,,,,,2016_Feb_19_1424,P15,PLC_L_D2S1,NHGY,60.0213384734,
stim/posf.jpg,stim/negf.jpg,stim/3.jpg,stim/1.jpg,stim/latef.jpg,EF,1,2,0,59,59,44,,,,,,,,,,,,,,,,,,2,1,0.566491830543,,,,,,2016_Feb_19_1424,P15,PLC_L_D2S1,NHGY,60.0213384734,
,,,,,,,,,,,,,,,,,,,,,,,,,,,,,,,,0.9984375,0.6875,1,0,0,2016_Feb_19_1424,P15,PLC_L_D2S1,NHGY,60.0213384734,
stim/negf.jpg,stim/posf.jpg,stim/2.jpg,stim/5.jpg,stim/latef.jpg,AB,2,4,,,,,0,0,0,19,,,,,,,,,,,,,,4,1,0.683104034165,,,,,,2016_Feb_19_1424,P15,PLC_L_D2S1,NHGY,60.0213384734,
stim/posf.jpg,stim/negf.jpg,stim/3.jpg,stim/1.jpg,stim/latef.jpg,EF,1,2,,,,,0,1,1,45,,,,,,,,,,,,,,2,1,0.733099617673,,,,,,2016_Feb_19_1424,P15,PLC_L_D2S1,NHGY,60.0213384734,
stim/posf.jpg,stim/negf.jpg,stim/2.jpg,stim/5.jpg,stim/latef.jpg,AB,2,4,,,,,0,2,2,11,,,,,,,,,,,,,,4,1,0.51649926655,,,,,,2016_Feb_19_1424,P15,PLC_L_D2S1,NHGY,60.0213384734,
stim/posf.jpg,stim/negf.jpg,stim/4.jpg,stim/6.jpg,stim/latef.jpg,CD,1,2,,,,,0,3,3,24,,,,,,,,,,,,,,2,1,0.566472597677,,,,,,2016_Feb_19_1424,P15,PLC_L_D2S1,NHGY,60.0213384734,
stim/posf.jpg,stim/negf.jpg,stim/2.jpg,stim/5.jpg,stim/latef.jpg,AB,2,4,,,,,0,4,4,13,,,,,,,,,,,,,,4,1,0.533098802645,,,,,,2016_Feb_19_1424,P15,PLC_L_D2S1,NHGY,60.0213384734,
stim/posf.jpg,stim/negf.jpg,stim/3.jpg,stim/1.jpg,stim/latef.jpg,EF,1,2,,,,,0,5,5,44,,,,,,,,,,,,,,2,1,0.549831922196,,,,,,2016_Feb_19_1424,P15,PLC_L_D2S1,NHGY,60.0213384734,
stim/negf.jpg,stim/posf.jpg,stim/5.jpg,stim/2.jpg,stim/latef.jpg,AB,1,2,,,,,0,6,6,9,,,,,,,,,,,,,,2,1,0.566489989963,,,,,,2016_Feb_19_1424,P15,PLC_L_D2S1,NHGY,60.0213384734,
stim/posf.jpg,stim/negf.jpg,stim/6.jpg,stim/4.jpg,stim/latef.jpg,CD,2,4,,,,,0,7,7,32,,,,,,,,,,,,,,4,1,0.683076882592,,,,,,2016_Feb_19_1424,P15,PLC_L_D2S1,NHGY,60.0213384734,
stim/posf.jpg,stim/negf.jpg,stim/5.jpg,stim/2.jpg,stim/latef.jpg,AB,1,2,,,,,0,8,8,4,,,,,,,,,,,,,,2,1,0.58314919155,,,,,,2016_Feb_19_1424,P15,PLC_L_D2S1,NHGY,60.0213384734,
stim/negf.jpg,stim/posf.jpg,stim/3.jpg,stim/1.jpg,stim/latef.jpg,EF,1,2,,,,,0,9,9,47,,,,,,,,,,,,,,2,1,0.766398156412,,,,,,2016_Feb_19_1424,P15,PLC_L_D2S1,NHGY,60.0213384734,
stim/negf.jpg,stim/posf.jpg,stim/3.jpg,stim/1.jpg,stim/latef.jpg,EF,1,2,,,,,0,10,10,46,,,,,,,,,,,,,,2,1,0.666450682135,,,,,,2016_Feb_19_1424,P15,PLC_L_D2S1,NHGY,60.0213384734,
stim/posf.jpg,stim/negf.jpg,stim/3.jpg,stim/1.jpg,stim/latef.jpg,EF,1,2,,,,,0,11,11,40,,,,,,,,,,,,,,2,1,0.983000976681,,,,,,2016_Feb_19_1424,P15,PLC_L_D2S1,NHGY,60.0213384734,
stim/negf.jpg,stim/posf.jpg,stim/6.jpg,stim/4.jpg,stim/latef.jpg,CD,2,4,,,,,0,12,12,37,,,,,,,,,,,,,,4,1,0.749751814829,,,,,,2016_Feb_19_1424,P15,PLC_L_D2S1,NHGY,60.0213384734,
stim/negf.jpg,stim/posf.jpg,stim/3.jpg,stim/1.jpg,stim/latef.jpg,EF,1,2,,,,,0,13,13,49,,,,,,,,,,,,,,2,1,0.56647002327,,,,,,2016_Feb_19_1424,P15,PLC_L_D2S1,NHGY,60.0213384734,
stim/posf.jpg,stim/negf.jpg,stim/2.jpg,stim/5.jpg,stim/latef.jpg,AB,2,4,,,,,0,14,14,12,,,,,,,,,,,,,,4,1,0.633121806897,,,,,,2016_Feb_19_1424,P15,PLC_L_D2S1,NHGY,60.0213384734,
stim/posf.jpg,stim/negf.jpg,stim/5.jpg,stim/2.jpg,stim/latef.jpg,AB,1,2,,,,,0,15,15,0,,,,,,,,,,,,,,2,1,0.633123358759,,,,,,2016_Feb_19_1424,P15,PLC_L_D2S1,NHGY,60.0213384734,
stim/posf.jpg,stim/negf.jpg,stim/3.jpg,stim/1.jpg,stim/latef.jpg,EF,1,2,,,,,0,16,16,41,,,,,,,,,,,,,,2,1,0.733087419315,,,,,,2016_Feb_19_1424,P15,PLC_L_D2S1,NHGY,60.0213384734,
stim/posf.jpg,stim/negf.jpg,stim/3.jpg,stim/1.jpg,stim/latef.jpg,EF,1,2,,,,,0,17,17,43,,,,,,,,,,,,,,2,1,0.716429880866,,,,,,2016_Feb_19_1424,P15,PLC_L_D2S1,NHGY,60.0213384734,
stim/negf.jpg,stim/posf.jpg,stim/1.jpg,stim/3.jpg,stim/latef.jpg,EF,2,4,,,,,0,18,18,57,,,,,,,,,,,,,,4,1,0.716398735353,,,,,,2016_Feb_19_1424,P15,PLC_L_D2S1,NHGY,60.0213384734,
stim/posf.jpg,stim/negf.jpg,stim/5.jpg,stim/2.jpg,stim/latef.jpg,AB,1,2,,,,,0,19,19,5,,,,,,,,,,,,,,2,1,0.749771570997,,,,,,2016_Feb_19_1424,P15,PLC_L_D2S1,NHGY,60.0213384734,
stim/posf.jpg,stim/negf.jpg,stim/4.jpg,stim/6.jpg,stim/latef.jpg,CD,1,2,,,,,0,20,20,20,,,,,,,,,,,,,,2,1,0.666430354545,,,,,,2016_Feb_19_1424,P15,PLC_L_D2S1,NHGY,60.0213384734,
stim/negf.jpg,stim/posf.jpg,stim/5.jpg,stim/2.jpg,stim/latef.jpg,AB,1,2,,,,,0,21,21,8,,,,,,,,,,,,,,2,1,0.599813749469,,,,,,2016_Feb_19_1424,P15,PLC_L_D2S1,NHGY,60.0213384734,
stim/posf.jpg,stim/negf.jpg,stim/1.jpg,stim/3.jpg,stim/latef.jpg,EF,2,4,,,,,0,22,22,51,,,,,,,,,,,,,,4,1,0.649774464198,,,,,,2016_Feb_19_1424,P15,PLC_L_D2S1,NHGY,60.0213384734,
stim/posf.jpg,stim/negf.jpg,stim/2.jpg,stim/5.jpg,stim/latef.jpg,AB,2,4,,,,,0,23,23,17,,,,,,,,,,,,,,4,1,0.71641356526,,,,,,2016_Feb_19_1424,P15,PLC_L_D2S1,NHGY,60.0213384734,
stim/posf.jpg,stim/negf.jpg,stim/4.jpg,stim/6.jpg,stim/latef.jpg,CD,1,2,,,,,0,24,24,25,,,,,,,,,,,,,,2,1,0.68314640662,,,,,,2016_Feb_19_1424,P15,PLC_L_D2S1,NHGY,60.0213384734,
stim/posf.jpg,stim/negf.jpg,stim/2.jpg,stim/5.jpg,stim/latef.jpg,AB,2,4,,,,,0,25,25,10,,,,,,,,,,,,,,4,1,0.533104408597,,,,,,2016_Feb_19_1424,P15,PLC_L_D2S1,NHGY,60.0213384734,
stim/posf.jpg,stim/negf.jpg,stim/1.jpg,stim/3.jpg,stim/latef.jpg,EF,2,4,,,,,0,26,26,54,,,,,,,,,,,,,,4,1,0.733080198344,,,,,,2016_Feb_19_1424,P15,PLC_L_D2S1,NHGY,60.0213384734,
stim/posf.jpg,stim/negf.jpg,stim/6.jpg,stim/4.jpg,stim/latef.jpg,CD,2,4,,,,,0,27,27,35,,,,,,,,,,,,,,4,1,0.883030789878,,,,,,2016_Feb_19_1424,P15,PLC_L_D2S1,NHGY,60.0213384734,
stim/posf.jpg,stim/negf.jpg,stim/6.jpg,stim/4.jpg,stim/latef.jpg,CD,2,4,,,,,0,28,28,31,,,,,,,,,,,,,,4,1,0.883008450281,,,,,,2016_Feb_19_1424,P15,PLC_L_D2S1,NHGY,60.0213384734,
stim/posf.jpg,stim/negf.jpg,stim/2.jpg,stim/5.jpg,stim/latef.jpg,AB,2,4,,,,,0,29,29,14,,,,,,,,,,,,,,4,1,0.516485272722,,,,,,2016_Feb_19_1424,P15,PLC_L_D2S1,NHGY,60.0213384734,
stim/posf.jpg,stim/negf.jpg,stim/6.jpg,stim/4.jpg,stim/latef.jpg,CD,2,4,,,,,0,30,30,36,,,,,,,,,,,,,,4,1,0.733096700413,,,,,,2016_Feb_19_1424,P15,PLC_L_D2S1,NHGY,60.0213384734,
stim/negf.jpg,stim/posf.jpg,stim/3.jpg,stim/1.jpg,stim/latef.jpg,EF,1,2,,,,,0,31,31,48,,,,,,,,,,,,,,2,1,0.999708298027,,,,,,2016_Feb_19_1424,P15,PLC_L_D2S1,NHGY,60.0213384734,
stim/posf.jpg,stim/negf.jpg,stim/5.jpg,stim/2.jpg,stim/latef.jpg,AB,1,2,,,,,0,32,32,3,,,,,,,,,,,,,,2,1,0.716384452807,,,,,,2016_Feb_19_1424,P15,PLC_L_D2S1,NHGY,60.0213384734,
stim/negf.jpg,stim/posf.jpg,stim/4.jpg,stim/6.jpg,stim/latef.jpg,CD,1,2,,,,,0,33,33,27,,,,,,,,,,,,,,2,1,0.699757350105,,,,,,2016_Feb_19_1424,P15,PLC_L_D2S1,NHGY,60.0213384734,
stim/posf.jpg,stim/negf.jpg,stim/5.jpg,stim/2.jpg,stim/latef.jpg,AB,1,2,,,,,0,34,34,2,,,,,,,,,,,,,,2,1,0.78305482269,,,,,,2016_Feb_19_1424,P15,PLC_L_D2S1,NHGY,60.0213384734,
stim/negf.jpg,stim/posf.jpg,stim/6.jpg,stim/4.jpg,stim/latef.jpg,CD,2,4,,,,,0,35,35,39,,,,,,,,,,,,,,4,1,0.733106483762,,,,,,2016_Feb_19_1424,P15,PLC_L_D2S1,NHGY,60.0213384734,
stim/negf.jpg,stim/posf.jpg,stim/4.jpg,stim/6.jpg,stim/latef.jpg,CD,1,2,,,,,0,36,36,28,,,,,,,,,,,,,,2,1,0.833053239249,,,,,,2016_Feb_19_1424,P15,PLC_L_D2S1,NHGY,60.0213384734,
stim/posf.jpg,stim/negf.jpg,stim/6.jpg,stim/4.jpg,stim/latef.jpg,CD,2,4,,,,,0,37,37,33,,,,,,,,,,,,,,4,1,0.832990743713,,,,,,2016_Feb_19_1424,P15,PLC_L_D2S1,NHGY,60.0213384734,
stim/posf.jpg,stim/negf.jpg,stim/5.jpg,stim/2.jpg,stim/latef.jpg,AB,1,2,,,,,0,38,38,6,,,,,,,,,,,,,,2,1,0.783133020304,,,,,,2016_Feb_19_1424,P15,PLC_L_D2S1,NHGY,60.0213384734,
stim/negf.jpg,stim/posf.jpg,stim/1.jpg,stim/3.jpg,stim/latef.jpg,EF,2,4,,,,,0,39,39,56,,,,,,,,,,,,,,4,1,1.06629920715,,,,,,2016_Feb_19_1424,P15,PLC_L_D2S1,NHGY,60.0213384734,
stim/posf.jpg,stim/negf.jpg,stim/1.jpg,stim/3.jpg,stim/latef.jpg,EF,2,4,,,,,0,40,40,50,,,,,,,,,,,,,,4,1,1.49948918471,,,,,,2016_Feb_19_1424,P15,PLC_L_D2S1,NHGY,60.0213384734,
stim/posf.jpg,stim/negf.jpg,stim/4.jpg,stim/6.jpg,stim/latef.jpg,CD,1,2,,,,,0,41,41,26,,,,,,,,,,,,,,2,1,1.29957532509,,,,,,2016_Feb_19_1424,P15,PLC_L_D2S1,NHGY,60.0213384734,
stim/posf.jpg,stim/negf.jpg,stim/5.jpg,stim/2.jpg,stim/latef.jpg,AB,1,2,,,,,0,42,42,1,,,,,,,,,,,,,,2,1,0.683096810186,,,,,,2016_Feb_19_1424,P15,PLC_L_D2S1,NHGY,60.0213384734,
stim/posf.jpg,stim/negf.jpg,stim/6.jpg,stim/4.jpg,stim/latef.jpg,CD,2,4,,,,,0,43,43,34,,,,,,,,,,,,,,4,1,0.483167275557,,,,,,2016_Feb_19_1424,P15,PLC_L_D2S1,NHGY,60.0213384734,
stim/posf.jpg,stim/negf.jpg,stim/2.jpg,stim/5.jpg,stim/latef.jpg,AB,2,4,,,,,0,44,44,15,,,,,,,,,,,,,,2,0,0.566472393168,,,,,,2016_Feb_19_1424,P15,PLC_L_D2S1,NHGY,60.0213384734,
stim/negf.jpg,stim/posf.jpg,stim/4.jpg,stim/6.jpg,stim/latef.jpg,CD,1,2,,,,,0,45,45,29,,,,,,,,,,,,,,2,1,0.599798206787,,,,,,2016_Feb_19_1424,P15,PLC_L_D2S1,NHGY,60.0213384734,
stim/negf.jpg,stim/posf.jpg,stim/1.jpg,stim/3.jpg,stim/latef.jpg,EF,2,4,,,,,0,46,46,58,,,,,,,,,,,,,,4,1,0.949598294756,,,,,,2016_Feb_19_1424,P15,PLC_L_D2S1,NHGY,60.0213384734,
stim/negf.jpg,stim/posf.jpg,stim/1.jpg,stim/3.jpg,stim/latef.jpg,EF,2,4,,,,,0,47,47,59,,,,,,,,,,,,,,4,1,0.683088404266,,,,,,2016_Feb_19_1424,P15,PLC_L_D2S1,NHGY,60.0213384734,
stim/posf.jpg,stim/negf.jpg,stim/5.jpg,stim/2.jpg,stim/latef.jpg,AB,1,2,,,,,0,48,48,7,,,,,,,,,,,,,,2,1,1.06638545881,,,,,,2016_Feb_19_1424,P15,PLC_L_D2S1,NHGY,60.0213384734,
stim/negf.jpg,stim/posf.jpg,stim/2.jpg,stim/5.jpg,stim/latef.jpg,AB,2,4,,,,,0,49,49,18,,,,,,,,,,,,,,4,1,0.616452027985,,,,,,2016_Feb_19_1424,P15,PLC_L_D2S1,NHGY,60.0213384734,
stim/posf.jpg,stim/negf.jpg,stim/2.jpg,stim/5.jpg,stim/latef.jpg,AB,2,4,,,,,0,50,50,16,,,,,,,,,,,,,,4,1,0.483188697872,,,,,,2016_Feb_19_1424,P15,PLC_L_D2S1,NHGY,60.0213384734,
stim/negf.jpg,stim/posf.jpg,stim/6.jpg,stim/4.jpg,stim/latef.jpg,CD,2,4,,,,,0,51,51,38,,,,,,,,,,,,,,4,1,0.666442023586,,,,,,2016_Feb_19_1424,P15,PLC_L_D2S1,NHGY,60.0213384734,
stim/posf.jpg,stim/negf.jpg,stim/3.jpg,stim/1.jpg,stim/latef.jpg,EF,1,2,,,,,0,52,52,42,,,,,,,,,,,,,,2,1,1.04955493284,,,,,,2016_Feb_19_1424,P15,PLC_L_D2S1,NHGY,60.0213384734,
stim/posf.jpg,stim/negf.jpg,stim/4.jpg,stim/6.jpg,stim/latef.jpg,CD,1,2,,,,,0,53,53,23,,,,,,,,,,,,,,2,1,0.816386143013,,,,,,2016_Feb_19_1424,P15,PLC_L_D2S1,NHGY,60.0213384734,
stim/posf.jpg,stim/negf.jpg,stim/4.jpg,stim/6.jpg,stim/latef.jpg,CD,1,2,,,,,0,54,54,22,,,,,,,,,,,,,,2,1,0.599779497224,,,,,,2016_Feb_19_1424,P15,PLC_L_D2S1,NHGY,60.0213384734,
stim/posf.jpg,stim/negf.jpg,stim/1.jpg,stim/3.jpg,stim/latef.jpg,EF,2,4,,,,,0,55,55,55,,,,,,,,,,,,,,4,1,0.833045813769,,,,,,2016_Feb_19_1424,P15,PLC_L_D2S1,NHGY,60.0213384734,
stim/posf.jpg,stim/negf.jpg,stim/1.jpg,stim/3.jpg,stim/latef.jpg,EF,2,4,,,,,0,56,56,53,,,,,,,,,,,,,,4,1,0.783066915787,,,,,,2016_Feb_19_1424,P15,PLC_L_D2S1,NHGY,60.0213384734,
stim/posf.jpg,stim/negf.jpg,stim/1.jpg,stim/3.jpg,stim/latef.jpg,EF,2,4,,,,,0,57,57,52,,,,,,,,,,,,,,4,1,0.73307935324,,,,,,2016_Feb_19_1424,P15,PLC_L_D2S1,NHGY,60.0213384734,
stim/posf.jpg,stim/negf.jpg,stim/4.jpg,stim/6.jpg,stim/latef.jpg,CD,1,2,,,,,0,58,58,21,,,,,,,,,,,,,,2,1,0.733082459972,,,,,,2016_Feb_19_1424,P15,PLC_L_D2S1,NHGY,60.0213384734,
stim/posf.jpg,stim/negf.jpg,stim/6.jpg,stim/4.jpg,stim/latef.jpg,CD,2,4,,,,,0,59,59,30,,,,,,,,,,,,,,4,1,0.749754810284,,,,,,2016_Feb_19_1424,P15,PLC_L_D2S1,NHGY,60.0213384734,
,,,,,,,,,,,,,,,,,,,,,,,,,,,,,,,,0.9984375,0.6875,1,0,0,2016_Feb_19_1424,P15,PLC_L_D2S1,NHGY,60.0213384734,
stim/negf.jpg,stim/posf.jpg,stim/5.jpg,stim/2.jpg,stim/latef.jpg,AB,1,2,,,,,,,,,0,0,0,8,,,,,,,,,,2,1,0.749752440386,,,,,,2016_Feb_19_1424,P15,PLC_L_D2S1,NHGY,60.0213384734,
stim/posf.jpg,stim/negf.jpg,stim/4.jpg,stim/6.jpg,stim/latef.jpg,CD,1,2,,,,,,,,,0,1,1,21,,,,,,,,,,2,1,0.683038522122,,,,,,2016_Feb_19_1424,P15,PLC_L_D2S1,NHGY,60.0213384734,
stim/negf.jpg,stim/posf.jpg,stim/4.jpg,stim/6.jpg,stim/latef.jpg,CD,1,2,,,,,,,,,0,2,2,29,,,,,,,,,,2,1,0.583104674759,,,,,,2016_Feb_19_1424,P15,PLC_L_D2S1,NHGY,60.0213384734,
stim/posf.jpg,stim/negf.jpg,stim/6.jpg,stim/4.jpg,stim/latef.jpg,CD,2,4,,,,,,,,,0,3,3,35,,,,,,,,,,4,1,0.616461342165,,,,,,2016_Feb_19_1424,P15,PLC_L_D2S1,NHGY,60.0213384734,
stim/posf.jpg,stim/negf.jpg,stim/4.jpg,stim/6.jpg,stim/latef.jpg,CD,1,2,,,,,,,,,0,4,4,23,,,,,,,,,,2,1,0.56647352699,,,,,,2016_Feb_19_1424,P15,PLC_L_D2S1,NHGY,60.0213384734,
stim/posf.jpg,stim/negf.jpg,stim/4.jpg,stim/6.jpg,stim/latef.jpg,CD,1,2,,,,,,,,,0,5,5,22,,,,,,,,,,2,1,0.516526400078,,,,,,2016_Feb_19_1424,P15,PLC_L_D2S1,NHGY,60.0213384734,
stim/negf.jpg,stim/posf.jpg,stim/1.jpg,stim/3.jpg,stim/latef.jpg,EF,2,4,,,,,,,,,0,6,6,58,,,,,,,,,,4,1,0.749735956362,,,,,,2016_Feb_19_1424,P15,PLC_L_D2S1,NHGY,60.0213384734,
stim/posf.jpg,stim/negf.jpg,stim/5.jpg,stim/2.jpg,stim/latef.jpg,AB,1,2,,,,,,,,,0,7,7,6,,,,,,,,,,2,1,0.733106267223,,,,,,2016_Feb_19_1424,P15,PLC_L_D2S1,NHGY,60.0213384734,
stim/negf.jpg,stim/posf.jpg,stim/3.jpg,stim/1.jpg,stim/latef.jpg,EF,1,2,,,,,,,,,0,8,8,46,,,,,,,,,,2,1,0.98308457273,,,,,,2016_Feb_19_1424,P15,PLC_L_D2S1,NHGY,60.0213384734,
stim/posf.jpg,stim/negf.jpg,stim/3.jpg,stim/1.jpg,stim/latef.jpg,EF,1,2,,,,,,,,,0,9,9,40,,,,,,,,,,4,0,0.683099225197,,,,,,2016_Feb_19_1424,P15,PLC_L_D2S1,NHGY,60.0213384734,
stim/posf.jpg,stim/negf.jpg,stim/3.jpg,stim/1.jpg,stim/latef.jpg,EF,1,2,,,,,,,,,0,10,10,42,,,,,,,,,,4,0,0.666444237095,,,,,,2016_Feb_19_1424,P15,PLC_L_D2S1,NHGY,60.0213384734,
stim/negf.jpg,stim/posf.jpg,stim/3.jpg,stim/1.jpg,stim/latef.jpg,EF,1,2,,,,,,,,,0,11,11,48,,,,,,,,,,4,0,0.599809917933,,,,,,2016_Feb_19_1424,P15,PLC_L_D2S1,NHGY,60.0213384734,
stim/negf.jpg,stim/posf.jpg,stim/2.jpg,stim/5.jpg,stim/latef.jpg,AB,2,4,,,,,,,,,0,12,12,19,,,,,,,,,,4,1,0.783074593895,,,,,,2016_Feb_19_1424,P15,PLC_L_D2S1,NHGY,60.0213384734,
stim/posf.jpg,stim/negf.jpg,stim/3.jpg,stim/1.jpg,stim/latef.jpg,EF,1,2,,,,,,,,,0,13,13,45,,,,,,,,,,4,0,0.96633142333,,,,,,2016_Feb_19_1424,P15,PLC_L_D2S1,NHGY,60.0213384734,
stim/posf.jpg,stim/negf.jpg,stim/2.jpg,stim/5.jpg,stim/latef.jpg,AB,2,4,,,,,,,,,0,14,14,12,,,,,,,,,,4,1,1.09963824167,,,,,,2016_Feb_19_1424,P15,PLC_L_D2S1,NHGY,60.0213384734,
stim/posf.jpg,stim/negf.jpg,stim/6.jpg,stim/4.jpg,stim/latef.jpg,CD,2,4,,,,,,,,,0,15,15,31,,,,,,,,,,4,1,0.749742687113,,,,,,2016_Feb_19_1424,P15,PLC_L_D2S1,NHGY,60.0213384734,
stim/posf.jpg,stim/negf.jpg,stim/5.jpg,stim/2.jpg,stim/latef.jpg,AB,1,2,,,,,,,,,0,16,16,0,,,,,,,,,,2,1,0.716470788675,,,,,,2016_Feb_19_1424,P15,PLC_L_D2S1,NHGY,60.0213384734,
stim/posf.jpg,stim/negf.jpg,stim/4.jpg,stim/6.jpg,stim/latef.jpg,CD,1,2,,,,,,,,,0,17,17,24,,,,,,,,,,2,1,0.783074879607,,,,,,2016_Feb_19_1424,P15,PLC_L_D2S1,NHGY,60.0213384734,
stim/posf.jpg,stim/negf.jpg,stim/5.jpg,stim/2.jpg,stim/latef.jpg,AB,1,2,,,,,,,,,0,18,18,3,,,,,,,,,,2,1,0.71646482784,,,,,,2016_Feb_19_1424,P15,PLC_L_D2S1,NHGY,60.0213384734,
stim/posf.jpg,stim/negf.jpg,stim/2.jpg,stim/5.jpg,stim/latef.jpg,AB,2,4,,,,,,,,,0,19,19,16,,,,,,,,,,4,1,0.666470266877,,,,,,2016_Feb_19_1424,P15,PLC_L_D2S1,NHGY,60.0213384734,
stim/posf.jpg,stim/negf.jpg,stim/1.jpg,stim/3.jpg,stim/latef.jpg,EF,2,4,,,,,,,,,0,20,20,52,,,,,,,,,,2,0,0.683091862874,,,,,,2016_Feb_19_1424,P15,PLC_L_D2S1,NHGY,60.0213384734,
stim/negf.jpg,stim/posf.jpg,stim/1.jpg,stim/3.jpg,stim/latef.jpg,EF,2,4,,,,,,,,,0,21,21,57,,,,,,,,,,2,0,0.716427339541,,,,,,2016_Feb_19_1424,P15,PLC_L_D2S1,NHGY,60.0213384734,
stim/posf.jpg,stim/negf.jpg,stim/5.jpg,stim/2.jpg,stim/latef.jpg,AB,1,2,,,,,,,,,0,22,22,4,,,,,,,,,,2,1,0.716318333252,,,,,,2016_Feb_19_1424,P15,PLC_L_D2S1,NHGY,60.0213384734,
stim/posf.jpg,stim/negf.jpg,stim/2.jpg,stim/5.jpg,stim/latef.jpg,AB,2,4,,,,,,,,,0,23,23,15,,,,,,,,,,4,1,0.683097360556,,,,,,2016_Feb_19_1424,P15,PLC_L_D2S1,NHGY,60.0213384734,
stim/posf.jpg,stim/negf.jpg,stim/6.jpg,stim/4.jpg,stim/latef.jpg,CD,2,4,,,,,,,,,0,24,24,33,,,,,,,,,,4,1,0.749767983068,,,,,,2016_Feb_19_1424,P15,PLC_L_D2S1,NHGY,60.0213384734,
stim/posf.jpg,stim/negf.jpg,stim/1.jpg,stim/3.jpg,stim/latef.jpg,EF,2,4,,,,,,,,,0,25,25,50,,,,,,,,,,2,0,0.81645739033,,,,,,2016_Feb_19_1424,P15,PLC_L_D2S1,NHGY,60.0213384734,
stim/posf.jpg,stim/negf.jpg,stim/2.jpg,stim/5.jpg,stim/latef.jpg,AB,2,4,,,,,,,,,0,26,26,11,,,,,,,,,,4,1,0.833057491833,,,,,,2016_Feb_19_1424,P15,PLC_L_D2S1,NHGY,60.0213384734,
stim/posf.jpg,stim/negf.jpg,stim/4.jpg,stim/6.jpg,stim/latef.jpg,CD,1,2,,,,,,,,,0,27,27,20,,,,,,,,,,2,1,0.799749659966,,,,,,2016_Feb_19_1424,P15,PLC_L_D2S1,NHGY,60.0213384734,
stim/negf.jpg,stim/posf.jpg,stim/3.jpg,stim/1.jpg,stim/latef.jpg,EF,1,2,,,,,,,,,0,28,28,49,,,,,,,,,,4,0,0.799750541159,,,,,,2016_Feb_19_1424,P15,PLC_L_D2S1,NHGY,60.0213384734,
stim/posf.jpg,stim/negf.jpg,stim/1.jpg,stim/3.jpg,stim/latef.jpg,EF,2,4,,,,,,,,,0,29,29,53,,,,,,,,,,2,0,0.783091198219,,,,,,2016_Feb_19_1424,P15,PLC_L_D2S1,NHGY,60.0213384734,
stim/negf.jpg,stim/posf.jpg,stim/1.jpg,stim/3.jpg,stim/latef.jpg,EF,2,4,,,,,,,,,0,30,30,59,,,,,,,,,,2,0,0.733083124626,,,,,,2016_Feb_19_1424,P15,PLC_L_D2S1,NHGY,60.0213384734,
stim/negf.jpg,stim/posf.jpg,stim/2.jpg,stim/5.jpg,stim/latef.jpg,AB,2,4,,,,,,,,,0,31,31,18,,,,,,,,,,4,1,0.716441928851,,,,,,2016_Feb_19_1424,P15,PLC_L_D2S1,NHGY,60.0213384734,
stim/posf.jpg,stim/negf.jpg,stim/5.jpg,stim/2.jpg,stim/latef.jpg,AB,1,2,,,,,,,,,0,32,32,5,,,,,,,,,,2,1,0.599795641403,,,,,,2016_Feb_19_1424,P15,PLC_L_D2S1,NHGY,60.0213384734,
stim/negf.jpg,stim/posf.jpg,stim/5.jpg,stim/2.jpg,stim/latef.jpg,AB,1,2,,,,,,,,,0,33,33,9,,,,,,,,,,2,1,0.566472748052,,,,,,2016_Feb_19_1424,P15,PLC_L_D2S1,NHGY,60.0213384734,
stim/posf.jpg,stim/negf.jpg,stim/2.jpg,stim/5.jpg,stim/latef.jpg,AB,2,4,,,,,,,,,0,34,34,17,,,,,,,,,,4,1,0.616449760341,,,,,,2016_Feb_19_1424,P15,PLC_L_D2S1,NHGY,60.0213384734,
stim/posf.jpg,stim/negf.jpg,stim/4.jpg,stim/6.jpg,stim/latef.jpg,CD,1,2,,,,,,,,,0,35,35,26,,,,,,,,,,2,1,0.633113016019,,,,,,2016_Feb_19_1424,P15,PLC_L_D2S1,NHGY,60.0213384734,
stim/posf.jpg,stim/negf.jpg,stim/2.jpg,stim/5.jpg,stim/latef.jpg,AB,2,4,,,,,,,,,0,36,36,10,,,,,,,,,,4,1,0.749706140156,,,,,,2016_Feb_19_1424,P15,PLC_L_D2S1,NHGY,60.0213384734,
stim/negf.jpg,stim/posf.jpg,stim/6.jpg,stim/4.jpg,stim/latef.jpg,CD,2,4,,,,,,,,,0,37,37,37,,,,,,,,,,4,1,0.766412102119,,,,,,2016_Feb_19_1424,P15,PLC_L_D2S1,NHGY,60.0213384734,
stim/posf.jpg,stim/negf.jpg,stim/3.jpg,stim/1.jpg,stim/latef.jpg,EF,1,2,,,,,,,,,0,38,38,43,,,,,,,,,,4,0,0.649773372481,,,,,,2016_Feb_19_1424,P15,PLC_L_D2S1,NHGY,60.0213384734,
stim/posf.jpg,stim/negf.jpg,stim/6.jpg,stim/4.jpg,stim/latef.jpg,CD,2,4,,,,,,,,,0,39,39,32,,,,,,,,,,4,1,0.633127945174,,,,,,2016_Feb_19_1424,P15,PLC_L_D2S1,NHGY,60.0213384734,
stim/posf.jpg,stim/negf.jpg,stim/1.jpg,stim/3.jpg,stim/latef.jpg,EF,2,4,,,,,,,,,0,40,40,54,,,,,,,,,,4,1,0.84969753875,,,,,,2016_Feb_19_1424,P15,PLC_L_D2S1,NHGY,60.0213384734,
stim/negf.jpg,stim/posf.jpg,stim/1.jpg,stim/3.jpg,stim/latef.jpg,EF,2,4,,,,,,,,,0,41,41,56,,,,,,,,,,4,1,0.533123845972,,,,,,2016_Feb_19_1424,P15,PLC_L_D2S1,NHGY,60.0213384734,
stim/negf.jpg,stim/posf.jpg,stim/6.jpg,stim/4.jpg,stim/latef.jpg,CD,2,4,,,,,,,,,0,42,42,38,,,,,,,,,,4,1,0.683114482167,,,,,,2016_Feb_19_1424,P15,PLC_L_D2S1,NHGY,60.0213384734,
stim/posf.jpg,stim/negf.jpg,stim/5.jpg,stim/2.jpg,stim/latef.jpg,AB,1,2,,,,,,,,,0,43,43,7,,,,,,,,,,2,1,0.8164087593,,,,,,2016_Feb_19_1424,P15,PLC_L_D2S1,NHGY,60.0213384734,
stim/negf.jpg,stim/posf.jpg,stim/3.jpg,stim/1.jpg,stim/latef.jpg,EF,1,2,,,,,,,,,0,44,44,47,,,,,,,,,,2,1,0.966414447958,,,,,,2016_Feb_19_1424,P15,PLC_L_D2S1,NHGY,60.0213384734,
stim/posf.jpg,stim/negf.jpg,stim/6.jpg,stim/4.jpg,stim/latef.jpg,CD,2,4,,,,,,,,,0,45,45,36,,,,,,,,,,4,1,0.53315402909,,,,,,2016_Feb_19_1424,P15,PLC_L_D2S1,NHGY,60.0213384734,
stim/posf.jpg,stim/negf.jpg,stim/6.jpg,stim/4.jpg,stim/latef.jpg,CD,2,4,,,,,,,,,0,46,46,34,,,,,,,,,,4,1,0.666492032045,,,,,,2016_Feb_19_1424,P15,PLC_L_D2S1,NHGY,60.0213384734,
stim/posf.jpg,stim/negf.jpg,stim/6.jpg,stim/4.jpg,stim/latef.jpg,CD,2,4,,,,,,,,,0,47,47,30,,,,,,,,,,4,1,0.583203999955,,,,,,2016_Feb_19_1424,P15,PLC_L_D2S1,NHGY,60.0213384734,
stim/negf.jpg,stim/posf.jpg,stim/4.jpg,stim/6.jpg,stim/latef.jpg,CD,1,2,,,,,,,,,0,48,48,28,,,,,,,,,,2,1,0.633131018823,,,,,,2016_Feb_19_1424,P15,PLC_L_D2S1,NHGY,60.0213384734,
stim/negf.jpg,stim/posf.jpg,stim/4.jpg,stim/6.jpg,stim/latef.jpg,CD,1,2,,,,,,,,,0,49,49,27,,,,,,,,,,2,1,0.56654169765,,,,,,2016_Feb_19_1424,P15,PLC_L_D2S1,NHGY,60.0213384734,
stim/posf.jpg,stim/negf.jpg,stim/2.jpg,stim/5.jpg,stim/latef.jpg,AB,2,4,,,,,,,,,0,50,50,13,,,,,,,,,,4,1,0.633035197347,,,,,,2016_Feb_19_1424,P15,PLC_L_D2S1,NHGY,60.0213384734,
stim/posf.jpg,stim/negf.jpg,stim/3.jpg,stim/1.jpg,stim/latef.jpg,EF,1,2,,,,,,,,,0,51,51,41,,,,,,,,,,2,1,0.933002217268,,,,,,2016_Feb_19_1424,P15,PLC_L_D2S1,NHGY,60.0213384734,
stim/posf.jpg,stim/negf.jpg,stim/5.jpg,stim/2.jpg,stim/latef.jpg,AB,1,2,,,,,,,,,0,52,52,1,,,,,,,,,,2,1,0.599787818934,,,,,,2016_Feb_19_1424,P15,PLC_L_D2S1,NHGY,60.0213384734,
stim/posf.jpg,stim/negf.jpg,stim/1.jpg,stim/3.jpg,stim/latef.jpg,EF,2,4,,,,,,,,,0,53,53,51,,,,,,,,,,4,1,0.899701428931,,,,,,2016_Feb_19_1424,P15,PLC_L_D2S1,NHGY,60.0213384734,
stim/posf.jpg,stim/negf.jpg,stim/4.jpg,stim/6.jpg,stim/latef.jpg,CD,1,2,,,,,,,,,0,54,54,25,,,,,,,,,,2,1,0.549816701315,,,,,,2016_Feb_19_1424,P15,PLC_L_D2S1,NHGY,60.0213384734,
stim/posf.jpg,stim/negf.jpg,stim/5.jpg,stim/2.jpg,stim/latef.jpg,AB,1,2,,,,,,,,,0,55,55,2,,,,,,,,,,2,1,0.533157526795,,,,,,2016_Feb_19_1424,P15,PLC_L_D2S1,NHGY,60.0213384734,
stim/posf.jpg,stim/negf.jpg,stim/3.jpg,stim/1.jpg,stim/latef.jpg,EF,1,2,,,,,,,,,0,56,56,44,,,,,,,,,,2,1,1.13294475626,,,,,,2016_Feb_19_1424,P15,PLC_L_D2S1,NHGY,60.0213384734,
stim/posf.jpg,stim/negf.jpg,stim/2.jpg,stim/5.jpg,stim/latef.jpg,AB,2,4,,,,,,,,,0,57,57,14,,,,,,,,,,4,1,0.983052705421,,,,,,2016_Feb_19_1424,P15,PLC_L_D2S1,NHGY,60.0213384734,
stim/posf.jpg,stim/negf.jpg,stim/1.jpg,stim/3.jpg,stim/latef.jpg,EF,2,4,,,,,,,,,0,58,58,55,,,,,,,,,,4,1,0.933021594493,,,,,,2016_Feb_19_1424,P15,PLC_L_D2S1,NHGY,60.0213384734,
stim/negf.jpg,stim/posf.jpg,stim/6.jpg,stim/4.jpg,stim/latef.jpg,CD,2,4,,,,,,,,,0,59,59,39,,,,,,,,,,4,1,0.982994772239,,,,,,2016_Feb_19_1424,P15,PLC_L_D2S1,NHGY,60.0213384734,
,,,,,,,,,,,,,,,,,,,,,,,,,,,,,,,,0.9984375,0.6875,1,0,0,2016_Feb_19_1424,P15,PLC_L_D2S1,NHGY,60.0213384734,
stim/posf.jpg,stim/negf.jpg,stim/2.jpg,stim/5.jpg,stim/latef.jpg,AB,2,4,,,,,,,,,,,,,0,0,0,16,,,,,,4,1,0.833054159539,,,,,,2016_Feb_19_1424,P15,PLC_L_D2S1,NHGY,60.0213384734,
stim/posf.jpg,stim/negf.jpg,stim/3.jpg,stim/1.jpg,stim/latef.jpg,EF,1,2,,,,,,,,,,,,,0,1,1,45,,,,,,2,1,0.733077043492,,,,,,2016_Feb_19_1424,P15,PLC_L_D2S1,NHGY,60.0213384734,
stim/posf.jpg,stim/negf.jpg,stim/3.jpg,stim/1.jpg,stim/latef.jpg,EF,1,2,,,,,,,,,,,,,0,2,2,42,,,,,,2,1,0.79972458055,,,,,,2016_Feb_19_1424,P15,PLC_L_D2S1,NHGY,60.0213384734,
stim/posf.jpg,stim/negf.jpg,stim/4.jpg,stim/6.jpg,stim/latef.jpg,CD,1,2,,,,,,,,,,,,,0,3,3,22,,,,,,2,1,0.599792889554,,,,,,2016_Feb_19_1424,P15,PLC_L_D2S1,NHGY,60.0213384734,
stim/posf.jpg,stim/negf.jpg,stim/4.jpg,stim/6.jpg,stim/latef.jpg,CD,1,2,,,,,,,,,,,,,0,4,4,20,,,,,,2,1,0.549802830795,,,,,,2016_Feb_19_1424,P15,PLC_L_D2S1,NHGY,60.0213384734,
stim/negf.jpg,stim/posf.jpg,stim/6.jpg,stim/4.jpg,stim/latef.jpg,CD,2,4,,,,,,,,,,,,,0,5,5,38,,,,,,4,1,0.566470393191,,,,,,2016_Feb_19_1424,P15,PLC_L_D2S1,NHGY,60.0213384734,
stim/posf.jpg,stim/negf.jpg,stim/3.jpg,stim/1.jpg,stim/latef.jpg,EF,1,2,,,,,,,,,,,,,0,6,6,43,,,,,,2,1,0.516500595858,,,,,,2016_Feb_19_1424,P15,PLC_L_D2S1,NHGY,60.0213384734,
stim/negf.jpg,stim/posf.jpg,stim/1.jpg,stim/3.jpg,stim/latef.jpg,EF,2,4,,,,,,,,,,,,,0,7,7,56,,,,,,4,1,0.566471502953,,,,,,2016_Feb_19_1424,P15,PLC_L_D2S1,NHGY,60.0213384734,
stim/posf.jpg,stim/negf.jpg,stim/2.jpg,stim/5.jpg,stim/latef.jpg,AB,2,4,,,,,,,,,,,,,0,8,8,10,,,,,,4,1,0.549830677098,,,,,,2016_Feb_19_1424,P15,PLC_L_D2S1,NHGY,60.0213384734,
stim/posf.jpg,stim/negf.jpg,stim/2.jpg,stim/5.jpg,stim/latef.jpg,AB,2,4,,,,,,,,,,,,,0,9,9,13,,,,,,4,1,0.516481347955,,,,,,2016_Feb_19_1424,P15,PLC_L_D2S1,NHGY,60.0213384734,
stim/negf.jpg,stim/posf.jpg,stim/3.jpg,stim/1.jpg,stim/latef.jpg,EF,1,2,,,,,,,,,,,,,0,10,10,46,,,,,,2,1,0.583141961557,,,,,,2016_Feb_19_1424,P15,PLC_L_D2S1,NHGY,60.0213384734,
stim/posf.jpg,stim/negf.jpg,stim/2.jpg,stim/5.jpg,stim/latef.jpg,AB,2,4,,,,,,,,,,,,,0,11,11,12,,,,,,4,1,0.516547506607,,,,,,2016_Feb_19_1424,P15,PLC_L_D2S1,NHGY,60.0213384734,
stim/posf.jpg,stim/negf.jpg,stim/6.jpg,stim/4.jpg,stim/latef.jpg,CD,2,4,,,,,,,,,,,,,0,12,12,31,,,,,,4,1,0.666514010744,,,,,,2016_Feb_19_1424,P15,PLC_L_D2S1,NHGY,60.0213384734,
stim/posf.jpg,stim/negf.jpg,stim/1.jpg,stim/3.jpg,stim/latef.jpg,EF,2,4,,,,,,,,,,,,,0,13,13,53,,,,,,4,1,1.16629742672,,,,,,2016_Feb_19_1424,P15,PLC_L_D2S1,NHGY,60.0213384734,
stim/posf.jpg,stim/negf.jpg,stim/5.jpg,stim/2.jpg,stim/latef.jpg,AB,1,2,,,,,,,,,,,,,0,14,14,4,,,,,,4,0,0.649790635444,,,,,,2016_Feb_19_1424,P15,PLC_L_D2S1,NHGY,60.0213384734,
stim/negf.jpg,stim/posf.jpg,stim/1.jpg,stim/3.jpg,stim/latef.jpg,EF,2,4,,,,,,,,,,,,,0,15,15,58,,,,,,4,1,0.866384649797,,,,,,2016_Feb_19_1424,P15,PLC_L_D2S1,NHGY,60.0213384734,
stim/posf.jpg,stim/negf.jpg,stim/5.jpg,stim/2.jpg,stim/latef.jpg,AB,1,2,,,,,,,,,,,,,0,16,16,3,,,,,,2,1,0.699733338346,,,,,,2016_Feb_19_1424,P15,PLC_L_D2S1,NHGY,60.0213384734,
stim/posf.jpg,stim/negf.jpg,stim/6.jpg,stim/4.jpg,stim/latef.jpg,CD,2,4,,,,,,,,,,,,,0,17,17,35,,,,,,4,1,0.616446151359,,,,,,2016_Feb_19_1424,P15,PLC_L_D2S1,NHGY,60.0213384734,
stim/posf.jpg,stim/negf.jpg,stim/2.jpg,stim/5.jpg,stim/latef.jpg,AB,2,4,,,,,,,,,,,,,0,18,18,15,,,,,,4,1,0.549776340868,,,,,,2016_Feb_19_1424,P15,PLC_L_D2S1,NHGY,60.0213384734,
stim/negf.jpg,stim/posf.jpg,stim/3.jpg,stim/1.jpg,stim/latef.jpg,EF,1,2,,,,,,,,,,,,,0,19,19,49,,,,,,2,1,0.849737709725,,,,,,2016_Feb_19_1424,P15,PLC_L_D2S1,NHGY,60.0213384734,
stim/posf.jpg,stim/negf.jpg,stim/5.jpg,stim/2.jpg,stim/latef.jpg,AB,1,2,,,,,,,,,,,,,0,20,20,1,,,,,,2,1,0.81641423593,,,,,,2016_Feb_19_1424,P15,PLC_L_D2S1,NHGY,60.0213384734,
stim/negf.jpg,stim/posf.jpg,stim/4.jpg,stim/6.jpg,stim/latef.jpg,CD,1,2,,,,,,,,,,,,,0,21,21,27,,,,,,2,1,0.716426858344,,,,,,2016_Feb_19_1424,P15,PLC_L_D2S1,NHGY,60.0213384734,
stim/negf.jpg,stim/posf.jpg,stim/4.jpg,stim/6.jpg,stim/latef.jpg,CD,1,2,,,,,,,,,,,,,0,22,22,29,,,,,,2,1,0.566486468198,,,,,,2016_Feb_19_1424,P15,PLC_L_D2S1,NHGY,60.0213384734,
stim/posf.jpg,stim/negf.jpg,stim/2.jpg,stim/5.jpg,stim/latef.jpg,AB,2,4,,,,,,,,,,,,,0,23,23,11,,,,,,4,1,0.683106280756,,,,,,2016_Feb_19_1424,P15,PLC_L_D2S1,NHGY,60.0213384734,
stim/posf.jpg,stim/negf.jpg,stim/1.jpg,stim/3.jpg,stim/latef.jpg,EF,2,4,,,,,,,,,,,,,0,24,24,52,,,,,,4,1,0.849721397127,,,,,,2016_Feb_19_1424,P15,PLC_L_D2S1,NHGY,60.0213384734,
stim/posf.jpg,stim/negf.jpg,stim/5.jpg,stim/2.jpg,stim/latef.jpg,AB,1,2,,,,,,,,,,,,,0,25,25,2,,,,,,2,1,0.616516358086,,,,,,2016_Feb_19_1424,P15,PLC_L_D2S1,NHGY,60.0213384734,
stim/posf.jpg,stim/negf.jpg,stim/3.jpg,stim/1.jpg,stim/latef.jpg,EF,1,2,,,,,,,,,,,,,0,26,26,41,,,,,,2,1,0.633106727368,,,,,,2016_Feb_19_1424,P15,PLC_L_D2S1,NHGY,60.0213384734,
stim/posf.jpg,stim/negf.jpg,stim/1.jpg,stim/3.jpg,stim/latef.jpg,EF,2,4,,,,,,,,,,,,,0,27,27,51,,,,,,4,1,0.899691386939,,,,,,2016_Feb_19_1424,P15,PLC_L_D2S1,NHGY,60.0213384734,
stim/posf.jpg,stim/negf.jpg,stim/4.jpg,stim/6.jpg,stim/latef.jpg,CD,1,2,,,,,,,,,,,,,0,28,28,26,,,,,,2,1,0.633128420356,,,,,,2016_Feb_19_1424,P15,PLC_L_D2S1,NHGY,60.0213384734,
stim/posf.jpg,stim/negf.jpg,stim/5.jpg,stim/2.jpg,stim/latef.jpg,AB,1,2,,,,,,,,,,,,,0,29,29,6,,,,,,2,1,0.749752924591,,,,,,2016_Feb_19_1424,P15,PLC_L_D2S1,NHGY,60.0213384734,
stim/negf.jpg,stim/posf.jpg,stim/3.jpg,stim/1.jpg,stim/latef.jpg,EF,1,2,,,,,,,,,,,,,0,30,30,47,,,,,,2,1,0.749683400563,,,,,,2016_Feb_19_1424,P15,PLC_L_D2S1,NHGY,60.0213384734,
stim/posf.jpg,stim/negf.jpg,stim/6.jpg,stim/4.jpg,stim/latef.jpg,CD,2,4,,,,,,,,,,,,,0,31,31,33,,,,,,4,1,0.766431951519,,,,,,2016_Feb_19_1424,P15,PLC_L_D2S1,NHGY,60.0213384734,
stim/posf.jpg,stim/negf.jpg,stim/6.jpg,stim/4.jpg,stim/latef.jpg,CD,2,4,,,,,,,,,,,,,0,32,32,30,,,,,,4,1,0.833089010274,,,,,,2016_Feb_19_1424,P15,PLC_L_D2S1,NHGY,60.0213384734,
stim/posf.jpg,stim/negf.jpg,stim/2.jpg,stim/5.jpg,stim/latef.jpg,AB,2,4,,,,,,,,,,,,,0,33,33,14,,,,,,4,1,0.866372890531,,,,,,2016_Feb_19_1424,P15,PLC_L_D2S1,NHGY,60.0213384734,
stim/negf.jpg,stim/posf.jpg,stim/2.jpg,stim/5.jpg,stim/latef.jpg,AB,2,4,,,,,,,,,,,,,0,34,34,18,,,,,,4,1,0.73309987331,,,,,,2016_Feb_19_1424,P15,PLC_L_D2S1,NHGY,60.0213384734,
stim/posf.jpg,stim/negf.jpg,stim/4.jpg,stim/6.jpg,stim/latef.jpg,CD,1,2,,,,,,,,,,,,,0,35,35,21,,,,,,2,1,0.716422085465,,,,,,2016_Feb_19_1424,P15,PLC_L_D2S1,NHGY,60.0213384734,
stim/negf.jpg,stim/posf.jpg,stim/6.jpg,stim/4.jpg,stim/latef.jpg,CD,2,4,,,,,,,,,,,,,0,36,36,37,,,,,,4,1,0.633101410134,,,,,,2016_Feb_19_1424,P15,PLC_L_D2S1,NHGY,60.0213384734,
stim/posf.jpg,stim/negf.jpg,stim/1.jpg,stim/3.jpg,stim/latef.jpg,EF,2,4,,,,,,,,,,,,,0,37,37,50,,,,,,4,1,0.683059255723,,,,,,2016_Feb_19_1424,P15,PLC_L_D2S1,NHGY,60.0213384734,
stim/posf.jpg,stim/negf.jpg,stim/3.jpg,stim/1.jpg,stim/latef.jpg,EF,1,2,,,,,,,,,,,,,0,38,38,40,,,,,,2,1,0.699746207374,,,,,,2016_Feb_19_1424,P15,PLC_L_D2S1,NHGY,60.0213384734,
stim/posf.jpg,stim/negf.jpg,stim/5.jpg,stim/2.jpg,stim/latef.jpg,AB,1,2,,,,,,,,,,,,,0,39,39,0,,,,,,2,1,0.766413115642,,,,,,2016_Feb_19_1424,P15,PLC_L_D2S1,NHGY,60.0213384734,
stim/posf.jpg,stim/negf.jpg,stim/4.jpg,stim/6.jpg,stim/latef.jpg,CD,1,2,,,,,,,,,,,,,0,40,40,25,,,,,,2,1,1.06630950177,,,,,,2016_Feb_19_1424,P15,PLC_L_D2S1,NHGY,60.0213384734,
stim/posf.jpg,stim/negf.jpg,stim/6.jpg,stim/4.jpg,stim/latef.jpg,CD,2,4,,,,,,,,,,,,,0,41,41,32,,,,,,4,1,0.649787468562,,,,,,2016_Feb_19_1424,P15,PLC_L_D2S1,NHGY,60.0213384734,
stim/negf.jpg,stim/posf.jpg,stim/2.jpg,stim/5.jpg,stim/latef.jpg,AB,2,4,,,,,,,,,,,,,0,42,42,19,,,,,,4,1,0.933030598903,,,,,,2016_Feb_19_1424,P15,PLC_L_D2S1,NHGY,60.0213384734,
stim/negf.jpg,stim/posf.jpg,stim/6.jpg,stim/4.jpg,stim/latef.jpg,CD,2,4,,,,,,,,,,,,,0,43,43,39,,,,,,4,1,1.06630799202,,,,,,2016_Feb_19_1424,P15,PLC_L_D2S1,NHGY,60.0213384734,
stim/negf.jpg,stim/posf.jpg,stim/5.jpg,stim/2.jpg,stim/latef.jpg,AB,1,2,,,,,,,,,,,,,0,44,44,9,,,,,,2,1,0.649776401018,,,,,,2016_Feb_19_1424,P15,PLC_L_D2S1,NHGY,60.0213384734,
stim/posf.jpg,stim/negf.jpg,stim/4.jpg,stim/6.jpg,stim/latef.jpg,CD,1,2,,,,,,,,,,,,,0,45,45,23,,,,,,2,1,0.583124373785,,,,,,2016_Feb_19_1424,P15,PLC_L_D2S1,NHGY,60.0213384734,
stim/negf.jpg,stim/posf.jpg,stim/1.jpg,stim/3.jpg,stim/latef.jpg,EF,2,4,,,,,,,,,,,,,0,46,46,59,,,,,,4,1,0.749764139502,,,,,,2016_Feb_19_1424,P15,PLC_L_D2S1,NHGY,60.0213384734,
stim/negf.jpg,stim/posf.jpg,stim/1.jpg,stim/3.jpg,stim/latef.jpg,EF,2,4,,,,,,,,,,,,,0,47,47,57,,,,,,4,1,1.11630246877,,,,,,2016_Feb_19_1424,P15,PLC_L_D2S1,NHGY,60.0213384734,
stim/negf.jpg,stim/posf.jpg,stim/5.jpg,stim/2.jpg,stim/latef.jpg,AB,1,2,,,,,,,,,,,,,0,48,48,8,,,,,,2,1,0.599761701936,,,,,,2016_Feb_19_1424,P15,PLC_L_D2S1,NHGY,60.0213384734,
stim/posf.jpg,stim/negf.jpg,stim/3.jpg,stim/1.jpg,stim/latef.jpg,EF,1,2,,,,,,,,,,,,,0,49,49,44,,,,,,2,1,1.41620695706,,,,,,2016_Feb_19_1424,P15,PLC_L_D2S1,NHGY,60.0213384734,
stim/posf.jpg,stim/negf.jpg,stim/4.jpg,stim/6.jpg,stim/latef.jpg,CD,1,2,,,,,,,,,,,,,0,50,50,24,,,,,,2,1,0.699783443044,,,,,,2016_Feb_19_1424,P15,PLC_L_D2S1,NHGY,60.0213384734,
stim/posf.jpg,stim/negf.jpg,stim/5.jpg,stim/2.jpg,stim/latef.jpg,AB,1,2,,,,,,,,,,,,,0,51,51,7,,,,,,2,1,0.666459451961,,,,,,2016_Feb_19_1424,P15,PLC_L_D2S1,NHGY,60.0213384734,
stim/negf.jpg,stim/posf.jpg,stim/4.jpg,stim/6.jpg,stim/latef.jpg,CD,1,2,,,,,,,,,,,,,0,52,52,28,,,,,,2,1,0.749758680917,,,,,,2016_Feb_19_1424,P15,PLC_L_D2S1,NHGY,60.0213384734,
stim/posf.jpg,stim/negf.jpg,stim/1.jpg,stim/3.jpg,stim/latef.jpg,EF,2,4,,,,,,,,,,,,,0,53,53,54,,,,,,4,1,0.783087496006,,,,,,2016_Feb_19_1424,P15,PLC_L_D2S1,NHGY,60.0213384734,
stim/posf.jpg,stim/negf.jpg,stim/5.jpg,stim/2.jpg,stim/latef.jpg,AB,1,2,,,,,,,,,,,,,0,54,54,5,,,,,,2,1,0.766389837708,,,,,,2016_Feb_19_1424,P15,PLC_L_D2S1,NHGY,60.0213384734,
stim/posf.jpg,stim/negf.jpg,stim/2.jpg,stim/5.jpg,stim/latef.jpg,AB,2,4,,,,,,,,,,,,,0,55,55,17,,,,,,4,1,1.1162824299,,,,,,2016_Feb_19_1424,P15,PLC_L_D2S1,NHGY,60.0213384734,
stim/posf.jpg,stim/negf.jpg,stim/6.jpg,stim/4.jpg,stim/latef.jpg,CD,2,4,,,,,,,,,,,,,0,56,56,36,,,,,,4,1,0.699779960376,,,,,,2016_Feb_19_1424,P15,PLC_L_D2S1,NHGY,60.0213384734,
stim/negf.jpg,stim/posf.jpg,stim/3.jpg,stim/1.jpg,stim/latef.jpg,EF,1,2,,,,,,,,,,,,,0,57,57,48,,,,,,2,1,1.28290531761,,,,,,2016_Feb_19_1424,P15,PLC_L_D2S1,NHGY,60.0213384734,
stim/posf.jpg,stim/negf.jpg,stim/1.jpg,stim/3.jpg,stim/latef.jpg,EF,2,4,,,,,,,,,,,,,0,58,58,55,,,,,,4,1,0.849722573054,,,,,,2016_Feb_19_1424,P15,PLC_L_D2S1,NHGY,60.0213384734,
stim/posf.jpg,stim/negf.jpg,stim/6.jpg,stim/4.jpg,stim/latef.jpg,CD,2,4,,,,,,,,,,,,,0,59,59,34,,,,,,4,1,0.649770361988,,,,,,2016_Feb_19_1424,P15,PLC_L_D2S1,NHGY,60.0213384734,
