fb_corr,fb_incorr,symbol2,symbol1,fb_late,pair,position,correct,block_01.thisRepN,block_01.thisTrialN,block_01.thisN,block_01.thisIndex,block_02.thisRepN,block_02.thisTrialN,block_02.thisN,block_02.thisIndex,block_03.thisRepN,block_03.thisTrialN,block_03.thisN,block_03.thisIndex,block_04.thisRepN,block_04.thisTrialN,block_04.thisN,block_04.thisIndex,mouse.x,mouse.y,mouse.leftButton,mouse.midButton,mouse.rightButton,buttonBox_2.keys,buttonBox_2.corr,buttonBox_2.rt,mouse_2.x,mouse_2.y,mouse_2.leftButton,mouse_2.midButton,mouse_2.rightButton,date,Participant,expName,Group,frameRate,
,,,,,,,,,,,,,,,,,,,,,,,,0.9984375,0.376953125,1,0,0,,,,,,,,,2016_Mai_03_0902,P16,PLC_L_D2S1,NHGY,60.0249087022,
stim/posf.jpg,stim/negf.jpg,stim/5.jpg,stim/6.jpg,stim/latef.jpg,EF,2,4,0,0,0,50,,,,,,,,,,,,,,,,,,4,1,1.01639490081,,,,,,2016_Mai_03_0902,P16,PLC_L_D2S1,NHGY,60.0249087022,
stim/negf.jpg,stim/posf.jpg,stim/6.jpg,stim/5.jpg,stim/latef.jpg,EF,1,2,0,1,1,48,,,,,,,,,,,,,,,,,,2,1,0.966344978064,,,,,,2016_Mai_03_0902,P16,PLC_L_D2S1,NHGY,60.0249087022,
stim/posf.jpg,stim/negf.jpg,stim/4.jpg,stim/3.jpg,stim/latef.jpg,AB,2,4,0,2,2,13,,,,,,,,,,,,,,,,,,4,1,0.983027322248,,,,,,2016_Mai_03_0902,P16,PLC_L_D2S1,NHGY,60.0249087022,
stim/posf.jpg,stim/negf.jpg,stim/6.jpg,stim/5.jpg,stim/latef.jpg,EF,1,2,0,3,3,42,,,,,,,,,,,,,,,,,,2,1,0.816359656094,,,,,,2016_Mai_03_0902,P16,PLC_L_D2S1,NHGY,60.0249087022,
stim/posf.jpg,stim/negf.jpg,stim/1.jpg,stim/2.jpg,stim/latef.jpg,CD,1,2,0,4,4,20,,,,,,,,,,,,,,,,,,4,0,1.14962830946,,,,,,2016_Mai_03_0902,P16,PLC_L_D2S1,NHGY,60.0249087022,
stim/posf.jpg,stim/negf.jpg,stim/5.jpg,stim/6.jpg,stim/latef.jpg,EF,2,4,0,5,5,55,,,,,,,,,,,,,,,,,,4,1,1.24960497137,,,,,,2016_Mai_03_0902,P16,PLC_L_D2S1,NHGY,60.0249087022,
stim/posf.jpg,stim/negf.jpg,stim/6.jpg,stim/5.jpg,stim/latef.jpg,EF,1,2,0,6,6,45,,,,,,,,,,,,,,,,,,2,1,0.633154086232,,,,,,2016_Mai_03_0902,P16,PLC_L_D2S1,NHGY,60.0249087022,
stim/posf.jpg,stim/negf.jpg,stim/1.jpg,stim/2.jpg,stim/latef.jpg,CD,1,2,0,7,7,24,,,,,,,,,,,,,,,,,,4,0,0.9829982519,,,,,,2016_Mai_03_0902,P16,PLC_L_D2S1,NHGY,60.0249087022,
stim/negf.jpg,stim/posf.jpg,stim/5.jpg,stim/6.jpg,stim/latef.jpg,EF,2,4,0,8,8,58,,,,,,,,,,,,,,,,,,4,1,0.849721183596,,,,,,2016_Mai_03_0902,P16,PLC_L_D2S1,NHGY,60.0249087022,
stim/posf.jpg,stim/negf.jpg,stim/4.jpg,stim/3.jpg,stim/latef.jpg,AB,2,4,0,9,9,14,,,,,,,,,,,,,,,,,,4,1,1.04957441833,,,,,,2016_Mai_03_0902,P16,PLC_L_D2S1,NHGY,60.0249087022,
stim/posf.jpg,stim/negf.jpg,stim/6.jpg,stim/5.jpg,stim/latef.jpg,EF,1,2,0,10,10,40,,,,,,,,,,,,,,,,,,2,1,0.733045708507,,,,,,2016_Mai_03_0902,P16,PLC_L_D2S1,NHGY,60.0249087022,
stim/negf.jpg,stim/posf.jpg,stim/4.jpg,stim/3.jpg,stim/latef.jpg,AB,2,4,0,11,11,18,,,,,,,,,,,,,,,,,,4,1,0.816390527927,,,,,,2016_Mai_03_0902,P16,PLC_L_D2S1,NHGY,60.0249087022,
stim/negf.jpg,stim/posf.jpg,stim/6.jpg,stim/5.jpg,stim/latef.jpg,EF,1,2,0,12,12,49,,,,,,,,,,,,,,,,,,2,1,0.683107393525,,,,,,2016_Mai_03_0902,P16,PLC_L_D2S1,NHGY,60.0249087022,
stim/negf.jpg,stim/posf.jpg,stim/1.jpg,stim/2.jpg,stim/latef.jpg,CD,1,2,0,13,13,29,,,,,,,,,,,,,,,,,,4,0,0.833025444074,,,,,,2016_Mai_03_0902,P16,PLC_L_D2S1,NHGY,60.0249087022,
stim/posf.jpg,stim/negf.jpg,stim/5.jpg,stim/6.jpg,stim/latef.jpg,EF,2,4,0,14,14,52,,,,,,,,,,,,,,,,,,4,1,0.766461006831,,,,,,2016_Mai_03_0902,P16,PLC_L_D2S1,NHGY,60.0249087022,
stim/posf.jpg,stim/negf.jpg,stim/3.jpg,stim/4.jpg,stim/latef.jpg,AB,1,2,0,15,15,2,,,,,,,,,,,,,,,,,,2,1,1.18293932023,,,,,,2016_Mai_03_0902,P16,PLC_L_D2S1,NHGY,60.0249087022,
stim/posf.jpg,stim/negf.jpg,stim/3.jpg,stim/4.jpg,stim/latef.jpg,AB,1,2,0,16,16,5,,,,,,,,,,,,,,,,,,2,1,0.566403918753,,,,,,2016_Mai_03_0902,P16,PLC_L_D2S1,NHGY,60.0249087022,
stim/posf.jpg,stim/negf.jpg,stim/5.jpg,stim/6.jpg,stim/latef.jpg,EF,2,4,0,17,17,53,,,,,,,,,,,,,,,,,,4,1,0.683112229562,,,,,,2016_Mai_03_0902,P16,PLC_L_D2S1,NHGY,60.0249087022,
stim/posf.jpg,stim/negf.jpg,stim/1.jpg,stim/2.jpg,stim/latef.jpg,CD,1,2,0,18,18,23,,,,,,,,,,,,,,,,,,4,0,0.883022320801,,,,,,2016_Mai_03_0902,P16,PLC_L_D2S1,NHGY,60.0249087022,
stim/posf.jpg,stim/negf.jpg,stim/2.jpg,stim/1.jpg,stim/latef.jpg,CD,2,4,0,19,19,30,,,,,,,,,,,,,,,,,,4,1,0.916358756856,,,,,,2016_Mai_03_0902,P16,PLC_L_D2S1,NHGY,60.0249087022,
stim/posf.jpg,stim/negf.jpg,stim/4.jpg,stim/3.jpg,stim/latef.jpg,AB,2,4,0,20,20,11,,,,,,,,,,,,,,,,,,4,1,0.966346999094,,,,,,2016_Mai_03_0902,P16,PLC_L_D2S1,NHGY,60.0249087022,
stim/negf.jpg,stim/posf.jpg,stim/5.jpg,stim/6.jpg,stim/latef.jpg,EF,2,4,0,21,21,59,,,,,,,,,,,,,,,,,,2,0,0.649782638542,,,,,,2016_Mai_03_0902,P16,PLC_L_D2S1,NHGY,60.0249087022,
stim/posf.jpg,stim/negf.jpg,stim/1.jpg,stim/2.jpg,stim/latef.jpg,CD,1,2,0,22,22,26,,,,,,,,,,,,,,,,,,2,1,0.949687950888,,,,,,2016_Mai_03_0902,P16,PLC_L_D2S1,NHGY,60.0249087022,
stim/posf.jpg,stim/negf.jpg,stim/5.jpg,stim/6.jpg,stim/latef.jpg,EF,2,4,0,23,23,51,,,,,,,,,,,,,,,,,,4,1,0.833057401608,,,,,,2016_Mai_03_0902,P16,PLC_L_D2S1,NHGY,60.0249087022,
stim/posf.jpg,stim/negf.jpg,stim/2.jpg,stim/1.jpg,stim/latef.jpg,CD,2,4,0,24,24,33,,,,,,,,,,,,,,,,,,4,1,0.849732230087,,,,,,2016_Mai_03_0902,P16,PLC_L_D2S1,NHGY,60.0249087022,
stim/posf.jpg,stim/negf.jpg,stim/5.jpg,stim/6.jpg,stim/latef.jpg,EF,2,4,0,25,25,54,,,,,,,,,,,,,,,,,,4,1,0.733070766871,,,,,,2016_Mai_03_0902,P16,PLC_L_D2S1,NHGY,60.0249087022,
stim/negf.jpg,stim/posf.jpg,stim/5.jpg,stim/6.jpg,stim/latef.jpg,EF,2,4,0,26,26,56,,,,,,,,,,,,,,,,,,4,1,0.733150492288,,,,,,2016_Mai_03_0902,P16,PLC_L_D2S1,NHGY,60.0249087022,
stim/negf.jpg,stim/posf.jpg,stim/6.jpg,stim/5.jpg,stim/latef.jpg,EF,1,2,0,27,27,47,,,,,,,,,,,,,,,,,,2,1,0.84971928888,,,,,,2016_Mai_03_0902,P16,PLC_L_D2S1,NHGY,60.0249087022,
stim/posf.jpg,stim/negf.jpg,stim/3.jpg,stim/4.jpg,stim/latef.jpg,AB,1,2,0,28,28,0,,,,,,,,,,,,,,,,,,2,1,1.06631948061,,,,,,2016_Mai_03_0902,P16,PLC_L_D2S1,NHGY,60.0249087022,
stim/posf.jpg,stim/negf.jpg,stim/4.jpg,stim/3.jpg,stim/latef.jpg,AB,2,4,0,29,29,17,,,,,,,,,,,,,,,,,,4,1,0.633115040056,,,,,,2016_Mai_03_0902,P16,PLC_L_D2S1,NHGY,60.0249087022,
stim/negf.jpg,stim/posf.jpg,stim/2.jpg,stim/1.jpg,stim/latef.jpg,CD,2,4,0,30,30,38,,,,,,,,,,,,,,,,,,4,1,0.766450823487,,,,,,2016_Mai_03_0902,P16,PLC_L_D2S1,NHGY,60.0249087022,
stim/negf.jpg,stim/posf.jpg,stim/6.jpg,stim/5.jpg,stim/latef.jpg,EF,1,2,0,31,31,46,,,,,,,,,,,,,,,,,,2,1,0.849624282433,,,,,,2016_Mai_03_0902,P16,PLC_L_D2S1,NHGY,60.0249087022,
stim/negf.jpg,stim/posf.jpg,stim/2.jpg,stim/1.jpg,stim/latef.jpg,CD,2,4,0,32,32,39,,,,,,,,,,,,,,,,,,4,1,0.783039340158,,,,,,2016_Mai_03_0902,P16,PLC_L_D2S1,NHGY,60.0249087022,
stim/posf.jpg,stim/negf.jpg,stim/4.jpg,stim/3.jpg,stim/latef.jpg,AB,2,4,0,33,33,12,,,,,,,,,,,,,,,,,,4,1,0.799720848261,,,,,,2016_Mai_03_0902,P16,PLC_L_D2S1,NHGY,60.0249087022,
stim/posf.jpg,stim/negf.jpg,stim/1.jpg,stim/2.jpg,stim/latef.jpg,CD,1,2,0,34,34,25,,,,,,,,,,,,,,,,,,2,1,0.983011641222,,,,,,2016_Mai_03_0902,P16,PLC_L_D2S1,NHGY,60.0249087022,
stim/posf.jpg,stim/negf.jpg,stim/2.jpg,stim/1.jpg,stim/latef.jpg,CD,2,4,0,35,35,34,,,,,,,,,,,,,,,,,,4,1,0.64980390146,,,,,,2016_Mai_03_0902,P16,PLC_L_D2S1,NHGY,60.0249087022,
stim/posf.jpg,stim/negf.jpg,stim/2.jpg,stim/1.jpg,stim/latef.jpg,CD,2,4,0,36,36,31,,,,,,,,,,,,,,,,,,4,1,0.716436996575,,,,,,2016_Mai_03_0902,P16,PLC_L_D2S1,NHGY,60.0249087022,
stim/posf.jpg,stim/negf.jpg,stim/2.jpg,stim/1.jpg,stim/latef.jpg,CD,2,4,0,37,37,36,,,,,,,,,,,,,,,,,,4,1,0.633135740574,,,,,,2016_Mai_03_0902,P16,PLC_L_D2S1,NHGY,60.0249087022,
stim/negf.jpg,stim/posf.jpg,stim/4.jpg,stim/3.jpg,stim/latef.jpg,AB,2,4,0,38,38,19,,,,,,,,,,,,,,,,,,4,1,0.816365466555,,,,,,2016_Mai_03_0902,P16,PLC_L_D2S1,NHGY,60.0249087022,
stim/negf.jpg,stim/posf.jpg,stim/1.jpg,stim/2.jpg,stim/latef.jpg,CD,1,2,0,39,39,27,,,,,,,,,,,,,,,,,,2,1,1.0663127288,,,,,,2016_Mai_03_0902,P16,PLC_L_D2S1,NHGY,60.0249087022,
stim/posf.jpg,stim/negf.jpg,stim/3.jpg,stim/4.jpg,stim/latef.jpg,AB,1,2,0,40,40,7,,,,,,,,,,,,,,,,,,2,1,0.76641543742,,,,,,2016_Mai_03_0902,P16,PLC_L_D2S1,NHGY,60.0249087022,
stim/posf.jpg,stim/negf.jpg,stim/6.jpg,stim/5.jpg,stim/latef.jpg,EF,1,2,0,41,41,41,,,,,,,,,,,,,,,,,,2,1,0.849715887415,,,,,,2016_Mai_03_0902,P16,PLC_L_D2S1,NHGY,60.0249087022,
stim/posf.jpg,stim/negf.jpg,stim/3.jpg,stim/4.jpg,stim/latef.jpg,AB,1,2,0,42,42,1,,,,,,,,,,,,,,,,,,2,1,0.549804015744,,,,,,2016_Mai_03_0902,P16,PLC_L_D2S1,NHGY,60.0249087022,
stim/posf.jpg,stim/negf.jpg,stim/3.jpg,stim/4.jpg,stim/latef.jpg,AB,1,2,0,43,43,6,,,,,,,,,,,,,,,,,,2,1,0.56647956602,,,,,,2016_Mai_03_0902,P16,PLC_L_D2S1,NHGY,60.0249087022,
stim/posf.jpg,stim/negf.jpg,stim/4.jpg,stim/3.jpg,stim/latef.jpg,AB,2,4,0,44,44,15,,,,,,,,,,,,,,,,,,4,1,0.73307191573,,,,,,2016_Mai_03_0902,P16,PLC_L_D2S1,NHGY,60.0249087022,
stim/posf.jpg,stim/negf.jpg,stim/2.jpg,stim/1.jpg,stim/latef.jpg,CD,2,4,0,45,45,35,,,,,,,,,,,,,,,,,,4,1,0.783089050875,,,,,,2016_Mai_03_0902,P16,PLC_L_D2S1,NHGY,60.0249087022,
stim/posf.jpg,stim/negf.jpg,stim/4.jpg,stim/3.jpg,stim/latef.jpg,AB,2,4,0,46,46,10,,,,,,,,,,,,,,,,,,4,1,0.649800045864,,,,,,2016_Mai_03_0902,P16,PLC_L_D2S1,NHGY,60.0249087022,
stim/posf.jpg,stim/negf.jpg,stim/4.jpg,stim/3.jpg,stim/latef.jpg,AB,2,4,0,47,47,16,,,,,,,,,,,,,,,,,,4,1,0.533155638094,,,,,,2016_Mai_03_0902,P16,PLC_L_D2S1,NHGY,60.0249087022,
stim/negf.jpg,stim/posf.jpg,stim/3.jpg,stim/4.jpg,stim/latef.jpg,AB,1,2,0,48,48,8,,,,,,,,,,,,,,,,,,2,1,0.566483175002,,,,,,2016_Mai_03_0902,P16,PLC_L_D2S1,NHGY,60.0249087022,
stim/posf.jpg,stim/negf.jpg,stim/2.jpg,stim/1.jpg,stim/latef.jpg,CD,2,4,0,49,49,32,,,,,,,,,,,,,,,,,,4,1,0.699782820494,,,,,,2016_Mai_03_0902,P16,PLC_L_D2S1,NHGY,60.0249087022,
stim/posf.jpg,stim/negf.jpg,stim/6.jpg,stim/5.jpg,stim/latef.jpg,EF,1,2,0,50,50,44,,,,,,,,,,,,,,,,,,2,1,0.683144902877,,,,,,2016_Mai_03_0902,P16,PLC_L_D2S1,NHGY,60.0249087022,
stim/negf.jpg,stim/posf.jpg,stim/5.jpg,stim/6.jpg,stim/latef.jpg,EF,2,4,0,51,51,57,,,,,,,,,,,,,,,,,,4,1,0.666455409902,,,,,,2016_Mai_03_0902,P16,PLC_L_D2S1,NHGY,60.0249087022,
stim/posf.jpg,stim/negf.jpg,stim/1.jpg,stim/2.jpg,stim/latef.jpg,CD,1,2,0,52,52,22,,,,,,,,,,,,,,,,,,2,1,0.883046925035,,,,,,2016_Mai_03_0902,P16,PLC_L_D2S1,NHGY,60.0249087022,
stim/posf.jpg,stim/negf.jpg,stim/1.jpg,stim/2.jpg,stim/latef.jpg,CD,1,2,0,53,53,21,,,,,,,,,,,,,,,,,,2,1,0.849720789615,,,,,,2016_Mai_03_0902,P16,PLC_L_D2S1,NHGY,60.0249087022,
stim/posf.jpg,stim/negf.jpg,stim/3.jpg,stim/4.jpg,stim/latef.jpg,AB,1,2,0,54,54,3,,,,,,,,,,,,,,,,,,2,1,0.783058951967,,,,,,2016_Mai_03_0902,P16,PLC_L_D2S1,NHGY,60.0249087022,
stim/posf.jpg,stim/negf.jpg,stim/6.jpg,stim/5.jpg,stim/latef.jpg,EF,1,2,0,55,55,43,,,,,,,,,,,,,,,,,,2,1,0.866371260475,,,,,,2016_Mai_03_0902,P16,PLC_L_D2S1,NHGY,60.0249087022,
stim/negf.jpg,stim/posf.jpg,stim/3.jpg,stim/4.jpg,stim/latef.jpg,AB,1,2,0,56,56,9,,,,,,,,,,,,,,,,,,2,1,0.766406144292,,,,,,2016_Mai_03_0902,P16,PLC_L_D2S1,NHGY,60.0249087022,
stim/negf.jpg,stim/posf.jpg,stim/2.jpg,stim/1.jpg,stim/latef.jpg,CD,2,4,0,57,57,37,,,,,,,,,,,,,,,,,,4,1,0.883027580892,,,,,,2016_Mai_03_0902,P16,PLC_L_D2S1,NHGY,60.0249087022,
stim/posf.jpg,stim/negf.jpg,stim/3.jpg,stim/4.jpg,stim/latef.jpg,AB,1,2,0,58,58,4,,,,,,,,,,,,,,,,,,2,1,0.766418499039,,,,,,2016_Mai_03_0902,P16,PLC_L_D2S1,NHGY,60.0249087022,
stim/negf.jpg,stim/posf.jpg,stim/1.jpg,stim/2.jpg,stim/latef.jpg,CD,1,2,0,59,59,28,,,,,,,,,,,,,,,,,,4,0,1.41612175502,,,,,,2016_Mai_03_0902,P16,PLC_L_D2S1,NHGY,60.0249087022,
,,,,,,,,,,,,,,,,,,,,,,,,,,,,,,,,0.9984375,0.376953125,0,0,1,2016_Mai_03_0902,P16,PLC_L_D2S1,NHGY,60.0249087022,
stim/posf.jpg,stim/negf.jpg,stim/5.jpg,stim/6.jpg,stim/latef.jpg,EF,2,4,,,,,0,0,0,52,,,,,,,,,,,,,,4,1,0.999665949632,,,,,,2016_Mai_03_0902,P16,PLC_L_D2S1,NHGY,60.0249087022,
stim/posf.jpg,stim/negf.jpg,stim/1.jpg,stim/2.jpg,stim/latef.jpg,CD,1,2,,,,,0,1,1,25,,,,,,,,,,,,,,2,1,0.883052491889,,,,,,2016_Mai_03_0902,P16,PLC_L_D2S1,NHGY,60.0249087022,
stim/negf.jpg,stim/posf.jpg,stim/1.jpg,stim/2.jpg,stim/latef.jpg,CD,1,2,,,,,0,2,2,27,,,,,,,,,,,,,,2,1,0.916378082954,,,,,,2016_Mai_03_0902,P16,PLC_L_D2S1,NHGY,60.0249087022,
stim/posf.jpg,stim/negf.jpg,stim/3.jpg,stim/4.jpg,stim/latef.jpg,AB,1,2,,,,,0,3,3,3,,,,,,,,,,,,,,2,1,0.866370851457,,,,,,2016_Mai_03_0902,P16,PLC_L_D2S1,NHGY,60.0249087022,
stim/posf.jpg,stim/negf.jpg,stim/4.jpg,stim/3.jpg,stim/latef.jpg,AB,2,4,,,,,0,4,4,12,,,,,,,,,,,,,,4,1,0.76640055037,,,,,,2016_Mai_03_0902,P16,PLC_L_D2S1,NHGY,60.0249087022,
stim/posf.jpg,stim/negf.jpg,stim/1.jpg,stim/2.jpg,stim/latef.jpg,CD,1,2,,,,,0,5,5,26,,,,,,,,,,,,,,2,1,1.0996055443,,,,,,2016_Mai_03_0902,P16,PLC_L_D2S1,NHGY,60.0249087022,
stim/negf.jpg,stim/posf.jpg,stim/6.jpg,stim/5.jpg,stim/latef.jpg,EF,1,2,,,,,0,6,6,48,,,,,,,,,,,,,,2,1,1.03298613625,,,,,,2016_Mai_03_0902,P16,PLC_L_D2S1,NHGY,60.0249087022,
stim/posf.jpg,stim/negf.jpg,stim/2.jpg,stim/1.jpg,stim/latef.jpg,CD,2,4,,,,,0,7,7,32,,,,,,,,,,,,,,4,1,0.949676570565,,,,,,2016_Mai_03_0902,P16,PLC_L_D2S1,NHGY,60.0249087022,
stim/posf.jpg,stim/negf.jpg,stim/3.jpg,stim/4.jpg,stim/latef.jpg,AB,1,2,,,,,0,8,8,1,,,,,,,,,,,,,,2,1,0.866305691289,,,,,,2016_Mai_03_0902,P16,PLC_L_D2S1,NHGY,60.0249087022,
stim/negf.jpg,stim/posf.jpg,stim/4.jpg,stim/3.jpg,stim/latef.jpg,AB,2,4,,,,,0,9,9,19,,,,,,,,,,,,,,4,1,0.899699780829,,,,,,2016_Mai_03_0902,P16,PLC_L_D2S1,NHGY,60.0249087022,
stim/posf.jpg,stim/negf.jpg,stim/5.jpg,stim/6.jpg,stim/latef.jpg,EF,2,4,,,,,0,10,10,55,,,,,,,,,,,,,,4,1,0.849720076841,,,,,,2016_Mai_03_0902,P16,PLC_L_D2S1,NHGY,60.0249087022,
stim/posf.jpg,stim/negf.jpg,stim/6.jpg,stim/5.jpg,stim/latef.jpg,EF,1,2,,,,,0,11,11,45,,,,,,,,,,,,,,2,1,1.06632207005,,,,,,2016_Mai_03_0902,P16,PLC_L_D2S1,NHGY,60.0249087022,
stim/negf.jpg,stim/posf.jpg,stim/3.jpg,stim/4.jpg,stim/latef.jpg,AB,1,2,,,,,0,12,12,8,,,,,,,,,,,,,,2,1,0.633120868562,,,,,,2016_Mai_03_0902,P16,PLC_L_D2S1,NHGY,60.0249087022,
stim/posf.jpg,stim/negf.jpg,stim/4.jpg,stim/3.jpg,stim/latef.jpg,AB,2,4,,,,,0,13,13,14,,,,,,,,,,,,,,4,1,0.683092100465,,,,,,2016_Mai_03_0902,P16,PLC_L_D2S1,NHGY,60.0249087022,
stim/posf.jpg,stim/negf.jpg,stim/2.jpg,stim/1.jpg,stim/latef.jpg,CD,2,4,,,,,0,14,14,35,,,,,,,,,,,,,,4,1,1.18299532261,,,,,,2016_Mai_03_0902,P16,PLC_L_D2S1,NHGY,60.0249087022,
stim/posf.jpg,stim/negf.jpg,stim/6.jpg,stim/5.jpg,stim/latef.jpg,EF,1,2,,,,,0,15,15,44,,,,,,,,,,,,,,2,1,0.599789214407,,,,,,2016_Mai_03_0902,P16,PLC_L_D2S1,NHGY,60.0249087022,
stim/negf.jpg,stim/posf.jpg,stim/2.jpg,stim/1.jpg,stim/latef.jpg,CD,2,4,,,,,0,16,16,38,,,,,,,,,,,,,,4,1,0.733086339628,,,,,,2016_Mai_03_0902,P16,PLC_L_D2S1,NHGY,60.0249087022,
stim/negf.jpg,stim/posf.jpg,stim/6.jpg,stim/5.jpg,stim/latef.jpg,EF,1,2,,,,,0,17,17,49,,,,,,,,,,,,,,2,1,0.666446152863,,,,,,2016_Mai_03_0902,P16,PLC_L_D2S1,NHGY,60.0249087022,
stim/posf.jpg,stim/negf.jpg,stim/1.jpg,stim/2.jpg,stim/latef.jpg,CD,1,2,,,,,0,18,18,22,,,,,,,,,,,,,,2,1,0.716429703424,,,,,,2016_Mai_03_0902,P16,PLC_L_D2S1,NHGY,60.0249087022,
stim/posf.jpg,stim/negf.jpg,stim/1.jpg,stim/2.jpg,stim/latef.jpg,CD,1,2,,,,,0,19,19,23,,,,,,,,,,,,,,2,1,0.616443883716,,,,,,2016_Mai_03_0902,P16,PLC_L_D2S1,NHGY,60.0249087022,
stim/posf.jpg,stim/negf.jpg,stim/5.jpg,stim/6.jpg,stim/latef.jpg,EF,2,4,,,,,0,20,20,54,,,,,,,,,,,,,,4,1,1.0163498547,,,,,,2016_Mai_03_0902,P16,PLC_L_D2S1,NHGY,60.0249087022,
stim/posf.jpg,stim/negf.jpg,stim/4.jpg,stim/3.jpg,stim/latef.jpg,AB,2,4,,,,,0,21,21,16,,,,,,,,,,,,,,4,1,0.84972173998,,,,,,2016_Mai_03_0902,P16,PLC_L_D2S1,NHGY,60.0249087022,
stim/posf.jpg,stim/negf.jpg,stim/6.jpg,stim/5.jpg,stim/latef.jpg,EF,1,2,,,,,0,22,22,42,,,,,,,,,,,,,,2,1,0.716425727529,,,,,,2016_Mai_03_0902,P16,PLC_L_D2S1,NHGY,60.0249087022,
stim/posf.jpg,stim/negf.jpg,stim/1.jpg,stim/2.jpg,stim/latef.jpg,CD,1,2,,,,,0,23,23,24,,,,,,,,,,,,,,4,0,0.899709161175,,,,,,2016_Mai_03_0902,P16,PLC_L_D2S1,NHGY,60.0249087022,
stim/posf.jpg,stim/negf.jpg,stim/2.jpg,stim/1.jpg,stim/latef.jpg,CD,2,4,,,,,0,24,24,36,,,,,,,,,,,,,,4,1,0.783050967094,,,,,,2016_Mai_03_0902,P16,PLC_L_D2S1,NHGY,60.0249087022,
stim/negf.jpg,stim/posf.jpg,stim/5.jpg,stim/6.jpg,stim/latef.jpg,EF,2,4,,,,,0,25,25,56,,,,,,,,,,,,,,4,1,0.799723185077,,,,,,2016_Mai_03_0902,P16,PLC_L_D2S1,NHGY,60.0249087022,
stim/posf.jpg,stim/negf.jpg,stim/5.jpg,stim/6.jpg,stim/latef.jpg,EF,2,4,,,,,0,26,26,51,,,,,,,,,,,,,,4,1,0.833027392924,,,,,,2016_Mai_03_0902,P16,PLC_L_D2S1,NHGY,60.0249087022,
stim/negf.jpg,stim/posf.jpg,stim/6.jpg,stim/5.jpg,stim/latef.jpg,EF,1,2,,,,,0,27,27,46,,,,,,,,,,,,,,2,1,0.849694221494,,,,,,2016_Mai_03_0902,P16,PLC_L_D2S1,NHGY,60.0249087022,
stim/posf.jpg,stim/negf.jpg,stim/2.jpg,stim/1.jpg,stim/latef.jpg,CD,2,4,,,,,0,28,28,30,,,,,,,,,,,,,,2,0,0.916400001504,,,,,,2016_Mai_03_0902,P16,PLC_L_D2S1,NHGY,60.0249087022,
stim/posf.jpg,stim/negf.jpg,stim/4.jpg,stim/3.jpg,stim/latef.jpg,AB,2,4,,,,,0,29,29,17,,,,,,,,,,,,,,4,1,0.899764959042,,,,,,2016_Mai_03_0902,P16,PLC_L_D2S1,NHGY,60.0249087022,
stim/posf.jpg,stim/negf.jpg,stim/1.jpg,stim/2.jpg,stim/latef.jpg,CD,1,2,,,,,0,30,30,20,,,,,,,,,,,,,,2,1,0.949688062165,,,,,,2016_Mai_03_0902,P16,PLC_L_D2S1,NHGY,60.0249087022,
stim/negf.jpg,stim/posf.jpg,stim/6.jpg,stim/5.jpg,stim/latef.jpg,EF,1,2,,,,,0,31,31,47,,,,,,,,,,,,,,2,1,0.849755156145,,,,,,2016_Mai_03_0902,P16,PLC_L_D2S1,NHGY,60.0249087022,
stim/posf.jpg,stim/negf.jpg,stim/6.jpg,stim/5.jpg,stim/latef.jpg,EF,1,2,,,,,0,32,32,40,,,,,,,,,,,,,,2,1,0.833041320587,,,,,,2016_Mai_03_0902,P16,PLC_L_D2S1,NHGY,60.0249087022,
stim/negf.jpg,stim/posf.jpg,stim/4.jpg,stim/3.jpg,stim/latef.jpg,AB,2,4,,,,,0,33,33,18,,,,,,,,,,,,,,4,1,0.849699923685,,,,,,2016_Mai_03_0902,P16,PLC_L_D2S1,NHGY,60.0249087022,
stim/posf.jpg,stim/negf.jpg,stim/5.jpg,stim/6.jpg,stim/latef.jpg,EF,2,4,,,,,0,34,34,50,,,,,,,,,,,,,,4,1,1.06632928501,,,,,,2016_Mai_03_0902,P16,PLC_L_D2S1,NHGY,60.0249087022,
stim/posf.jpg,stim/negf.jpg,stim/2.jpg,stim/1.jpg,stim/latef.jpg,CD,2,4,,,,,0,35,35,33,,,,,,,,,,,,,,4,1,0.933011402127,,,,,,2016_Mai_03_0902,P16,PLC_L_D2S1,NHGY,60.0249087022,
stim/negf.jpg,stim/posf.jpg,stim/2.jpg,stim/1.jpg,stim/latef.jpg,CD,2,4,,,,,0,36,36,37,,,,,,,,,,,,,,4,1,0.683115059604,,,,,,2016_Mai_03_0902,P16,PLC_L_D2S1,NHGY,60.0249087022,
stim/posf.jpg,stim/negf.jpg,stim/6.jpg,stim/5.jpg,stim/latef.jpg,EF,1,2,,,,,0,37,37,43,,,,,,,,,,,,,,2,1,1.28292222268,,,,,,2016_Mai_03_0902,P16,PLC_L_D2S1,NHGY,60.0249087022,
stim/negf.jpg,stim/posf.jpg,stim/3.jpg,stim/4.jpg,stim/latef.jpg,AB,1,2,,,,,0,38,38,9,,,,,,,,,,,,,,2,1,0.799710394244,,,,,,2016_Mai_03_0902,P16,PLC_L_D2S1,NHGY,60.0249087022,
stim/negf.jpg,stim/posf.jpg,stim/5.jpg,stim/6.jpg,stim/latef.jpg,EF,2,4,,,,,0,39,39,58,,,,,,,,,,,,,,4,1,0.666442519821,,,,,,2016_Mai_03_0902,P16,PLC_L_D2S1,NHGY,60.0249087022,
stim/posf.jpg,stim/negf.jpg,stim/3.jpg,stim/4.jpg,stim/latef.jpg,AB,1,2,,,,,0,40,40,6,,,,,,,,,,,,,,2,1,0.716429622222,,,,,,2016_Mai_03_0902,P16,PLC_L_D2S1,NHGY,60.0249087022,
stim/negf.jpg,stim/posf.jpg,stim/1.jpg,stim/2.jpg,stim/latef.jpg,CD,1,2,,,,,0,41,41,28,,,,,,,,,,,,,,2,1,0.966307243151,,,,,,2016_Mai_03_0902,P16,PLC_L_D2S1,NHGY,60.0249087022,
stim/posf.jpg,stim/negf.jpg,stim/4.jpg,stim/3.jpg,stim/latef.jpg,AB,2,4,,,,,0,42,42,13,,,,,,,,,,,,,,4,1,0.749747426909,,,,,,2016_Mai_03_0902,P16,PLC_L_D2S1,NHGY,60.0249087022,
stim/posf.jpg,stim/negf.jpg,stim/3.jpg,stim/4.jpg,stim/latef.jpg,AB,1,2,,,,,0,43,43,4,,,,,,,,,,,,,,2,1,0.69976626429,,,,,,2016_Mai_03_0902,P16,PLC_L_D2S1,NHGY,60.0249087022,
stim/posf.jpg,stim/negf.jpg,stim/3.jpg,stim/4.jpg,stim/latef.jpg,AB,1,2,,,,,0,44,44,7,,,,,,,,,,,,,,2,1,0.483162340275,,,,,,2016_Mai_03_0902,P16,PLC_L_D2S1,NHGY,60.0249087022,
stim/posf.jpg,stim/negf.jpg,stim/3.jpg,stim/4.jpg,stim/latef.jpg,AB,1,2,,,,,0,45,45,2,,,,,,,,,,,,,,2,1,0.483178204757,,,,,,2016_Mai_03_0902,P16,PLC_L_D2S1,NHGY,60.0249087022,
stim/posf.jpg,stim/negf.jpg,stim/4.jpg,stim/3.jpg,stim/latef.jpg,AB,2,4,,,,,0,46,46,10,,,,,,,,,,,,,,4,1,0.53313020981,,,,,,2016_Mai_03_0902,P16,PLC_L_D2S1,NHGY,60.0249087022,
stim/posf.jpg,stim/negf.jpg,stim/2.jpg,stim/1.jpg,stim/latef.jpg,CD,2,4,,,,,0,47,47,31,,,,,,,,,,,,,,4,1,1.04966315117,,,,,,2016_Mai_03_0902,P16,PLC_L_D2S1,NHGY,60.0249087022,
stim/posf.jpg,stim/negf.jpg,stim/3.jpg,stim/4.jpg,stim/latef.jpg,AB,1,2,,,,,0,48,48,5,,,,,,,,,,,,,,2,1,0.649754311041,,,,,,2016_Mai_03_0902,P16,PLC_L_D2S1,NHGY,60.0249087022,
stim/negf.jpg,stim/posf.jpg,stim/2.jpg,stim/1.jpg,stim/latef.jpg,CD,2,4,,,,,0,49,49,39,,,,,,,,,,,,,,4,1,0.649797465442,,,,,,2016_Mai_03_0902,P16,PLC_L_D2S1,NHGY,60.0249087022,
stim/posf.jpg,stim/negf.jpg,stim/1.jpg,stim/2.jpg,stim/latef.jpg,CD,1,2,,,,,0,50,50,21,,,,,,,,,,,,,,2,1,0.866380655857,,,,,,2016_Mai_03_0902,P16,PLC_L_D2S1,NHGY,60.0249087022,
stim/negf.jpg,stim/posf.jpg,stim/5.jpg,stim/6.jpg,stim/latef.jpg,EF,2,4,,,,,0,51,51,59,,,,,,,,,,,,,,4,1,0.766413217896,,,,,,2016_Mai_03_0902,P16,PLC_L_D2S1,NHGY,60.0249087022,
stim/negf.jpg,stim/posf.jpg,stim/5.jpg,stim/6.jpg,stim/latef.jpg,EF,2,4,,,,,0,52,52,57,,,,,,,,,,,,,,4,1,0.716431793626,,,,,,2016_Mai_03_0902,P16,PLC_L_D2S1,NHGY,60.0249087022,
stim/posf.jpg,stim/negf.jpg,stim/5.jpg,stim/6.jpg,stim/latef.jpg,EF,2,4,,,,,0,53,53,53,,,,,,,,,,,,,,4,1,0.749724173036,,,,,,2016_Mai_03_0902,P16,PLC_L_D2S1,NHGY,60.0249087022,
stim/posf.jpg,stim/negf.jpg,stim/6.jpg,stim/5.jpg,stim/latef.jpg,EF,1,2,,,,,0,54,54,41,,,,,,,,,,,,,,2,1,0.499809839739,,,,,,2016_Mai_03_0902,P16,PLC_L_D2S1,NHGY,60.0249087022,
stim/posf.jpg,stim/negf.jpg,stim/4.jpg,stim/3.jpg,stim/latef.jpg,AB,2,4,,,,,0,55,55,15,,,,,,,,,,,,,,4,1,0.79964197697,,,,,,2016_Mai_03_0902,P16,PLC_L_D2S1,NHGY,60.0249087022,
stim/posf.jpg,stim/negf.jpg,stim/4.jpg,stim/3.jpg,stim/latef.jpg,AB,2,4,,,,,0,56,56,11,,,,,,,,,,,,,,4,1,0.549830469581,,,,,,2016_Mai_03_0902,P16,PLC_L_D2S1,NHGY,60.0249087022,
stim/posf.jpg,stim/negf.jpg,stim/2.jpg,stim/1.jpg,stim/latef.jpg,CD,2,4,,,,,0,57,57,34,,,,,,,,,,,,,,4,1,0.899702965756,,,,,,2016_Mai_03_0902,P16,PLC_L_D2S1,NHGY,60.0249087022,
stim/posf.jpg,stim/negf.jpg,stim/3.jpg,stim/4.jpg,stim/latef.jpg,AB,1,2,,,,,0,58,58,0,,,,,,,,,,,,,,2,1,0.599790384319,,,,,,2016_Mai_03_0902,P16,PLC_L_D2S1,NHGY,60.0249087022,
stim/negf.jpg,stim/posf.jpg,stim/1.jpg,stim/2.jpg,stim/latef.jpg,CD,1,2,,,,,0,59,59,29,,,,,,,,,,,,,,2,1,0.866387233227,,,,,,2016_Mai_03_0902,P16,PLC_L_D2S1,NHGY,60.0249087022,
,,,,,,,,,,,,,,,,,,,,,,,,,,,,,,,,0.9984375,0.376953125,0,0,1,2016_Mai_03_0902,P16,PLC_L_D2S1,NHGY,60.0249087022,
stim/posf.jpg,stim/negf.jpg,stim/1.jpg,stim/2.jpg,stim/latef.jpg,CD,1,2,,,,,,,,,0,0,0,21,,,,,,,,,,2,1,1.06628066902,,,,,,2016_Mai_03_0902,P16,PLC_L_D2S1,NHGY,60.0249087022,
stim/posf.jpg,stim/negf.jpg,stim/1.jpg,stim/2.jpg,stim/latef.jpg,CD,1,2,,,,,,,,,0,1,1,26,,,,,,,,,,2,1,0.766392201592,,,,,,2016_Mai_03_0902,P16,PLC_L_D2S1,NHGY,60.0249087022,
stim/posf.jpg,stim/negf.jpg,stim/4.jpg,stim/3.jpg,stim/latef.jpg,AB,2,4,,,,,,,,,0,2,2,16,,,,,,,,,,4,1,1.16632435875,,,,,,2016_Mai_03_0902,P16,PLC_L_D2S1,NHGY,60.0249087022,
stim/posf.jpg,stim/negf.jpg,stim/3.jpg,stim/4.jpg,stim/latef.jpg,AB,1,2,,,,,,,,,0,3,3,0,,,,,,,,,,2,1,0.666453647515,,,,,,2016_Mai_03_0902,P16,PLC_L_D2S1,NHGY,60.0249087022,
stim/posf.jpg,stim/negf.jpg,stim/4.jpg,stim/3.jpg,stim/latef.jpg,AB,2,4,,,,,,,,,0,4,4,17,,,,,,,,,,4,1,0.53311226114,,,,,,2016_Mai_03_0902,P16,PLC_L_D2S1,NHGY,60.0249087022,
stim/negf.jpg,stim/posf.jpg,stim/6.jpg,stim/5.jpg,stim/latef.jpg,EF,1,2,,,,,,,,,0,5,5,49,,,,,,,,,,2,1,0.683090723037,,,,,,2016_Mai_03_0902,P16,PLC_L_D2S1,NHGY,60.0249087022,
stim/posf.jpg,stim/negf.jpg,stim/4.jpg,stim/3.jpg,stim/latef.jpg,AB,2,4,,,,,,,,,0,6,6,13,,,,,,,,,,4,1,0.416500373304,,,,,,2016_Mai_03_0902,P16,PLC_L_D2S1,NHGY,60.0249087022,
stim/posf.jpg,stim/negf.jpg,stim/6.jpg,stim/5.jpg,stim/latef.jpg,EF,1,2,,,,,,,,,0,7,7,43,,,,,,,,,,2,1,0.73309034259,,,,,,2016_Mai_03_0902,P16,PLC_L_D2S1,NHGY,60.0249087022,
stim/posf.jpg,stim/negf.jpg,stim/3.jpg,stim/4.jpg,stim/latef.jpg,AB,1,2,,,,,,,,,0,8,8,7,,,,,,,,,,2,1,0.599814814118,,,,,,2016_Mai_03_0902,P16,PLC_L_D2S1,NHGY,60.0249087022,
stim/posf.jpg,stim/negf.jpg,stim/5.jpg,stim/6.jpg,stim/latef.jpg,EF,2,4,,,,,,,,,0,9,9,54,,,,,,,,,,4,1,0.89966042789,,,,,,2016_Mai_03_0902,P16,PLC_L_D2S1,NHGY,60.0249087022,
stim/negf.jpg,stim/posf.jpg,stim/2.jpg,stim/1.jpg,stim/latef.jpg,CD,2,4,,,,,,,,,0,10,10,39,,,,,,,,,,4,1,1.13295148701,,,,,,2016_Mai_03_0902,P16,PLC_L_D2S1,NHGY,60.0249087022,
stim/negf.jpg,stim/posf.jpg,stim/5.jpg,stim/6.jpg,stim/latef.jpg,EF,2,4,,,,,,,,,0,11,11,56,,,,,,,,,,4,1,0.949675728469,,,,,,2016_Mai_03_0902,P16,PLC_L_D2S1,NHGY,60.0249087022,
stim/negf.jpg,stim/posf.jpg,stim/2.jpg,stim/1.jpg,stim/latef.jpg,CD,2,4,,,,,,,,,0,12,12,38,,,,,,,,,,4,1,0.916363222972,,,,,,2016_Mai_03_0902,P16,PLC_L_D2S1,NHGY,60.0249087022,
stim/posf.jpg,stim/negf.jpg,stim/2.jpg,stim/1.jpg,stim/latef.jpg,CD,2,4,,,,,,,,,0,13,13,30,,,,,,,,,,4,1,0.699756754623,,,,,,2016_Mai_03_0902,P16,PLC_L_D2S1,NHGY,60.0249087022,
stim/posf.jpg,stim/negf.jpg,stim/4.jpg,stim/3.jpg,stim/latef.jpg,AB,2,4,,,,,,,,,0,14,14,11,,,,,,,,,,4,1,0.88302393582,,,,,,2016_Mai_03_0902,P16,PLC_L_D2S1,NHGY,60.0249087022,
stim/posf.jpg,stim/negf.jpg,stim/4.jpg,stim/3.jpg,stim/latef.jpg,AB,2,4,,,,,,,,,0,15,15,15,,,,,,,,,,4,1,0.866421025327,,,,,,2016_Mai_03_0902,P16,PLC_L_D2S1,NHGY,60.0249087022,
stim/posf.jpg,stim/negf.jpg,stim/6.jpg,stim/5.jpg,stim/latef.jpg,EF,1,2,,,,,,,,,0,16,16,41,,,,,,,,,,2,1,1.04965549712,,,,,,2016_Mai_03_0902,P16,PLC_L_D2S1,NHGY,60.0249087022,
stim/posf.jpg,stim/negf.jpg,stim/5.jpg,stim/6.jpg,stim/latef.jpg,EF,2,4,,,,,,,,,0,17,17,51,,,,,,,,,,4,1,0.749754524573,,,,,,2016_Mai_03_0902,P16,PLC_L_D2S1,NHGY,60.0249087022,
stim/negf.jpg,stim/posf.jpg,stim/3.jpg,stim/4.jpg,stim/latef.jpg,AB,1,2,,,,,,,,,0,18,18,8,,,,,,,,,,2,1,0.633124300102,,,,,,2016_Mai_03_0902,P16,PLC_L_D2S1,NHGY,60.0249087022,
stim/posf.jpg,stim/negf.jpg,stim/2.jpg,stim/1.jpg,stim/latef.jpg,CD,2,4,,,,,,,,,0,19,19,35,,,,,,,,,,4,1,0.766399906768,,,,,,2016_Mai_03_0902,P16,PLC_L_D2S1,NHGY,60.0249087022,
stim/negf.jpg,stim/posf.jpg,stim/6.jpg,stim/5.jpg,stim/latef.jpg,EF,1,2,,,,,,,,,0,20,20,48,,,,,,,,,,2,1,0.58314432544,,,,,,2016_Mai_03_0902,P16,PLC_L_D2S1,NHGY,60.0249087022,
stim/posf.jpg,stim/negf.jpg,stim/2.jpg,stim/1.jpg,stim/latef.jpg,CD,2,4,,,,,,,,,0,21,21,31,,,,,,,,,,4,1,0.733082345688,,,,,,2016_Mai_03_0902,P16,PLC_L_D2S1,NHGY,60.0249087022,
stim/posf.jpg,stim/negf.jpg,stim/4.jpg,stim/3.jpg,stim/latef.jpg,AB,2,4,,,,,,,,,0,22,22,10,,,,,,,,,,4,1,0.899695591403,,,,,,2016_Mai_03_0902,P16,PLC_L_D2S1,NHGY,60.0249087022,
stim/negf.jpg,stim/posf.jpg,stim/5.jpg,stim/6.jpg,stim/latef.jpg,EF,2,4,,,,,,,,,0,23,23,57,,,,,,,,,,4,1,0.66644671827,,,,,,2016_Mai_03_0902,P16,PLC_L_D2S1,NHGY,60.0249087022,
stim/negf.jpg,stim/posf.jpg,stim/6.jpg,stim/5.jpg,stim/latef.jpg,EF,1,2,,,,,,,,,0,24,24,46,,,,,,,,,,2,1,0.666427927504,,,,,,2016_Mai_03_0902,P16,PLC_L_D2S1,NHGY,60.0249087022,
stim/posf.jpg,stim/negf.jpg,stim/3.jpg,stim/4.jpg,stim/latef.jpg,AB,1,2,,,,,,,,,0,25,25,4,,,,,,,,,,2,1,0.883088190734,,,,,,2016_Mai_03_0902,P16,PLC_L_D2S1,NHGY,60.0249087022,
stim/posf.jpg,stim/negf.jpg,stim/6.jpg,stim/5.jpg,stim/latef.jpg,EF,1,2,,,,,,,,,0,26,26,44,,,,,,,,,,2,1,0.866376171697,,,,,,2016_Mai_03_0902,P16,PLC_L_D2S1,NHGY,60.0249087022,
stim/negf.jpg,stim/posf.jpg,stim/6.jpg,stim/5.jpg,stim/latef.jpg,EF,1,2,,,,,,,,,0,27,27,47,,,,,,,,,,2,1,0.616466316545,,,,,,2016_Mai_03_0902,P16,PLC_L_D2S1,NHGY,60.0249087022,
stim/posf.jpg,stim/negf.jpg,stim/3.jpg,stim/4.jpg,stim/latef.jpg,AB,1,2,,,,,,,,,0,28,28,3,,,,,,,,,,2,1,1.03298993771,,,,,,2016_Mai_03_0902,P16,PLC_L_D2S1,NHGY,60.0249087022,
stim/posf.jpg,stim/negf.jpg,stim/5.jpg,stim/6.jpg,stim/latef.jpg,EF,2,4,,,,,,,,,0,29,29,55,,,,,,,,,,4,1,0.74974425702,,,,,,2016_Mai_03_0902,P16,PLC_L_D2S1,NHGY,60.0249087022,
stim/posf.jpg,stim/negf.jpg,stim/5.jpg,stim/6.jpg,stim/latef.jpg,EF,2,4,,,,,,,,,0,30,30,53,,,,,,,,,,4,1,0.849754163675,,,,,,2016_Mai_03_0902,P16,PLC_L_D2S1,NHGY,60.0249087022,
stim/posf.jpg,stim/negf.jpg,stim/3.jpg,stim/4.jpg,stim/latef.jpg,AB,1,2,,,,,,,,,0,31,31,6,,,,,,,,,,2,1,0.649807754048,,,,,,2016_Mai_03_0902,P16,PLC_L_D2S1,NHGY,60.0249087022,
stim/posf.jpg,stim/negf.jpg,stim/3.jpg,stim/4.jpg,stim/latef.jpg,AB,1,2,,,,,,,,,0,32,32,5,,,,,,,,,,2,1,0.733116234027,,,,,,2016_Mai_03_0902,P16,PLC_L_D2S1,NHGY,60.0249087022,
stim/posf.jpg,stim/negf.jpg,stim/5.jpg,stim/6.jpg,stim/latef.jpg,EF,2,4,,,,,,,,,0,33,33,50,,,,,,,,,,4,1,0.883041231866,,,,,,2016_Mai_03_0902,P16,PLC_L_D2S1,NHGY,60.0249087022,
stim/negf.jpg,stim/posf.jpg,stim/1.jpg,stim/2.jpg,stim/latef.jpg,CD,1,2,,,,,,,,,0,34,34,27,,,,,,,,,,2,1,0.84970346951,,,,,,2016_Mai_03_0902,P16,PLC_L_D2S1,NHGY,60.0249087022,
stim/posf.jpg,stim/negf.jpg,stim/2.jpg,stim/1.jpg,stim/latef.jpg,CD,2,4,,,,,,,,,0,35,35,34,,,,,,,,,,4,1,0.583122740721,,,,,,2016_Mai_03_0902,P16,PLC_L_D2S1,NHGY,60.0249087022,
stim/posf.jpg,stim/negf.jpg,stim/6.jpg,stim/5.jpg,stim/latef.jpg,EF,1,2,,,,,,,,,0,36,36,42,,,,,,,,,,2,1,0.766418887005,,,,,,2016_Mai_03_0902,P16,PLC_L_D2S1,NHGY,60.0249087022,
stim/posf.jpg,stim/negf.jpg,stim/2.jpg,stim/1.jpg,stim/latef.jpg,CD,2,4,,,,,,,,,0,37,37,33,,,,,,,,,,4,1,0.666458330169,,,,,,2016_Mai_03_0902,P16,PLC_L_D2S1,NHGY,60.0249087022,
stim/negf.jpg,stim/posf.jpg,stim/1.jpg,stim/2.jpg,stim/latef.jpg,CD,1,2,,,,,,,,,0,38,38,28,,,,,,,,,,2,1,0.716431775581,,,,,,2016_Mai_03_0902,P16,PLC_L_D2S1,NHGY,60.0249087022,
stim/posf.jpg,stim/negf.jpg,stim/4.jpg,stim/3.jpg,stim/latef.jpg,AB,2,4,,,,,,,,,0,39,39,12,,,,,,,,,,4,1,0.766380803224,,,,,,2016_Mai_03_0902,P16,PLC_L_D2S1,NHGY,60.0249087022,
stim/posf.jpg,stim/negf.jpg,stim/2.jpg,stim/1.jpg,stim/latef.jpg,CD,2,4,,,,,,,,,0,40,40,36,,,,,,,,,,4,1,0.89969615681,,,,,,2016_Mai_03_0902,P16,PLC_L_D2S1,NHGY,60.0249087022,
stim/posf.jpg,stim/negf.jpg,stim/5.jpg,stim/6.jpg,stim/latef.jpg,EF,2,4,,,,,,,,,0,41,41,52,,,,,,,,,,4,1,0.86636911313,,,,,,2016_Mai_03_0902,P16,PLC_L_D2S1,NHGY,60.0249087022,
stim/posf.jpg,stim/negf.jpg,stim/2.jpg,stim/1.jpg,stim/latef.jpg,CD,2,4,,,,,,,,,0,42,42,32,,,,,,,,,,4,1,0.583125712116,,,,,,2016_Mai_03_0902,P16,PLC_L_D2S1,NHGY,60.0249087022,
stim/posf.jpg,stim/negf.jpg,stim/6.jpg,stim/5.jpg,stim/latef.jpg,EF,1,2,,,,,,,,,0,43,43,40,,,,,,,,,,2,1,0.683110157404,,,,,,2016_Mai_03_0902,P16,PLC_L_D2S1,NHGY,60.0249087022,
stim/negf.jpg,stim/posf.jpg,stim/2.jpg,stim/1.jpg,stim/latef.jpg,CD,2,4,,,,,,,,,0,44,44,37,,,,,,,,,,4,1,0.699773647666,,,,,,2016_Mai_03_0902,P16,PLC_L_D2S1,NHGY,60.0249087022,
stim/posf.jpg,stim/negf.jpg,stim/3.jpg,stim/4.jpg,stim/latef.jpg,AB,1,2,,,,,,,,,0,45,45,2,,,,,,,,,,2,1,0.54982277042,,,,,,2016_Mai_03_0902,P16,PLC_L_D2S1,NHGY,60.0249087022,
stim/posf.jpg,stim/negf.jpg,stim/1.jpg,stim/2.jpg,stim/latef.jpg,CD,1,2,,,,,,,,,0,46,46,23,,,,,,,,,,2,1,0.833071512727,,,,,,2016_Mai_03_0902,P16,PLC_L_D2S1,NHGY,60.0249087022,
stim/negf.jpg,stim/posf.jpg,stim/4.jpg,stim/3.jpg,stim/latef.jpg,AB,2,4,,,,,,,,,0,47,47,19,,,,,,,,,,4,1,0.89968818096,,,,,,2016_Mai_03_0902,P16,PLC_L_D2S1,NHGY,60.0249087022,
stim/negf.jpg,stim/posf.jpg,stim/3.jpg,stim/4.jpg,stim/latef.jpg,AB,1,2,,,,,,,,,0,48,48,9,,,,,,,,,,2,1,1.03301159761,,,,,,2016_Mai_03_0902,P16,PLC_L_D2S1,NHGY,60.0249087022,
stim/posf.jpg,stim/negf.jpg,stim/3.jpg,stim/4.jpg,stim/latef.jpg,AB,1,2,,,,,,,,,0,49,49,1,,,,,,,,,,2,1,0.483156505754,,,,,,2016_Mai_03_0902,P16,PLC_L_D2S1,NHGY,60.0249087022,
stim/posf.jpg,stim/negf.jpg,stim/6.jpg,stim/5.jpg,stim/latef.jpg,EF,1,2,,,,,,,,,0,50,50,45,,,,,,,,,,2,1,0.783065478209,,,,,,2016_Mai_03_0902,P16,PLC_L_D2S1,NHGY,60.0249087022,
stim/negf.jpg,stim/posf.jpg,stim/5.jpg,stim/6.jpg,stim/latef.jpg,EF,2,4,,,,,,,,,0,51,51,58,,,,,,,,,,4,1,0.599854124954,,,,,,2016_Mai_03_0902,P16,PLC_L_D2S1,NHGY,60.0249087022,
stim/negf.jpg,stim/posf.jpg,stim/4.jpg,stim/3.jpg,stim/latef.jpg,AB,2,4,,,,,,,,,0,52,52,18,,,,,,,,,,4,1,0.633137102965,,,,,,2016_Mai_03_0902,P16,PLC_L_D2S1,NHGY,60.0249087022,
stim/posf.jpg,stim/negf.jpg,stim/4.jpg,stim/3.jpg,stim/latef.jpg,AB,2,4,,,,,,,,,0,53,53,14,,,,,,,,,,4,1,0.549824617015,,,,,,2016_Mai_03_0902,P16,PLC_L_D2S1,NHGY,60.0249087022,
stim/posf.jpg,stim/negf.jpg,stim/1.jpg,stim/2.jpg,stim/latef.jpg,CD,1,2,,,,,,,,,0,54,54,20,,,,,,,,,,2,1,0.833047503975,,,,,,2016_Mai_03_0902,P16,PLC_L_D2S1,NHGY,60.0249087022,
stim/posf.jpg,stim/negf.jpg,stim/1.jpg,stim/2.jpg,stim/latef.jpg,CD,1,2,,,,,,,,,0,55,55,25,,,,,,,,,,2,1,0.816371012357,,,,,,2016_Mai_03_0902,P16,PLC_L_D2S1,NHGY,60.0249087022,
stim/negf.jpg,stim/posf.jpg,stim/1.jpg,stim/2.jpg,stim/latef.jpg,CD,1,2,,,,,,,,,0,56,56,29,,,,,,,,,,2,1,0.516485600539,,,,,,2016_Mai_03_0902,P16,PLC_L_D2S1,NHGY,60.0249087022,
stim/posf.jpg,stim/negf.jpg,stim/1.jpg,stim/2.jpg,stim/latef.jpg,CD,1,2,,,,,,,,,0,57,57,22,,,,,,,,,,2,1,0.783058145961,,,,,,2016_Mai_03_0902,P16,PLC_L_D2S1,NHGY,60.0249087022,
stim/posf.jpg,stim/negf.jpg,stim/1.jpg,stim/2.jpg,stim/latef.jpg,CD,1,2,,,,,,,,,0,58,58,24,,,,,,,,,,2,1,0.599798011301,,,,,,2016_Mai_03_0902,P16,PLC_L_D2S1,NHGY,60.0249087022,
stim/negf.jpg,stim/posf.jpg,stim/5.jpg,stim/6.jpg,stim/latef.jpg,EF,2,4,,,,,,,,,0,59,59,59,,,,,,,,,,4,1,0.833109031101,,,,,,2016_Mai_03_0902,P16,PLC_L_D2S1,NHGY,60.0249087022,
,,,,,,,,,,,,,,,,,,,,,,,,,,,,,,,,0.9984375,0.376953125,1,0,0,2016_Mai_03_0902,P16,PLC_L_D2S1,NHGY,60.0249087022,
stim/posf.jpg,stim/negf.jpg,stim/3.jpg,stim/4.jpg,stim/latef.jpg,AB,1,2,,,,,,,,,,,,,0,0,0,4,,,,,,2,1,0.916369262001,,,,,,2016_Mai_03_0902,P16,PLC_L_D2S1,NHGY,60.0249087022,
stim/posf.jpg,stim/negf.jpg,stim/2.jpg,stim/1.jpg,stim/latef.jpg,CD,2,4,,,,,,,,,,,,,0,1,1,32,,,,,,None,0,,,,,,,2016_Mai_03_0902,P16,PLC_L_D2S1,NHGY,60.0249087022,
stim/negf.jpg,stim/posf.jpg,stim/1.jpg,stim/2.jpg,stim/latef.jpg,CD,1,2,,,,,,,,,,,,,0,2,2,28,,,,,,2,1,0.782996215832,,,,,,2016_Mai_03_0902,P16,PLC_L_D2S1,NHGY,60.0249087022,
stim/posf.jpg,stim/negf.jpg,stim/1.jpg,stim/2.jpg,stim/latef.jpg,CD,1,2,,,,,,,,,,,,,0,3,3,24,,,,,,2,1,0.599791593328,,,,,,2016_Mai_03_0902,P16,PLC_L_D2S1,NHGY,60.0249087022,
stim/posf.jpg,stim/negf.jpg,stim/1.jpg,stim/2.jpg,stim/latef.jpg,CD,1,2,,,,,,,,,,,,,0,4,4,21,,,,,,2,1,0.61647330594,,,,,,2016_Mai_03_0902,P16,PLC_L_D2S1,NHGY,60.0249087022,
stim/posf.jpg,stim/negf.jpg,stim/6.jpg,stim/5.jpg,stim/latef.jpg,EF,1,2,,,,,,,,,,,,,0,5,5,43,,,,,,2,1,0.783058449717,,,,,,2016_Mai_03_0902,P16,PLC_L_D2S1,NHGY,60.0249087022,
stim/posf.jpg,stim/negf.jpg,stim/2.jpg,stim/1.jpg,stim/latef.jpg,CD,2,4,,,,,,,,,,,,,0,6,6,31,,,,,,4,1,0.666454570813,,,,,,2016_Mai_03_0902,P16,PLC_L_D2S1,NHGY,60.0249087022,
stim/posf.jpg,stim/negf.jpg,stim/4.jpg,stim/3.jpg,stim/latef.jpg,AB,2,4,,,,,,,,,,,,,0,7,7,15,,,,,,4,1,0.799747846453,,,,,,2016_Mai_03_0902,P16,PLC_L_D2S1,NHGY,60.0249087022,
stim/posf.jpg,stim/negf.jpg,stim/2.jpg,stim/1.jpg,stim/latef.jpg,CD,2,4,,,,,,,,,,,,,0,8,8,35,,,,,,4,1,0.716406049556,,,,,,2016_Mai_03_0902,P16,PLC_L_D2S1,NHGY,60.0249087022,
stim/posf.jpg,stim/negf.jpg,stim/5.jpg,stim/6.jpg,stim/latef.jpg,EF,2,4,,,,,,,,,,,,,0,9,9,50,,,,,,4,1,0.649763002673,,,,,,2016_Mai_03_0902,P16,PLC_L_D2S1,NHGY,60.0249087022,
stim/posf.jpg,stim/negf.jpg,stim/3.jpg,stim/4.jpg,stim/latef.jpg,AB,1,2,,,,,,,,,,,,,0,10,10,1,,,,,,2,1,0.499819292264,,,,,,2016_Mai_03_0902,P16,PLC_L_D2S1,NHGY,60.0249087022,
stim/posf.jpg,stim/negf.jpg,stim/1.jpg,stim/2.jpg,stim/latef.jpg,CD,1,2,,,,,,,,,,,,,0,11,11,23,,,,,,2,1,0.799726703834,,,,,,2016_Mai_03_0902,P16,PLC_L_D2S1,NHGY,60.0249087022,
stim/posf.jpg,stim/negf.jpg,stim/3.jpg,stim/4.jpg,stim/latef.jpg,AB,1,2,,,,,,,,,,,,,0,12,12,5,,,,,,2,1,0.449859374518,,,,,,2016_Mai_03_0902,P16,PLC_L_D2S1,NHGY,60.0249087022,
stim/posf.jpg,stim/negf.jpg,stim/4.jpg,stim/3.jpg,stim/latef.jpg,AB,2,4,,,,,,,,,,,,,0,13,13,16,,,,,,4,1,0.783053252783,,,,,,2016_Mai_03_0902,P16,PLC_L_D2S1,NHGY,60.0249087022,
stim/posf.jpg,stim/negf.jpg,stim/5.jpg,stim/6.jpg,stim/latef.jpg,EF,2,4,,,,,,,,,,,,,0,14,14,55,,,,,,4,1,0.866377582208,,,,,,2016_Mai_03_0902,P16,PLC_L_D2S1,NHGY,60.0249087022,
stim/posf.jpg,stim/negf.jpg,stim/5.jpg,stim/6.jpg,stim/latef.jpg,EF,2,4,,,,,,,,,,,,,0,15,15,53,,,,,,4,1,0.916365195881,,,,,,2016_Mai_03_0902,P16,PLC_L_D2S1,NHGY,60.0249087022,
stim/negf.jpg,stim/posf.jpg,stim/6.jpg,stim/5.jpg,stim/latef.jpg,EF,1,2,,,,,,,,,,,,,0,16,16,49,,,,,,2,1,0.932989661019,,,,,,2016_Mai_03_0902,P16,PLC_L_D2S1,NHGY,60.0249087022,
stim/negf.jpg,stim/posf.jpg,stim/6.jpg,stim/5.jpg,stim/latef.jpg,EF,1,2,,,,,,,,,,,,,0,17,17,47,,,,,,2,1,0.5164809239,,,,,,2016_Mai_03_0902,P16,PLC_L_D2S1,NHGY,60.0249087022,
stim/posf.jpg,stim/negf.jpg,stim/6.jpg,stim/5.jpg,stim/latef.jpg,EF,1,2,,,,,,,,,,,,,0,18,18,45,,,,,,2,1,0.483195497795,,,,,,2016_Mai_03_0902,P16,PLC_L_D2S1,NHGY,60.0249087022,
stim/posf.jpg,stim/negf.jpg,stim/2.jpg,stim/1.jpg,stim/latef.jpg,CD,2,4,,,,,,,,,,,,,0,19,19,30,,,,,,4,1,0.849710684466,,,,,,2016_Mai_03_0902,P16,PLC_L_D2S1,NHGY,60.0249087022,
stim/posf.jpg,stim/negf.jpg,stim/6.jpg,stim/5.jpg,stim/latef.jpg,EF,1,2,,,,,,,,,,,,,0,20,20,44,,,,,,2,1,1.01631066116,,,,,,2016_Mai_03_0902,P16,PLC_L_D2S1,NHGY,60.0249087022,
stim/posf.jpg,stim/negf.jpg,stim/4.jpg,stim/3.jpg,stim/latef.jpg,AB,2,4,,,,,,,,,,,,,0,21,21,17,,,,,,4,1,1.01630288681,,,,,,2016_Mai_03_0902,P16,PLC_L_D2S1,NHGY,60.0249087022,
stim/posf.jpg,stim/negf.jpg,stim/4.jpg,stim/3.jpg,stim/latef.jpg,AB,2,4,,,,,,,,,,,,,0,22,22,10,,,,,,4,1,1.01630823111,,,,,,2016_Mai_03_0902,P16,PLC_L_D2S1,NHGY,60.0249087022,
stim/posf.jpg,stim/negf.jpg,stim/3.jpg,stim/4.jpg,stim/latef.jpg,AB,1,2,,,,,,,,,,,,,0,23,23,3,,,,,,2,1,0.466440071728,,,,,,2016_Mai_03_0902,P16,PLC_L_D2S1,NHGY,60.0249087022,
stim/posf.jpg,stim/negf.jpg,stim/5.jpg,stim/6.jpg,stim/latef.jpg,EF,2,4,,,,,,,,,,,,,0,24,24,54,,,,,,4,1,0.916342200652,,,,,,2016_Mai_03_0902,P16,PLC_L_D2S1,NHGY,60.0249087022,
stim/posf.jpg,stim/negf.jpg,stim/4.jpg,stim/3.jpg,stim/latef.jpg,AB,2,4,,,,,,,,,,,,,0,25,25,11,,,,,,4,1,0.633105656703,,,,,,2016_Mai_03_0902,P16,PLC_L_D2S1,NHGY,60.0249087022,
stim/negf.jpg,stim/posf.jpg,stim/6.jpg,stim/5.jpg,stim/latef.jpg,EF,1,2,,,,,,,,,,,,,0,26,26,46,,,,,,2,1,1.13295428097,,,,,,2016_Mai_03_0902,P16,PLC_L_D2S1,NHGY,60.0249087022,
stim/posf.jpg,stim/negf.jpg,stim/1.jpg,stim/2.jpg,stim/latef.jpg,CD,1,2,,,,,,,,,,,,,0,27,27,26,,,,,,4,0,0.849728906817,,,,,,2016_Mai_03_0902,P16,PLC_L_D2S1,NHGY,60.0249087022,
stim/posf.jpg,stim/negf.jpg,stim/2.jpg,stim/1.jpg,stim/latef.jpg,CD,2,4,,,,,,,,,,,,,0,28,28,34,,,,,,4,1,0.749742981846,,,,,,2016_Mai_03_0902,P16,PLC_L_D2S1,NHGY,60.0249087022,
stim/posf.jpg,stim/negf.jpg,stim/6.jpg,stim/5.jpg,stim/latef.jpg,EF,1,2,,,,,,,,,,,,,0,29,29,40,,,,,,2,1,0.783086756164,,,,,,2016_Mai_03_0902,P16,PLC_L_D2S1,NHGY,60.0249087022,
stim/negf.jpg,stim/posf.jpg,stim/5.jpg,stim/6.jpg,stim/latef.jpg,EF,2,4,,,,,,,,,,,,,0,30,30,56,,,,,,4,1,0.816372895043,,,,,,2016_Mai_03_0902,P16,PLC_L_D2S1,NHGY,60.0249087022,
stim/posf.jpg,stim/negf.jpg,stim/5.jpg,stim/6.jpg,stim/latef.jpg,EF,2,4,,,,,,,,,,,,,0,31,31,51,,,,,,4,1,0.766402348846,,,,,,2016_Mai_03_0902,P16,PLC_L_D2S1,NHGY,60.0249087022,
stim/negf.jpg,stim/posf.jpg,stim/5.jpg,stim/6.jpg,stim/latef.jpg,EF,2,4,,,,,,,,,,,,,0,32,32,58,,,,,,4,1,0.616440289771,,,,,,2016_Mai_03_0902,P16,PLC_L_D2S1,NHGY,60.0249087022,
stim/negf.jpg,stim/posf.jpg,stim/2.jpg,stim/1.jpg,stim/latef.jpg,CD,2,4,,,,,,,,,,,,,0,33,33,37,,,,,,4,1,0.849701707124,,,,,,2016_Mai_03_0902,P16,PLC_L_D2S1,NHGY,60.0249087022,
stim/posf.jpg,stim/negf.jpg,stim/1.jpg,stim/2.jpg,stim/latef.jpg,CD,1,2,,,,,,,,,,,,,0,34,34,22,,,,,,2,1,0.599798221825,,,,,,2016_Mai_03_0902,P16,PLC_L_D2S1,NHGY,60.0249087022,
stim/posf.jpg,stim/negf.jpg,stim/6.jpg,stim/5.jpg,stim/latef.jpg,EF,1,2,,,,,,,,,,,,,0,35,35,41,,,,,,2,1,0.633122248997,,,,,,2016_Mai_03_0902,P16,PLC_L_D2S1,NHGY,60.0249087022,
stim/posf.jpg,stim/negf.jpg,stim/4.jpg,stim/3.jpg,stim/latef.jpg,AB,2,4,,,,,,,,,,,,,0,36,36,12,,,,,,4,1,0.999697410931,,,,,,2016_Mai_03_0902,P16,PLC_L_D2S1,NHGY,60.0249087022,
stim/negf.jpg,stim/posf.jpg,stim/2.jpg,stim/1.jpg,stim/latef.jpg,CD,2,4,,,,,,,,,,,,,0,37,37,38,,,,,,4,1,0.699764017699,,,,,,2016_Mai_03_0902,P16,PLC_L_D2S1,NHGY,60.0249087022,
stim/posf.jpg,stim/negf.jpg,stim/4.jpg,stim/3.jpg,stim/latef.jpg,AB,2,4,,,,,,,,,,,,,0,38,38,13,,,,,,4,1,1.03296882216,,,,,,2016_Mai_03_0902,P16,PLC_L_D2S1,NHGY,60.0249087022,
stim/negf.jpg,stim/posf.jpg,stim/1.jpg,stim/2.jpg,stim/latef.jpg,CD,1,2,,,,,,,,,,,,,0,39,39,27,,,,,,2,1,1.28289685455,,,,,,2016_Mai_03_0902,P16,PLC_L_D2S1,NHGY,60.0249087022,
stim/posf.jpg,stim/negf.jpg,stim/1.jpg,stim/2.jpg,stim/latef.jpg,CD,1,2,,,,,,,,,,,,,0,40,40,20,,,,,,2,1,0.54982516137,,,,,,2016_Mai_03_0902,P16,PLC_L_D2S1,NHGY,60.0249087022,
stim/negf.jpg,stim/posf.jpg,stim/3.jpg,stim/4.jpg,stim/latef.jpg,AB,1,2,,,,,,,,,,,,,0,41,41,9,,,,,,2,1,0.749765065807,,,,,,2016_Mai_03_0902,P16,PLC_L_D2S1,NHGY,60.0249087022,
stim/posf.jpg,stim/negf.jpg,stim/4.jpg,stim/3.jpg,stim/latef.jpg,AB,2,4,,,,,,,,,,,,,0,42,42,14,,,,,,4,1,0.94968205321,,,,,,2016_Mai_03_0902,P16,PLC_L_D2S1,NHGY,60.0249087022,
stim/negf.jpg,stim/posf.jpg,stim/5.jpg,stim/6.jpg,stim/latef.jpg,EF,2,4,,,,,,,,,,,,,0,43,43,57,,,,,,4,1,0.783067905249,,,,,,2016_Mai_03_0902,P16,PLC_L_D2S1,NHGY,60.0249087022,
stim/negf.jpg,stim/posf.jpg,stim/6.jpg,stim/5.jpg,stim/latef.jpg,EF,1,2,,,,,,,,,,,,,0,44,44,48,,,,,,2,1,0.616423462893,,,,,,2016_Mai_03_0902,P16,PLC_L_D2S1,NHGY,60.0249087022,
stim/posf.jpg,stim/negf.jpg,stim/3.jpg,stim/4.jpg,stim/latef.jpg,AB,1,2,,,,,,,,,,,,,0,45,45,0,,,,,,2,1,0.699762667338,,,,,,2016_Mai_03_0902,P16,PLC_L_D2S1,NHGY,60.0249087022,
stim/posf.jpg,stim/negf.jpg,stim/2.jpg,stim/1.jpg,stim/latef.jpg,CD,2,4,,,,,,,,,,,,,0,46,46,33,,,,,,4,1,1.19961858776,,,,,,2016_Mai_03_0902,P16,PLC_L_D2S1,NHGY,60.0249087022,
stim/posf.jpg,stim/negf.jpg,stim/5.jpg,stim/6.jpg,stim/latef.jpg,EF,2,4,,,,,,,,,,,,,0,47,47,52,,,,,,4,1,0.933028601933,,,,,,2016_Mai_03_0902,P16,PLC_L_D2S1,NHGY,60.0249087022,
stim/posf.jpg,stim/negf.jpg,stim/3.jpg,stim/4.jpg,stim/latef.jpg,AB,1,2,,,,,,,,,,,,,0,48,48,6,,,,,,2,1,0.799738842043,,,,,,2016_Mai_03_0902,P16,PLC_L_D2S1,NHGY,60.0249087022,
stim/negf.jpg,stim/posf.jpg,stim/4.jpg,stim/3.jpg,stim/latef.jpg,AB,2,4,,,,,,,,,,,,,0,49,49,18,,,,,,4,1,0.73306590076,,,,,,2016_Mai_03_0902,P16,PLC_L_D2S1,NHGY,60.0249087022,
stim/posf.jpg,stim/negf.jpg,stim/3.jpg,stim/4.jpg,stim/latef.jpg,AB,1,2,,,,,,,,,,,,,0,50,50,2,,,,,,2,1,0.549767727432,,,,,,2016_Mai_03_0902,P16,PLC_L_D2S1,NHGY,60.0249087022,
stim/posf.jpg,stim/negf.jpg,stim/2.jpg,stim/1.jpg,stim/latef.jpg,CD,2,4,,,,,,,,,,,,,0,51,51,36,,,,,,4,1,0.999679642711,,,,,,2016_Mai_03_0902,P16,PLC_L_D2S1,NHGY,60.0249087022,
stim/negf.jpg,stim/posf.jpg,stim/3.jpg,stim/4.jpg,stim/latef.jpg,AB,1,2,,,,,,,,,,,,,0,52,52,8,,,,,,2,1,0.499825731289,,,,,,2016_Mai_03_0902,P16,PLC_L_D2S1,NHGY,60.0249087022,
stim/negf.jpg,stim/posf.jpg,stim/1.jpg,stim/2.jpg,stim/latef.jpg,CD,1,2,,,,,,,,,,,,,0,53,53,29,,,,,,2,1,1.04965270617,,,,,,2016_Mai_03_0902,P16,PLC_L_D2S1,NHGY,60.0249087022,
stim/posf.jpg,stim/negf.jpg,stim/6.jpg,stim/5.jpg,stim/latef.jpg,EF,1,2,,,,,,,,,,,,,0,54,54,42,,,,,,2,1,0.616461901557,,,,,,2016_Mai_03_0902,P16,PLC_L_D2S1,NHGY,60.0249087022,
stim/negf.jpg,stim/posf.jpg,stim/5.jpg,stim/6.jpg,stim/latef.jpg,EF,2,4,,,,,,,,,,,,,0,55,55,59,,,,,,4,1,0.816387721943,,,,,,2016_Mai_03_0902,P16,PLC_L_D2S1,NHGY,60.0249087022,
stim/posf.jpg,stim/negf.jpg,stim/3.jpg,stim/4.jpg,stim/latef.jpg,AB,1,2,,,,,,,,,,,,,0,56,56,7,,,,,,2,1,0.616518824224,,,,,,2016_Mai_03_0902,P16,PLC_L_D2S1,NHGY,60.0249087022,
stim/negf.jpg,stim/posf.jpg,stim/2.jpg,stim/1.jpg,stim/latef.jpg,CD,2,4,,,,,,,,,,,,,0,57,57,39,,,,,,4,1,0.999653576839,,,,,,2016_Mai_03_0902,P16,PLC_L_D2S1,NHGY,60.0249087022,
stim/negf.jpg,stim/posf.jpg,stim/4.jpg,stim/3.jpg,stim/latef.jpg,AB,2,4,,,,,,,,,,,,,0,58,58,19,,,,,,4,1,0.766348129908,,,,,,2016_Mai_03_0902,P16,PLC_L_D2S1,NHGY,60.0249087022,
stim/posf.jpg,stim/negf.jpg,stim/1.jpg,stim/2.jpg,stim/latef.jpg,CD,1,2,,,,,,,,,,,,,0,59,59,25,,,,,,2,1,0.816366022939,,,,,,2016_Mai_03_0902,P16,PLC_L_D2S1,NHGY,60.0249087022,
