fb_corr,fb_incorr,symbol2,symbol1,fb_late,pair,position,correct,block_01.thisRepN,block_01.thisTrialN,block_01.thisN,block_01.thisIndex,block_02.thisRepN,block_02.thisTrialN,block_02.thisN,block_02.thisIndex,block_03.thisRepN,block_03.thisTrialN,block_03.thisN,block_03.thisIndex,block_04.thisRepN,block_04.thisTrialN,block_04.thisN,block_04.thisIndex,mouse.x,mouse.y,mouse.leftButton,mouse.midButton,mouse.rightButton,buttonBox_2.keys,buttonBox_2.corr,buttonBox_2.rt,mouse_2.x,mouse_2.y,mouse_2.leftButton,mouse_2.midButton,mouse_2.rightButton,date,Participant,expName,Group,frameRate,
,,,,,,,,,,,,,,,,,,,,,,,,0.9984375,0.525390625,1,0,0,,,,,,,,,2016_Jan_12_1122,P3,PLC_L_D2S1,NHGY,60.0199354193,
stim/posf.jpg,stim/negf.jpg,stim/1.jpg,stim/6.jpg,stim/latef.jpg,EF,1,2,0,0,0,45,,,,,,,,,,,,,,,,,,2,1,1.4995050943,,,,,,2016_Jan_12_1122,P3,PLC_L_D2S1,NHGY,60.0199354193,
stim/posf.jpg,stim/negf.jpg,stim/2.jpg,stim/5.jpg,stim/latef.jpg,AB,1,2,0,1,1,6,,,,,,,,,,,,,,,,,,2,1,1.06634854795,,,,,,2016_Jan_12_1122,P3,PLC_L_D2S1,NHGY,60.0199354193,
stim/posf.jpg,stim/negf.jpg,stim/4.jpg,stim/3.jpg,stim/latef.jpg,CD,1,2,0,2,2,23,,,,,,,,,,,,,,,,,,4,0,1.13296804622,,,,,,2016_Jan_12_1122,P3,PLC_L_D2S1,NHGY,60.0199354193,
stim/negf.jpg,stim/posf.jpg,stim/5.jpg,stim/2.jpg,stim/latef.jpg,AB,2,4,0,3,3,18,,,,,,,,,,,,,,,,,,4,1,1.1662635474,,,,,,2016_Jan_12_1122,P3,PLC_L_D2S1,NHGY,60.0199354193,
stim/posf.jpg,stim/negf.jpg,stim/6.jpg,stim/1.jpg,stim/latef.jpg,EF,2,4,0,4,4,54,,,,,,,,,,,,,,,,,,4,1,0.966348815615,,,,,,2016_Jan_12_1122,P3,PLC_L_D2S1,NHGY,60.0199354193,
stim/posf.jpg,stim/negf.jpg,stim/5.jpg,stim/2.jpg,stim/latef.jpg,AB,2,4,0,5,5,13,,,,,,,,,,,,,,,,,,2,0,1.13296694549,,,,,,2016_Jan_12_1122,P3,PLC_L_D2S1,NHGY,60.0199354193,
stim/posf.jpg,stim/negf.jpg,stim/2.jpg,stim/5.jpg,stim/latef.jpg,AB,1,2,0,6,6,7,,,,,,,,,,,,,,,,,,2,1,1.19955463059,,,,,,2016_Jan_12_1122,P3,PLC_L_D2S1,NHGY,60.0199354193,
stim/negf.jpg,stim/posf.jpg,stim/3.jpg,stim/4.jpg,stim/latef.jpg,CD,2,4,0,7,7,37,,,,,,,,,,,,,,,,,,2,0,0.86639117604,,,,,,2016_Jan_12_1122,P3,PLC_L_D2S1,NHGY,60.0199354193,
stim/posf.jpg,stim/negf.jpg,stim/3.jpg,stim/4.jpg,stim/latef.jpg,CD,2,4,0,8,8,32,,,,,,,,,,,,,,,,,,2,0,0.816379761131,,,,,,2016_Jan_12_1122,P3,PLC_L_D2S1,NHGY,60.0199354193,
stim/posf.jpg,stim/negf.jpg,stim/5.jpg,stim/2.jpg,stim/latef.jpg,AB,2,4,0,9,9,16,,,,,,,,,,,,,,,,,,4,1,0.799744739721,,,,,,2016_Jan_12_1122,P3,PLC_L_D2S1,NHGY,60.0199354193,
stim/posf.jpg,stim/negf.jpg,stim/3.jpg,stim/4.jpg,stim/latef.jpg,CD,2,4,0,10,10,30,,,,,,,,,,,,,,,,,,2,0,1.31619342338,,,,,,2016_Jan_12_1122,P3,PLC_L_D2S1,NHGY,60.0199354193,
stim/posf.jpg,stim/negf.jpg,stim/6.jpg,stim/1.jpg,stim/latef.jpg,EF,2,4,0,11,11,51,,,,,,,,,,,,,,,,,,4,1,0.932991540697,,,,,,2016_Jan_12_1122,P3,PLC_L_D2S1,NHGY,60.0199354193,
stim/negf.jpg,stim/posf.jpg,stim/4.jpg,stim/3.jpg,stim/latef.jpg,CD,1,2,0,12,12,28,,,,,,,,,,,,,,,,,,4,0,1.34956881539,,,,,,2016_Jan_12_1122,P3,PLC_L_D2S1,NHGY,60.0199354193,
stim/negf.jpg,stim/posf.jpg,stim/3.jpg,stim/4.jpg,stim/latef.jpg,CD,2,4,0,13,13,38,,,,,,,,,,,,,,,,,,4,1,1.46611244234,,,,,,2016_Jan_12_1122,P3,PLC_L_D2S1,NHGY,60.0199354193,
stim/posf.jpg,stim/negf.jpg,stim/4.jpg,stim/3.jpg,stim/latef.jpg,CD,1,2,0,14,14,22,,,,,,,,,,,,,,,,,,4,0,1.01632403544,,,,,,2016_Jan_12_1122,P3,PLC_L_D2S1,NHGY,60.0199354193,
stim/posf.jpg,stim/negf.jpg,stim/6.jpg,stim/1.jpg,stim/latef.jpg,EF,2,4,0,15,15,50,,,,,,,,,,,,,,,,,,4,1,1.09957670252,,,,,,2016_Jan_12_1122,P3,PLC_L_D2S1,NHGY,60.0199354193,
stim/posf.jpg,stim/negf.jpg,stim/5.jpg,stim/2.jpg,stim/latef.jpg,AB,2,4,0,16,16,14,,,,,,,,,,,,,,,,,,4,1,0.982976733345,,,,,,2016_Jan_12_1122,P3,PLC_L_D2S1,NHGY,60.0199354193,
stim/posf.jpg,stim/negf.jpg,stim/5.jpg,stim/2.jpg,stim/latef.jpg,AB,2,4,0,17,17,11,,,,,,,,,,,,,,,,,,4,1,0.966325465502,,,,,,2016_Jan_12_1122,P3,PLC_L_D2S1,NHGY,60.0199354193,
stim/posf.jpg,stim/negf.jpg,stim/3.jpg,stim/4.jpg,stim/latef.jpg,CD,2,4,0,18,18,33,,,,,,,,,,,,,,,,,,2,0,1.16627217588,,,,,,2016_Jan_12_1122,P3,PLC_L_D2S1,NHGY,60.0199354193,
stim/posf.jpg,stim/negf.jpg,stim/2.jpg,stim/5.jpg,stim/latef.jpg,AB,1,2,0,19,19,1,,,,,,,,,,,,,,,,,,2,1,1.2995324173,,,,,,2016_Jan_12_1122,P3,PLC_L_D2S1,NHGY,60.0199354193,
stim/negf.jpg,stim/posf.jpg,stim/5.jpg,stim/2.jpg,stim/latef.jpg,AB,2,4,0,20,20,19,,,,,,,,,,,,,,,,,,4,1,1.14960752172,,,,,,2016_Jan_12_1122,P3,PLC_L_D2S1,NHGY,60.0199354193,
stim/negf.jpg,stim/posf.jpg,stim/4.jpg,stim/3.jpg,stim/latef.jpg,CD,1,2,0,21,21,29,,,,,,,,,,,,,,,,,,4,0,1.08295197874,,,,,,2016_Jan_12_1122,P3,PLC_L_D2S1,NHGY,60.0199354193,
stim/posf.jpg,stim/negf.jpg,stim/5.jpg,stim/2.jpg,stim/latef.jpg,AB,2,4,0,22,22,17,,,,,,,,,,,,,,,,,,4,1,0.766388240733,,,,,,2016_Jan_12_1122,P3,PLC_L_D2S1,NHGY,60.0199354193,
stim/posf.jpg,stim/negf.jpg,stim/2.jpg,stim/5.jpg,stim/latef.jpg,AB,1,2,0,23,23,4,,,,,,,,,,,,,,,,,,2,1,1.46617850475,,,,,,2016_Jan_12_1122,P3,PLC_L_D2S1,NHGY,60.0199354193,
stim/negf.jpg,stim/posf.jpg,stim/6.jpg,stim/1.jpg,stim/latef.jpg,EF,2,4,0,24,24,57,,,,,,,,,,,,,,,,,,4,1,0.949704110104,,,,,,2016_Jan_12_1122,P3,PLC_L_D2S1,NHGY,60.0199354193,
stim/negf.jpg,stim/posf.jpg,stim/1.jpg,stim/6.jpg,stim/latef.jpg,EF,1,2,0,25,25,49,,,,,,,,,,,,,,,,,,2,1,1.43284310929,,,,,,2016_Jan_12_1122,P3,PLC_L_D2S1,NHGY,60.0199354193,
stim/posf.jpg,stim/negf.jpg,stim/2.jpg,stim/5.jpg,stim/latef.jpg,AB,1,2,0,26,26,2,,,,,,,,,,,,,,,,,,2,1,1.08298047165,,,,,,2016_Jan_12_1122,P3,PLC_L_D2S1,NHGY,60.0199354193,
stim/posf.jpg,stim/negf.jpg,stim/3.jpg,stim/4.jpg,stim/latef.jpg,CD,2,4,0,27,27,34,,,,,,,,,,,,,,,,,,2,0,0.899659239933,,,,,,2016_Jan_12_1122,P3,PLC_L_D2S1,NHGY,60.0199354193,
stim/posf.jpg,stim/negf.jpg,stim/5.jpg,stim/2.jpg,stim/latef.jpg,AB,2,4,0,28,28,12,,,,,,,,,,,,,,,,,,4,1,0.849727818108,,,,,,2016_Jan_12_1122,P3,PLC_L_D2S1,NHGY,60.0199354193,
stim/negf.jpg,stim/posf.jpg,stim/1.jpg,stim/6.jpg,stim/latef.jpg,EF,1,2,0,29,29,46,,,,,,,,,,,,,,,,,,2,1,0.766410763788,,,,,,2016_Jan_12_1122,P3,PLC_L_D2S1,NHGY,60.0199354193,
stim/posf.jpg,stim/negf.jpg,stim/1.jpg,stim/6.jpg,stim/latef.jpg,EF,1,2,0,30,30,41,,,,,,,,,,,,,,,,,,2,1,0.766492104224,,,,,,2016_Jan_12_1122,P3,PLC_L_D2S1,NHGY,60.0199354193,
stim/posf.jpg,stim/negf.jpg,stim/2.jpg,stim/5.jpg,stim/latef.jpg,AB,1,2,0,31,31,3,,,,,,,,,,,,,,,,,,2,1,0.883041670958,,,,,,2016_Jan_12_1122,P3,PLC_L_D2S1,NHGY,60.0199354193,
stim/posf.jpg,stim/negf.jpg,stim/3.jpg,stim/4.jpg,stim/latef.jpg,CD,2,4,0,32,32,31,,,,,,,,,,,,,,,,,,2,0,0.599807313451,,,,,,2016_Jan_12_1122,P3,PLC_L_D2S1,NHGY,60.0199354193,
stim/negf.jpg,stim/posf.jpg,stim/3.jpg,stim/4.jpg,stim/latef.jpg,CD,2,4,0,33,33,39,,,,,,,,,,,,,,,,,,2,0,0.616476178088,,,,,,2016_Jan_12_1122,P3,PLC_L_D2S1,NHGY,60.0199354193,
stim/posf.jpg,stim/negf.jpg,stim/1.jpg,stim/6.jpg,stim/latef.jpg,EF,1,2,0,34,34,40,,,,,,,,,,,,,,,,,,2,1,0.64971780619,,,,,,2016_Jan_12_1122,P3,PLC_L_D2S1,NHGY,60.0199354193,
stim/posf.jpg,stim/negf.jpg,stim/2.jpg,stim/5.jpg,stim/latef.jpg,AB,1,2,0,35,35,0,,,,,,,,,,,,,,,,,,2,1,0.916322721172,,,,,,2016_Jan_12_1122,P3,PLC_L_D2S1,NHGY,60.0199354193,
stim/negf.jpg,stim/posf.jpg,stim/1.jpg,stim/6.jpg,stim/latef.jpg,EF,1,2,0,36,36,47,,,,,,,,,,,,,,,,,,2,1,0.716427378638,,,,,,2016_Jan_12_1122,P3,PLC_L_D2S1,NHGY,60.0199354193,
stim/posf.jpg,stim/negf.jpg,stim/5.jpg,stim/2.jpg,stim/latef.jpg,AB,2,4,0,37,37,10,,,,,,,,,,,,,,,,,,4,1,1.16634143224,,,,,,2016_Jan_12_1122,P3,PLC_L_D2S1,NHGY,60.0199354193,
stim/posf.jpg,stim/negf.jpg,stim/6.jpg,stim/1.jpg,stim/latef.jpg,EF,2,4,0,38,38,52,,,,,,,,,,,,,,,,,,4,1,0.849712248358,,,,,,2016_Jan_12_1122,P3,PLC_L_D2S1,NHGY,60.0199354193,
stim/posf.jpg,stim/negf.jpg,stim/4.jpg,stim/3.jpg,stim/latef.jpg,CD,1,2,0,39,39,20,,,,,,,,,,,,,,,,,,4,0,0.633136324026,,,,,,2016_Jan_12_1122,P3,PLC_L_D2S1,NHGY,60.0199354193,
stim/posf.jpg,stim/negf.jpg,stim/4.jpg,stim/3.jpg,stim/latef.jpg,CD,1,2,0,40,40,26,,,,,,,,,,,,,,,,,,4,0,0.816381078408,,,,,,2016_Jan_12_1122,P3,PLC_L_D2S1,NHGY,60.0199354193,
stim/posf.jpg,stim/negf.jpg,stim/4.jpg,stim/3.jpg,stim/latef.jpg,CD,1,2,0,41,41,24,,,,,,,,,,,,,,,,,,4,0,0.749741595396,,,,,,2016_Jan_12_1122,P3,PLC_L_D2S1,NHGY,60.0199354193,
stim/negf.jpg,stim/posf.jpg,stim/1.jpg,stim/6.jpg,stim/latef.jpg,EF,1,2,0,42,42,48,,,,,,,,,,,,,,,,,,2,1,0.78298862494,,,,,,2016_Jan_12_1122,P3,PLC_L_D2S1,NHGY,60.0199354193,
stim/negf.jpg,stim/posf.jpg,stim/4.jpg,stim/3.jpg,stim/latef.jpg,CD,1,2,0,43,43,27,,,,,,,,,,,,,,,,,,4,0,0.899694153825,,,,,,2016_Jan_12_1122,P3,PLC_L_D2S1,NHGY,60.0199354193,
stim/posf.jpg,stim/negf.jpg,stim/2.jpg,stim/5.jpg,stim/latef.jpg,AB,1,2,0,44,44,5,,,,,,,,,,,,,,,,,,2,1,0.71644685511,,,,,,2016_Jan_12_1122,P3,PLC_L_D2S1,NHGY,60.0199354193,
stim/posf.jpg,stim/negf.jpg,stim/1.jpg,stim/6.jpg,stim/latef.jpg,EF,1,2,0,45,45,44,,,,,,,,,,,,,,,,,,2,1,0.649791522652,,,,,,2016_Jan_12_1122,P3,PLC_L_D2S1,NHGY,60.0199354193,
stim/posf.jpg,stim/negf.jpg,stim/4.jpg,stim/3.jpg,stim/latef.jpg,CD,1,2,0,46,46,21,,,,,,,,,,,,,,,,,,2,1,0.766419825341,,,,,,2016_Jan_12_1122,P3,PLC_L_D2S1,NHGY,60.0199354193,
stim/negf.jpg,stim/posf.jpg,stim/6.jpg,stim/1.jpg,stim/latef.jpg,EF,2,4,0,47,47,56,,,,,,,,,,,,,,,,,,4,1,0.883032813916,,,,,,2016_Jan_12_1122,P3,PLC_L_D2S1,NHGY,60.0199354193,
stim/posf.jpg,stim/negf.jpg,stim/5.jpg,stim/2.jpg,stim/latef.jpg,AB,2,4,0,48,48,15,,,,,,,,,,,,,,,,,,4,1,0.933004181155,,,,,,2016_Jan_12_1122,P3,PLC_L_D2S1,NHGY,60.0199354193,
stim/negf.jpg,stim/posf.jpg,stim/6.jpg,stim/1.jpg,stim/latef.jpg,EF,2,4,0,49,49,58,,,,,,,,,,,,,,,,,,4,1,0.849705529637,,,,,,2016_Jan_12_1122,P3,PLC_L_D2S1,NHGY,60.0199354193,
stim/negf.jpg,stim/posf.jpg,stim/6.jpg,stim/1.jpg,stim/latef.jpg,EF,2,4,0,50,50,59,,,,,,,,,,,,,,,,,,4,1,0.76642789743,,,,,,2016_Jan_12_1122,P3,PLC_L_D2S1,NHGY,60.0199354193,
stim/negf.jpg,stim/posf.jpg,stim/2.jpg,stim/5.jpg,stim/latef.jpg,AB,1,2,0,51,51,8,,,,,,,,,,,,,,,,,,4,0,1.23289902144,,,,,,2016_Jan_12_1122,P3,PLC_L_D2S1,NHGY,60.0199354193,
stim/negf.jpg,stim/posf.jpg,stim/2.jpg,stim/5.jpg,stim/latef.jpg,AB,1,2,0,52,52,9,,,,,,,,,,,,,,,,,,2,1,0.799776778457,,,,,,2016_Jan_12_1122,P3,PLC_L_D2S1,NHGY,60.0199354193,
stim/posf.jpg,stim/negf.jpg,stim/6.jpg,stim/1.jpg,stim/latef.jpg,EF,2,4,0,53,53,55,,,,,,,,,,,,,,,,,,4,1,0.566484350928,,,,,,2016_Jan_12_1122,P3,PLC_L_D2S1,NHGY,60.0199354193,
stim/posf.jpg,stim/negf.jpg,stim/3.jpg,stim/4.jpg,stim/latef.jpg,CD,2,4,0,54,54,35,,,,,,,,,,,,,,,,,,2,0,0.883060052706,,,,,,2016_Jan_12_1122,P3,PLC_L_D2S1,NHGY,60.0199354193,
stim/posf.jpg,stim/negf.jpg,stim/3.jpg,stim/4.jpg,stim/latef.jpg,CD,2,4,0,55,55,36,,,,,,,,,,,,,,,,,,2,0,0.833041501036,,,,,,2016_Jan_12_1122,P3,PLC_L_D2S1,NHGY,60.0199354193,
stim/posf.jpg,stim/negf.jpg,stim/6.jpg,stim/1.jpg,stim/latef.jpg,EF,2,4,0,56,56,53,,,,,,,,,,,,,,,,,,4,1,0.666390574543,,,,,,2016_Jan_12_1122,P3,PLC_L_D2S1,NHGY,60.0199354193,
stim/posf.jpg,stim/negf.jpg,stim/1.jpg,stim/6.jpg,stim/latef.jpg,EF,1,2,0,57,57,42,,,,,,,,,,,,,,,,,,2,1,0.94967142175,,,,,,2016_Jan_12_1122,P3,PLC_L_D2S1,NHGY,60.0199354193,
stim/posf.jpg,stim/negf.jpg,stim/4.jpg,stim/3.jpg,stim/latef.jpg,CD,1,2,0,58,58,25,,,,,,,,,,,,,,,,,,4,0,1.13297242813,,,,,,2016_Jan_12_1122,P3,PLC_L_D2S1,NHGY,60.0199354193,
stim/posf.jpg,stim/negf.jpg,stim/1.jpg,stim/6.jpg,stim/latef.jpg,EF,1,2,0,59,59,43,,,,,,,,,,,,,,,,,,2,1,0.649764891374,,,,,,2016_Jan_12_1122,P3,PLC_L_D2S1,NHGY,60.0199354193,
,,,,,,,,,,,,,,,,,,,,,,,,,,,,,,,,0.9984375,0.525390625,1,0,0,2016_Jan_12_1122,P3,PLC_L_D2S1,NHGY,60.0199354193,
stim/posf.jpg,stim/negf.jpg,stim/3.jpg,stim/4.jpg,stim/latef.jpg,CD,2,4,,,,,0,0,0,31,,,,,,,,,,,,,,4,1,1.03300073458,,,,,,2016_Jan_12_1122,P3,PLC_L_D2S1,NHGY,60.0199354193,
stim/negf.jpg,stim/posf.jpg,stim/2.jpg,stim/5.jpg,stim/latef.jpg,AB,1,2,,,,,0,1,1,8,,,,,,,,,,,,,,4,0,1.31623105905,,,,,,2016_Jan_12_1122,P3,PLC_L_D2S1,NHGY,60.0199354193,
stim/posf.jpg,stim/negf.jpg,stim/5.jpg,stim/2.jpg,stim/latef.jpg,AB,2,4,,,,,0,2,2,15,,,,,,,,,,,,,,4,1,0.898683332142,,,,,,2016_Jan_12_1122,P3,PLC_L_D2S1,NHGY,60.0199354193,
stim/posf.jpg,stim/negf.jpg,stim/1.jpg,stim/6.jpg,stim/latef.jpg,EF,1,2,,,,,0,3,3,44,,,,,,,,,,,,,,2,1,0.749760262854,,,,,,2016_Jan_12_1122,P3,PLC_L_D2S1,NHGY,60.0199354193,
stim/posf.jpg,stim/negf.jpg,stim/2.jpg,stim/5.jpg,stim/latef.jpg,AB,1,2,,,,,0,4,4,3,,,,,,,,,,,,,,2,1,1.23289071777,,,,,,2016_Jan_12_1122,P3,PLC_L_D2S1,NHGY,60.0199354193,
stim/posf.jpg,stim/negf.jpg,stim/3.jpg,stim/4.jpg,stim/latef.jpg,CD,2,4,,,,,0,5,5,34,,,,,,,,,,,,,,2,0,1.16627192024,,,,,,2016_Jan_12_1122,P3,PLC_L_D2S1,NHGY,60.0199354193,
stim/negf.jpg,stim/posf.jpg,stim/1.jpg,stim/6.jpg,stim/latef.jpg,EF,1,2,,,,,0,6,6,47,,,,,,,,,,,,,,2,1,0.699760456837,,,,,,2016_Jan_12_1122,P3,PLC_L_D2S1,NHGY,60.0199354193,
stim/posf.jpg,stim/negf.jpg,stim/6.jpg,stim/1.jpg,stim/latef.jpg,EF,2,4,,,,,0,7,7,54,,,,,,,,,,,,,,4,1,0.866345350993,,,,,,2016_Jan_12_1122,P3,PLC_L_D2S1,NHGY,60.0199354193,
stim/negf.jpg,stim/posf.jpg,stim/3.jpg,stim/4.jpg,stim/latef.jpg,CD,2,4,,,,,0,8,8,37,,,,,,,,,,,,,,4,1,1.41620037969,,,,,,2016_Jan_12_1122,P3,PLC_L_D2S1,NHGY,60.0199354193,
stim/negf.jpg,stim/posf.jpg,stim/6.jpg,stim/1.jpg,stim/latef.jpg,EF,2,4,,,,,0,9,9,56,,,,,,,,,,,,,,4,1,0.916370738676,,,,,,2016_Jan_12_1122,P3,PLC_L_D2S1,NHGY,60.0199354193,
stim/posf.jpg,stim/negf.jpg,stim/4.jpg,stim/3.jpg,stim/latef.jpg,CD,1,2,,,,,0,10,10,26,,,,,,,,,,,,,,4,0,0.88310103871,,,,,,2016_Jan_12_1122,P3,PLC_L_D2S1,NHGY,60.0199354193,
stim/negf.jpg,stim/posf.jpg,stim/1.jpg,stim/6.jpg,stim/latef.jpg,EF,1,2,,,,,0,11,11,49,,,,,,,,,,,,,,2,1,0.566414402845,,,,,,2016_Jan_12_1122,P3,PLC_L_D2S1,NHGY,60.0199354193,
stim/posf.jpg,stim/negf.jpg,stim/4.jpg,stim/3.jpg,stim/latef.jpg,CD,1,2,,,,,0,12,12,22,,,,,,,,,,,,,,4,0,0.816383219739,,,,,,2016_Jan_12_1122,P3,PLC_L_D2S1,NHGY,60.0199354193,
stim/posf.jpg,stim/negf.jpg,stim/5.jpg,stim/2.jpg,stim/latef.jpg,AB,2,4,,,,,0,13,13,10,,,,,,,,,,,,,,4,1,0.966312599482,,,,,,2016_Jan_12_1122,P3,PLC_L_D2S1,NHGY,60.0199354193,
stim/negf.jpg,stim/posf.jpg,stim/4.jpg,stim/3.jpg,stim/latef.jpg,CD,1,2,,,,,0,14,14,28,,,,,,,,,,,,,,4,0,0.816416142675,,,,,,2016_Jan_12_1122,P3,PLC_L_D2S1,NHGY,60.0199354193,
stim/posf.jpg,stim/negf.jpg,stim/1.jpg,stim/6.jpg,stim/latef.jpg,EF,1,2,,,,,0,15,15,42,,,,,,,,,,,,,,2,1,0.816426223764,,,,,,2016_Jan_12_1122,P3,PLC_L_D2S1,NHGY,60.0199354193,
stim/negf.jpg,stim/posf.jpg,stim/6.jpg,stim/1.jpg,stim/latef.jpg,EF,2,4,,,,,0,16,16,59,,,,,,,,,,,,,,4,1,0.833050770105,,,,,,2016_Jan_12_1122,P3,PLC_L_D2S1,NHGY,60.0199354193,
stim/posf.jpg,stim/negf.jpg,stim/6.jpg,stim/1.jpg,stim/latef.jpg,EF,2,4,,,,,0,17,17,52,,,,,,,,,,,,,,4,1,0.666440655181,,,,,,2016_Jan_12_1122,P3,PLC_L_D2S1,NHGY,60.0199354193,
stim/negf.jpg,stim/posf.jpg,stim/5.jpg,stim/2.jpg,stim/latef.jpg,AB,2,4,,,,,0,18,18,18,,,,,,,,,,,,,,4,1,0.899645555877,,,,,,2016_Jan_12_1122,P3,PLC_L_D2S1,NHGY,60.0199354193,
stim/posf.jpg,stim/negf.jpg,stim/2.jpg,stim/5.jpg,stim/latef.jpg,AB,1,2,,,,,0,19,19,7,,,,,,,,,,,,,,2,1,0.783054533971,,,,,,2016_Jan_12_1122,P3,PLC_L_D2S1,NHGY,60.0199354193,
stim/posf.jpg,stim/negf.jpg,stim/3.jpg,stim/4.jpg,stim/latef.jpg,CD,2,4,,,,,0,20,20,33,,,,,,,,,,,,,,2,0,1.46618008669,,,,,,2016_Jan_12_1122,P3,PLC_L_D2S1,NHGY,60.0199354193,
stim/negf.jpg,stim/posf.jpg,stim/3.jpg,stim/4.jpg,stim/latef.jpg,CD,2,4,,,,,0,21,21,38,,,,,,,,,,,,,,2,0,0.666460682023,,,,,,2016_Jan_12_1122,P3,PLC_L_D2S1,NHGY,60.0199354193,
stim/posf.jpg,stim/negf.jpg,stim/6.jpg,stim/1.jpg,stim/latef.jpg,EF,2,4,,,,,0,22,22,50,,,,,,,,,,,,,,4,1,0.982985052048,,,,,,2016_Jan_12_1122,P3,PLC_L_D2S1,NHGY,60.0199354193,
stim/posf.jpg,stim/negf.jpg,stim/5.jpg,stim/2.jpg,stim/latef.jpg,AB,2,4,,,,,0,23,23,16,,,,,,,,,,,,,,4,1,1.56615020131,,,,,,2016_Jan_12_1122,P3,PLC_L_D2S1,NHGY,60.0199354193,
stim/posf.jpg,stim/negf.jpg,stim/2.jpg,stim/5.jpg,stim/latef.jpg,AB,1,2,,,,,0,24,24,0,,,,,,,,,,,,,,2,1,0.833055876813,,,,,,2016_Jan_12_1122,P3,PLC_L_D2S1,NHGY,60.0199354193,
stim/negf.jpg,stim/posf.jpg,stim/2.jpg,stim/5.jpg,stim/latef.jpg,AB,1,2,,,,,0,25,25,9,,,,,,,,,,,,,,2,1,0.816339175122,,,,,,2016_Jan_12_1122,P3,PLC_L_D2S1,NHGY,60.0199354193,
stim/posf.jpg,stim/negf.jpg,stim/1.jpg,stim/6.jpg,stim/latef.jpg,EF,1,2,,,,,0,26,26,43,,,,,,,,,,,,,,2,1,0.866399828574,,,,,,2016_Jan_12_1122,P3,PLC_L_D2S1,NHGY,60.0199354193,
stim/posf.jpg,stim/negf.jpg,stim/1.jpg,stim/6.jpg,stim/latef.jpg,EF,1,2,,,,,0,27,27,45,,,,,,,,,,,,,,2,1,0.633107446157,,,,,,2016_Jan_12_1122,P3,PLC_L_D2S1,NHGY,60.0199354193,
stim/posf.jpg,stim/negf.jpg,stim/4.jpg,stim/3.jpg,stim/latef.jpg,CD,1,2,,,,,0,28,28,20,,,,,,,,,,,,,,2,1,1.33289511772,,,,,,2016_Jan_12_1122,P3,PLC_L_D2S1,NHGY,60.0199354193,
stim/posf.jpg,stim/negf.jpg,stim/1.jpg,stim/6.jpg,stim/latef.jpg,EF,1,2,,,,,0,29,29,41,,,,,,,,,,,,,,2,1,0.699805692417,,,,,,2016_Jan_12_1122,P3,PLC_L_D2S1,NHGY,60.0199354193,
stim/negf.jpg,stim/posf.jpg,stim/4.jpg,stim/3.jpg,stim/latef.jpg,CD,1,2,,,,,0,30,30,29,,,,,,,,,,,,,,2,1,1.33289270572,,,,,,2016_Jan_12_1122,P3,PLC_L_D2S1,NHGY,60.0199354193,
stim/posf.jpg,stim/negf.jpg,stim/6.jpg,stim/1.jpg,stim/latef.jpg,EF,2,4,,,,,0,31,31,51,,,,,,,,,,,,,,4,1,0.949684693782,,,,,,2016_Jan_12_1122,P3,PLC_L_D2S1,NHGY,60.0199354193,
stim/negf.jpg,stim/posf.jpg,stim/5.jpg,stim/2.jpg,stim/latef.jpg,AB,2,4,,,,,0,32,32,19,,,,,,,,,,,,,,4,1,0.766418523099,,,,,,2016_Jan_12_1122,P3,PLC_L_D2S1,NHGY,60.0199354193,
stim/negf.jpg,stim/posf.jpg,stim/1.jpg,stim/6.jpg,stim/latef.jpg,EF,1,2,,,,,0,33,33,48,,,,,,,,,,,,,,2,1,0.649801315023,,,,,,2016_Jan_12_1122,P3,PLC_L_D2S1,NHGY,60.0199354193,
stim/posf.jpg,stim/negf.jpg,stim/4.jpg,stim/3.jpg,stim/latef.jpg,CD,1,2,,,,,0,34,34,25,,,,,,,,,,,,,,4,0,1.03297480104,,,,,,2016_Jan_12_1122,P3,PLC_L_D2S1,NHGY,60.0199354193,
stim/posf.jpg,stim/negf.jpg,stim/2.jpg,stim/5.jpg,stim/latef.jpg,AB,1,2,,,,,0,35,35,2,,,,,,,,,,,,,,2,1,0.599770152968,,,,,,2016_Jan_12_1122,P3,PLC_L_D2S1,NHGY,60.0199354193,
stim/posf.jpg,stim/negf.jpg,stim/3.jpg,stim/4.jpg,stim/latef.jpg,CD,2,4,,,,,0,36,36,30,,,,,,,,,,,,,,2,0,1.09962202231,,,,,,2016_Jan_12_1122,P3,PLC_L_D2S1,NHGY,60.0199354193,
stim/posf.jpg,stim/negf.jpg,stim/2.jpg,stim/5.jpg,stim/latef.jpg,AB,1,2,,,,,0,37,37,6,,,,,,,,,,,,,,2,1,0.683092945568,,,,,,2016_Jan_12_1122,P3,PLC_L_D2S1,NHGY,60.0199354193,
stim/posf.jpg,stim/negf.jpg,stim/6.jpg,stim/1.jpg,stim/latef.jpg,EF,2,4,,,,,0,38,38,53,,,,,,,,,,,,,,4,1,0.833037901076,,,,,,2016_Jan_12_1122,P3,PLC_L_D2S1,NHGY,60.0199354193,
stim/negf.jpg,stim/posf.jpg,stim/1.jpg,stim/6.jpg,stim/latef.jpg,EF,1,2,,,,,0,39,39,46,,,,,,,,,,,,,,2,1,0.599748832909,,,,,,2016_Jan_12_1122,P3,PLC_L_D2S1,NHGY,60.0199354193,
stim/posf.jpg,stim/negf.jpg,stim/5.jpg,stim/2.jpg,stim/latef.jpg,AB,2,4,,,,,0,40,40,14,,,,,,,,,,,,,,4,1,0.883053312932,,,,,,2016_Jan_12_1122,P3,PLC_L_D2S1,NHGY,60.0199354193,
stim/posf.jpg,stim/negf.jpg,stim/2.jpg,stim/5.jpg,stim/latef.jpg,AB,1,2,,,,,0,41,41,5,,,,,,,,,,,,,,2,1,0.599795130131,,,,,,2016_Jan_12_1122,P3,PLC_L_D2S1,NHGY,60.0199354193,
stim/posf.jpg,stim/negf.jpg,stim/6.jpg,stim/1.jpg,stim/latef.jpg,EF,2,4,,,,,0,42,42,55,,,,,,,,,,,,,,4,1,0.716442142381,,,,,,2016_Jan_12_1122,P3,PLC_L_D2S1,NHGY,60.0199354193,
stim/negf.jpg,stim/posf.jpg,stim/6.jpg,stim/1.jpg,stim/latef.jpg,EF,2,4,,,,,0,43,43,58,,,,,,,,,,,,,,4,1,0.899675263813,,,,,,2016_Jan_12_1122,P3,PLC_L_D2S1,NHGY,60.0199354193,
stim/posf.jpg,stim/negf.jpg,stim/2.jpg,stim/5.jpg,stim/latef.jpg,AB,1,2,,,,,0,44,44,4,,,,,,,,,,,,,,2,1,0.583185055807,,,,,,2016_Jan_12_1122,P3,PLC_L_D2S1,NHGY,60.0199354193,
stim/posf.jpg,stim/negf.jpg,stim/3.jpg,stim/4.jpg,stim/latef.jpg,CD,2,4,,,,,0,45,45,36,,,,,,,,,,,,,,2,0,0.583141826221,,,,,,2016_Jan_12_1122,P3,PLC_L_D2S1,NHGY,60.0199354193,
stim/posf.jpg,stim/negf.jpg,stim/4.jpg,stim/3.jpg,stim/latef.jpg,CD,1,2,,,,,0,46,46,24,,,,,,,,,,,,,,4,0,0.666442384485,,,,,,2016_Jan_12_1122,P3,PLC_L_D2S1,NHGY,60.0199354193,
stim/posf.jpg,stim/negf.jpg,stim/4.jpg,stim/3.jpg,stim/latef.jpg,CD,1,2,,,,,0,47,47,21,,,,,,,,,,,,,,4,0,0.849704440927,,,,,,2016_Jan_12_1122,P3,PLC_L_D2S1,NHGY,60.0199354193,
stim/posf.jpg,stim/negf.jpg,stim/5.jpg,stim/2.jpg,stim/latef.jpg,AB,2,4,,,,,0,48,48,17,,,,,,,,,,,,,,4,1,0.866344436718,,,,,,2016_Jan_12_1122,P3,PLC_L_D2S1,NHGY,60.0199354193,
stim/posf.jpg,stim/negf.jpg,stim/5.jpg,stim/2.jpg,stim/latef.jpg,AB,2,4,,,,,0,49,49,11,,,,,,,,,,,,,,4,1,0.699778985952,,,,,,2016_Jan_12_1122,P3,PLC_L_D2S1,NHGY,60.0199354193,
stim/posf.jpg,stim/negf.jpg,stim/3.jpg,stim/4.jpg,stim/latef.jpg,CD,2,4,,,,,0,50,50,32,,,,,,,,,,,,,,4,1,1.21624131457,,,,,,2016_Jan_12_1122,P3,PLC_L_D2S1,NHGY,60.0199354193,
stim/posf.jpg,stim/negf.jpg,stim/1.jpg,stim/6.jpg,stim/latef.jpg,EF,1,2,,,,,0,51,51,40,,,,,,,,,,,,,,2,1,0.76641974113,,,,,,2016_Jan_12_1122,P3,PLC_L_D2S1,NHGY,60.0199354193,
stim/posf.jpg,stim/negf.jpg,stim/3.jpg,stim/4.jpg,stim/latef.jpg,CD,2,4,,,,,0,52,52,35,,,,,,,,,,,,,,4,1,1.24959499855,,,,,,2016_Jan_12_1122,P3,PLC_L_D2S1,NHGY,60.0199354193,
stim/posf.jpg,stim/negf.jpg,stim/5.jpg,stim/2.jpg,stim/latef.jpg,AB,2,4,,,,,0,53,53,13,,,,,,,,,,,,,,4,1,0.899668142089,,,,,,2016_Jan_12_1122,P3,PLC_L_D2S1,NHGY,60.0199354193,
stim/posf.jpg,stim/negf.jpg,stim/2.jpg,stim/5.jpg,stim/latef.jpg,AB,1,2,,,,,0,54,54,1,,,,,,,,,,,,,,2,1,0.78305646177,,,,,,2016_Jan_12_1122,P3,PLC_L_D2S1,NHGY,60.0199354193,
stim/posf.jpg,stim/negf.jpg,stim/4.jpg,stim/3.jpg,stim/latef.jpg,CD,1,2,,,,,0,55,55,23,,,,,,,,,,,,,,4,0,0.833051227242,,,,,,2016_Jan_12_1122,P3,PLC_L_D2S1,NHGY,60.0199354193,
stim/negf.jpg,stim/posf.jpg,stim/3.jpg,stim/4.jpg,stim/latef.jpg,CD,2,4,,,,,0,56,56,39,,,,,,,,,,,,,,4,1,1.01628113969,,,,,,2016_Jan_12_1122,P3,PLC_L_D2S1,NHGY,60.0199354193,
stim/negf.jpg,stim/posf.jpg,stim/4.jpg,stim/3.jpg,stim/latef.jpg,CD,1,2,,,,,0,57,57,27,,,,,,,,,,,,,,2,1,1.23292860607,,,,,,2016_Jan_12_1122,P3,PLC_L_D2S1,NHGY,60.0199354193,
stim/posf.jpg,stim/negf.jpg,stim/5.jpg,stim/2.jpg,stim/latef.jpg,AB,2,4,,,,,0,58,58,12,,,,,,,,,,,,,,4,1,0.716431931971,,,,,,2016_Jan_12_1122,P3,PLC_L_D2S1,NHGY,60.0199354193,
stim/negf.jpg,stim/posf.jpg,stim/6.jpg,stim/1.jpg,stim/latef.jpg,EF,2,4,,,,,0,59,59,57,,,,,,,,,,,,,,4,1,0.716435162009,,,,,,2016_Jan_12_1122,P3,PLC_L_D2S1,NHGY,60.0199354193,
,,,,,,,,,,,,,,,,,,,,,,,,,,,,,,,,0.9984375,0.525390625,1,0,0,2016_Jan_12_1122,P3,PLC_L_D2S1,NHGY,60.0199354193,
stim/posf.jpg,stim/negf.jpg,stim/6.jpg,stim/1.jpg,stim/latef.jpg,EF,2,4,,,,,,,,,0,0,0,55,,,,,,,,,,4,1,0.849732422567,,,,,,2016_Jan_12_1122,P3,PLC_L_D2S1,NHGY,60.0199354193,
stim/negf.jpg,stim/posf.jpg,stim/3.jpg,stim/4.jpg,stim/latef.jpg,CD,2,4,,,,,,,,,0,1,1,38,,,,,,,,,,2,0,0.916329857934,,,,,,2016_Jan_12_1122,P3,PLC_L_D2S1,NHGY,60.0199354193,
stim/posf.jpg,stim/negf.jpg,stim/5.jpg,stim/2.jpg,stim/latef.jpg,AB,2,4,,,,,,,,,0,2,2,10,,,,,,,,,,4,1,0.566457491081,,,,,,2016_Jan_12_1122,P3,PLC_L_D2S1,NHGY,60.0199354193,
stim/negf.jpg,stim/posf.jpg,stim/3.jpg,stim/4.jpg,stim/latef.jpg,CD,2,4,,,,,,,,,0,3,3,39,,,,,,,,,,4,1,0.816414296079,,,,,,2016_Jan_12_1122,P3,PLC_L_D2S1,NHGY,60.0199354193,
stim/posf.jpg,stim/negf.jpg,stim/4.jpg,stim/3.jpg,stim/latef.jpg,CD,1,2,,,,,,,,,0,4,4,22,,,,,,,,,,4,0,0.549822556888,,,,,,2016_Jan_12_1122,P3,PLC_L_D2S1,NHGY,60.0199354193,
stim/posf.jpg,stim/negf.jpg,stim/6.jpg,stim/1.jpg,stim/latef.jpg,EF,2,4,,,,,,,,,0,5,5,51,,,,,,,,,,4,1,0.633122609896,,,,,,2016_Jan_12_1122,P3,PLC_L_D2S1,NHGY,60.0199354193,
stim/posf.jpg,stim/negf.jpg,stim/5.jpg,stim/2.jpg,stim/latef.jpg,AB,2,4,,,,,,,,,0,6,6,16,,,,,,,,,,4,1,0.566476943492,,,,,,2016_Jan_12_1122,P3,PLC_L_D2S1,NHGY,60.0199354193,
stim/negf.jpg,stim/posf.jpg,stim/2.jpg,stim/5.jpg,stim/latef.jpg,AB,1,2,,,,,,,,,0,7,7,8,,,,,,,,,,2,1,0.882042686737,,,,,,2016_Jan_12_1122,P3,PLC_L_D2S1,NHGY,60.0199354193,
stim/negf.jpg,stim/posf.jpg,stim/6.jpg,stim/1.jpg,stim/latef.jpg,EF,2,4,,,,,,,,,0,8,8,57,,,,,,,,,,4,1,0.883046879922,,,,,,2016_Jan_12_1122,P3,PLC_L_D2S1,NHGY,60.0199354193,
stim/posf.jpg,stim/negf.jpg,stim/2.jpg,stim/5.jpg,stim/latef.jpg,AB,1,2,,,,,,,,,0,9,9,7,,,,,,,,,,2,1,0.533199189483,,,,,,2016_Jan_12_1122,P3,PLC_L_D2S1,NHGY,60.0199354193,
stim/posf.jpg,stim/negf.jpg,stim/4.jpg,stim/3.jpg,stim/latef.jpg,CD,1,2,,,,,,,,,0,10,10,25,,,,,,,,,,4,0,0.833049383654,,,,,,2016_Jan_12_1122,P3,PLC_L_D2S1,NHGY,60.0199354193,
stim/posf.jpg,stim/negf.jpg,stim/3.jpg,stim/4.jpg,stim/latef.jpg,CD,2,4,,,,,,,,,0,11,11,36,,,,,,,,,,2,0,0.716518761067,,,,,,2016_Jan_12_1122,P3,PLC_L_D2S1,NHGY,60.0199354193,
stim/negf.jpg,stim/posf.jpg,stim/4.jpg,stim/3.jpg,stim/latef.jpg,CD,1,2,,,,,,,,,0,12,12,29,,,,,,,,,,2,1,0.816380239321,,,,,,2016_Jan_12_1122,P3,PLC_L_D2S1,NHGY,60.0199354193,
stim/posf.jpg,stim/negf.jpg,stim/6.jpg,stim/1.jpg,stim/latef.jpg,EF,2,4,,,,,,,,,0,13,13,54,,,,,,,,,,4,1,0.533149196061,,,,,,2016_Jan_12_1122,P3,PLC_L_D2S1,NHGY,60.0199354193,
stim/posf.jpg,stim/negf.jpg,stim/6.jpg,stim/1.jpg,stim/latef.jpg,EF,2,4,,,,,,,,,0,14,14,50,,,,,,,,,,4,1,0.616457483562,,,,,,2016_Jan_12_1122,P3,PLC_L_D2S1,NHGY,60.0199354193,
stim/negf.jpg,stim/posf.jpg,stim/6.jpg,stim/1.jpg,stim/latef.jpg,EF,2,4,,,,,,,,,0,15,15,58,,,,,,,,,,4,1,0.549786073089,,,,,,2016_Jan_12_1122,P3,PLC_L_D2S1,NHGY,60.0199354193,
stim/posf.jpg,stim/negf.jpg,stim/1.jpg,stim/6.jpg,stim/latef.jpg,EF,1,2,,,,,,,,,0,16,16,45,,,,,,,,,,2,1,0.733033738717,,,,,,2016_Jan_12_1122,P3,PLC_L_D2S1,NHGY,60.0199354193,
stim/posf.jpg,stim/negf.jpg,stim/5.jpg,stim/2.jpg,stim/latef.jpg,AB,2,4,,,,,,,,,0,17,17,14,,,,,,,,,,4,1,0.666458062503,,,,,,2016_Jan_12_1122,P3,PLC_L_D2S1,NHGY,60.0199354193,
stim/posf.jpg,stim/negf.jpg,stim/2.jpg,stim/5.jpg,stim/latef.jpg,AB,1,2,,,,,,,,,0,18,18,1,,,,,,,,,,2,1,1.18292191291,,,,,,2016_Jan_12_1122,P3,PLC_L_D2S1,NHGY,60.0199354193,
stim/posf.jpg,stim/negf.jpg,stim/2.jpg,stim/5.jpg,stim/latef.jpg,AB,1,2,,,,,,,,,0,19,19,3,,,,,,,,,,2,1,0.599827030522,,,,,,2016_Jan_12_1122,P3,PLC_L_D2S1,NHGY,60.0199354193,
stim/posf.jpg,stim/negf.jpg,stim/4.jpg,stim/3.jpg,stim/latef.jpg,CD,1,2,,,,,,,,,0,20,20,23,,,,,,,,,,2,1,0.849705854445,,,,,,2016_Jan_12_1122,P3,PLC_L_D2S1,NHGY,60.0199354193,
stim/posf.jpg,stim/negf.jpg,stim/4.jpg,stim/3.jpg,stim/latef.jpg,CD,1,2,,,,,,,,,0,21,21,24,,,,,,,,,,2,1,0.73307055334,,,,,,2016_Jan_12_1122,P3,PLC_L_D2S1,NHGY,60.0199354193,
stim/posf.jpg,stim/negf.jpg,stim/1.jpg,stim/6.jpg,stim/latef.jpg,EF,1,2,,,,,,,,,0,22,22,44,,,,,,,,,,2,1,0.766412342718,,,,,,2016_Jan_12_1122,P3,PLC_L_D2S1,NHGY,60.0199354193,
stim/posf.jpg,stim/negf.jpg,stim/6.jpg,stim/1.jpg,stim/latef.jpg,EF,2,4,,,,,,,,,0,23,23,53,,,,,,,,,,4,1,0.716409381849,,,,,,2016_Jan_12_1122,P3,PLC_L_D2S1,NHGY,60.0199354193,
stim/posf.jpg,stim/negf.jpg,stim/1.jpg,stim/6.jpg,stim/latef.jpg,EF,1,2,,,,,,,,,0,24,24,40,,,,,,,,,,2,1,0.699741004424,,,,,,2016_Jan_12_1122,P3,PLC_L_D2S1,NHGY,60.0199354193,
stim/posf.jpg,stim/negf.jpg,stim/1.jpg,stim/6.jpg,stim/latef.jpg,EF,1,2,,,,,,,,,0,25,25,41,,,,,,,,,,2,1,0.549800848862,,,,,,2016_Jan_12_1122,P3,PLC_L_D2S1,NHGY,60.0199354193,
stim/posf.jpg,stim/negf.jpg,stim/6.jpg,stim/1.jpg,stim/latef.jpg,EF,2,4,,,,,,,,,0,26,26,52,,,,,,,,,,4,1,0.799736866125,,,,,,2016_Jan_12_1122,P3,PLC_L_D2S1,NHGY,60.0199354193,
stim/posf.jpg,stim/negf.jpg,stim/3.jpg,stim/4.jpg,stim/latef.jpg,CD,2,4,,,,,,,,,0,27,27,31,,,,,,,,,,4,1,0.982990288079,,,,,,2016_Jan_12_1122,P3,PLC_L_D2S1,NHGY,60.0199354193,
stim/negf.jpg,stim/posf.jpg,stim/4.jpg,stim/3.jpg,stim/latef.jpg,CD,1,2,,,,,,,,,0,28,28,27,,,,,,,,,,4,0,1.19960097894,,,,,,2016_Jan_12_1122,P3,PLC_L_D2S1,NHGY,60.0199354193,
stim/posf.jpg,stim/negf.jpg,stim/3.jpg,stim/4.jpg,stim/latef.jpg,CD,2,4,,,,,,,,,0,29,29,35,,,,,,,,,,2,0,0.766393191055,,,,,,2016_Jan_12_1122,P3,PLC_L_D2S1,NHGY,60.0199354193,
stim/negf.jpg,stim/posf.jpg,stim/1.jpg,stim/6.jpg,stim/latef.jpg,EF,1,2,,,,,,,,,0,30,30,47,,,,,,,,,,2,1,0.749767901866,,,,,,2016_Jan_12_1122,P3,PLC_L_D2S1,NHGY,60.0199354193,
stim/posf.jpg,stim/negf.jpg,stim/2.jpg,stim/5.jpg,stim/latef.jpg,AB,1,2,,,,,,,,,0,31,31,6,,,,,,,,,,2,1,0.733151328369,,,,,,2016_Jan_12_1122,P3,PLC_L_D2S1,NHGY,60.0199354193,
stim/negf.jpg,stim/posf.jpg,stim/5.jpg,stim/2.jpg,stim/latef.jpg,AB,2,4,,,,,,,,,0,32,32,18,,,,,,,,,,4,1,0.733100667286,,,,,,2016_Jan_12_1122,P3,PLC_L_D2S1,NHGY,60.0199354193,
stim/posf.jpg,stim/negf.jpg,stim/4.jpg,stim/3.jpg,stim/latef.jpg,CD,1,2,,,,,,,,,0,33,33,21,,,,,,,,,,2,1,1.16629408841,,,,,,2016_Jan_12_1122,P3,PLC_L_D2S1,NHGY,60.0199354193,
stim/negf.jpg,stim/posf.jpg,stim/3.jpg,stim/4.jpg,stim/latef.jpg,CD,2,4,,,,,,,,,0,34,34,37,,,,,,,,,,4,1,0.78305933091,,,,,,2016_Jan_12_1122,P3,PLC_L_D2S1,NHGY,60.0199354193,
stim/negf.jpg,stim/posf.jpg,stim/1.jpg,stim/6.jpg,stim/latef.jpg,EF,1,2,,,,,,,,,0,35,35,46,,,,,,,,,,2,1,0.649754286982,,,,,,2016_Jan_12_1122,P3,PLC_L_D2S1,NHGY,60.0199354193,
stim/posf.jpg,stim/negf.jpg,stim/5.jpg,stim/2.jpg,stim/latef.jpg,AB,2,4,,,,,,,,,0,36,36,15,,,,,,,,,,4,1,0.783051634756,,,,,,2016_Jan_12_1122,P3,PLC_L_D2S1,NHGY,60.0199354193,
stim/posf.jpg,stim/negf.jpg,stim/3.jpg,stim/4.jpg,stim/latef.jpg,CD,2,4,,,,,,,,,0,37,37,34,,,,,,,,,,4,1,0.74979449104,,,,,,2016_Jan_12_1122,P3,PLC_L_D2S1,NHGY,60.0199354193,
stim/posf.jpg,stim/negf.jpg,stim/4.jpg,stim/3.jpg,stim/latef.jpg,CD,1,2,,,,,,,,,0,38,38,26,,,,,,,,,,4,0,0.58315967865,,,,,,2016_Jan_12_1122,P3,PLC_L_D2S1,NHGY,60.0199354193,
stim/posf.jpg,stim/negf.jpg,stim/2.jpg,stim/5.jpg,stim/latef.jpg,AB,1,2,,,,,,,,,0,39,39,5,,,,,,,,,,2,1,0.566440294282,,,,,,2016_Jan_12_1122,P3,PLC_L_D2S1,NHGY,60.0199354193,
stim/negf.jpg,stim/posf.jpg,stim/6.jpg,stim/1.jpg,stim/latef.jpg,EF,2,4,,,,,,,,,0,40,40,56,,,,,,,,,,4,1,0.699787912166,,,,,,2016_Jan_12_1122,P3,PLC_L_D2S1,NHGY,60.0199354193,
stim/negf.jpg,stim/posf.jpg,stim/1.jpg,stim/6.jpg,stim/latef.jpg,EF,1,2,,,,,,,,,0,41,41,49,,,,,,,,,,2,1,0.933027603448,,,,,,2016_Jan_12_1122,P3,PLC_L_D2S1,NHGY,60.0199354193,
stim/negf.jpg,stim/posf.jpg,stim/4.jpg,stim/3.jpg,stim/latef.jpg,CD,1,2,,,,,,,,,0,42,42,28,,,,,,,,,,4,0,1.11629071251,,,,,,2016_Jan_12_1122,P3,PLC_L_D2S1,NHGY,60.0199354193,
stim/negf.jpg,stim/posf.jpg,stim/1.jpg,stim/6.jpg,stim/latef.jpg,EF,1,2,,,,,,,,,0,43,43,48,,,,,,,,,,2,1,0.766422877937,,,,,,2016_Jan_12_1122,P3,PLC_L_D2S1,NHGY,60.0199354193,
stim/posf.jpg,stim/negf.jpg,stim/5.jpg,stim/2.jpg,stim/latef.jpg,AB,2,4,,,,,,,,,0,44,44,11,,,,,,,,,,4,1,0.733077037477,,,,,,2016_Jan_12_1122,P3,PLC_L_D2S1,NHGY,60.0199354193,
stim/posf.jpg,stim/negf.jpg,stim/2.jpg,stim/5.jpg,stim/latef.jpg,AB,1,2,,,,,,,,,0,45,45,0,,,,,,,,,,2,1,0.949688943358,,,,,,2016_Jan_12_1122,P3,PLC_L_D2S1,NHGY,60.0199354193,
stim/posf.jpg,stim/negf.jpg,stim/3.jpg,stim/4.jpg,stim/latef.jpg,CD,2,4,,,,,,,,,0,46,46,33,,,,,,,,,,4,1,1.19958379417,,,,,,2016_Jan_12_1122,P3,PLC_L_D2S1,NHGY,60.0199354193,
stim/posf.jpg,stim/negf.jpg,stim/5.jpg,stim/2.jpg,stim/latef.jpg,AB,2,4,,,,,,,,,0,47,47,13,,,,,,,,,,4,1,0.933056373048,,,,,,2016_Jan_12_1122,P3,PLC_L_D2S1,NHGY,60.0199354193,
stim/posf.jpg,stim/negf.jpg,stim/3.jpg,stim/4.jpg,stim/latef.jpg,CD,2,4,,,,,,,,,0,48,48,32,,,,,,,,,,4,1,1.34959593388,,,,,,2016_Jan_12_1122,P3,PLC_L_D2S1,NHGY,60.0199354193,
stim/posf.jpg,stim/negf.jpg,stim/3.jpg,stim/4.jpg,stim/latef.jpg,CD,2,4,,,,,,,,,0,49,49,30,,,,,,,,,,4,1,0.633111361903,,,,,,2016_Jan_12_1122,P3,PLC_L_D2S1,NHGY,60.0199354193,
stim/posf.jpg,stim/negf.jpg,stim/2.jpg,stim/5.jpg,stim/latef.jpg,AB,1,2,,,,,,,,,0,50,50,2,,,,,,,,,,2,1,0.916375869445,,,,,,2016_Jan_12_1122,P3,PLC_L_D2S1,NHGY,60.0199354193,
stim/posf.jpg,stim/negf.jpg,stim/2.jpg,stim/5.jpg,stim/latef.jpg,AB,1,2,,,,,,,,,0,51,51,4,,,,,,,,,,2,1,0.683078527686,,,,,,2016_Jan_12_1122,P3,PLC_L_D2S1,NHGY,60.0199354193,
stim/negf.jpg,stim/posf.jpg,stim/2.jpg,stim/5.jpg,stim/latef.jpg,AB,1,2,,,,,,,,,0,52,52,9,,,,,,,,,,2,1,0.549800878937,,,,,,2016_Jan_12_1122,P3,PLC_L_D2S1,NHGY,60.0199354193,
stim/posf.jpg,stim/negf.jpg,stim/5.jpg,stim/2.jpg,stim/latef.jpg,AB,2,4,,,,,,,,,0,53,53,12,,,,,,,,,,4,1,0.933043795747,,,,,,2016_Jan_12_1122,P3,PLC_L_D2S1,NHGY,60.0199354193,
stim/negf.jpg,stim/posf.jpg,stim/5.jpg,stim/2.jpg,stim/latef.jpg,AB,2,4,,,,,,,,,0,54,54,19,,,,,,,,,,4,1,0.666444778442,,,,,,2016_Jan_12_1122,P3,PLC_L_D2S1,NHGY,60.0199354193,
stim/posf.jpg,stim/negf.jpg,stim/1.jpg,stim/6.jpg,stim/latef.jpg,EF,1,2,,,,,,,,,0,55,55,42,,,,,,,,,,2,1,0.866380225787,,,,,,2016_Jan_12_1122,P3,PLC_L_D2S1,NHGY,60.0199354193,
stim/posf.jpg,stim/negf.jpg,stim/4.jpg,stim/3.jpg,stim/latef.jpg,CD,1,2,,,,,,,,,0,56,56,20,,,,,,,,,,2,1,1.66614985545,,,,,,2016_Jan_12_1122,P3,PLC_L_D2S1,NHGY,60.0199354193,
stim/posf.jpg,stim/negf.jpg,stim/1.jpg,stim/6.jpg,stim/latef.jpg,EF,1,2,,,,,,,,,0,57,57,43,,,,,,,,,,2,1,0.73305409939,,,,,,2016_Jan_12_1122,P3,PLC_L_D2S1,NHGY,60.0199354193,
stim/posf.jpg,stim/negf.jpg,stim/5.jpg,stim/2.jpg,stim/latef.jpg,AB,2,4,,,,,,,,,0,58,58,17,,,,,,,,,,4,1,0.933016899809,,,,,,2016_Jan_12_1122,P3,PLC_L_D2S1,NHGY,60.0199354193,
stim/negf.jpg,stim/posf.jpg,stim/6.jpg,stim/1.jpg,stim/latef.jpg,EF,2,4,,,,,,,,,0,59,59,59,,,,,,,,,,4,1,0.649798045887,,,,,,2016_Jan_12_1122,P3,PLC_L_D2S1,NHGY,60.0199354193,
,,,,,,,,,,,,,,,,,,,,,,,,,,,,,,,,0.9984375,0.525390625,1,0,0,2016_Jan_12_1122,P3,PLC_L_D2S1,NHGY,60.0199354193,
stim/posf.jpg,stim/negf.jpg,stim/4.jpg,stim/3.jpg,stim/latef.jpg,CD,1,2,,,,,,,,,,,,,0,0,0,26,,,,,,4,0,0.83306811427,,,,,,2016_Jan_12_1122,P3,PLC_L_D2S1,NHGY,60.0199354193,
stim/posf.jpg,stim/negf.jpg,stim/5.jpg,stim/2.jpg,stim/latef.jpg,AB,2,4,,,,,,,,,,,,,0,1,1,15,,,,,,4,1,0.749744431454,,,,,,2016_Jan_12_1122,P3,PLC_L_D2S1,NHGY,60.0199354193,
stim/posf.jpg,stim/negf.jpg,stim/1.jpg,stim/6.jpg,stim/latef.jpg,EF,1,2,,,,,,,,,,,,,0,2,2,44,,,,,,2,1,0.683101162017,,,,,,2016_Jan_12_1122,P3,PLC_L_D2S1,NHGY,60.0199354193,
stim/posf.jpg,stim/negf.jpg,stim/4.jpg,stim/3.jpg,stim/latef.jpg,CD,1,2,,,,,,,,,,,,,0,3,3,24,,,,,,2,1,0.833019284745,,,,,,2016_Jan_12_1122,P3,PLC_L_D2S1,NHGY,60.0199354193,
stim/negf.jpg,stim/posf.jpg,stim/4.jpg,stim/3.jpg,stim/latef.jpg,CD,1,2,,,,,,,,,,,,,0,4,4,29,,,,,,2,1,0.899670554091,,,,,,2016_Jan_12_1122,P3,PLC_L_D2S1,NHGY,60.0199354193,
stim/posf.jpg,stim/negf.jpg,stim/3.jpg,stim/4.jpg,stim/latef.jpg,CD,2,4,,,,,,,,,,,,,0,5,5,32,,,,,,4,1,0.966369074034,,,,,,2016_Jan_12_1122,P3,PLC_L_D2S1,NHGY,60.0199354193,
stim/negf.jpg,stim/posf.jpg,stim/4.jpg,stim/3.jpg,stim/latef.jpg,CD,1,2,,,,,,,,,,,,,0,6,6,27,,,,,,2,1,0.816379703988,,,,,,2016_Jan_12_1122,P3,PLC_L_D2S1,NHGY,60.0199354193,
stim/negf.jpg,stim/posf.jpg,stim/1.jpg,stim/6.jpg,stim/latef.jpg,EF,1,2,,,,,,,,,,,,,0,7,7,47,,,,,,2,1,1.39953214362,,,,,,2016_Jan_12_1122,P3,PLC_L_D2S1,NHGY,60.0199354193,
stim/posf.jpg,stim/negf.jpg,stim/4.jpg,stim/3.jpg,stim/latef.jpg,CD,1,2,,,,,,,,,,,,,0,8,8,25,,,,,,4,0,1.24957905287,,,,,,2016_Jan_12_1122,P3,PLC_L_D2S1,NHGY,60.0199354193,
stim/negf.jpg,stim/posf.jpg,stim/4.jpg,stim/3.jpg,stim/latef.jpg,CD,1,2,,,,,,,,,,,,,0,9,9,28,,,,,,2,1,0.683144770547,,,,,,2016_Jan_12_1122,P3,PLC_L_D2S1,NHGY,60.0199354193,
stim/negf.jpg,stim/posf.jpg,stim/1.jpg,stim/6.jpg,stim/latef.jpg,EF,1,2,,,,,,,,,,,,,0,10,10,48,,,,,,2,1,0.832994614347,,,,,,2016_Jan_12_1122,P3,PLC_L_D2S1,NHGY,60.0199354193,
stim/posf.jpg,stim/negf.jpg,stim/3.jpg,stim/4.jpg,stim/latef.jpg,CD,2,4,,,,,,,,,,,,,0,11,11,31,,,,,,4,1,0.833047804724,,,,,,2016_Jan_12_1122,P3,PLC_L_D2S1,NHGY,60.0199354193,
stim/posf.jpg,stim/negf.jpg,stim/6.jpg,stim/1.jpg,stim/latef.jpg,EF,2,4,,,,,,,,,,,,,0,12,12,52,,,,,,4,1,0.74975909595,,,,,,2016_Jan_12_1122,P3,PLC_L_D2S1,NHGY,60.0199354193,
stim/posf.jpg,stim/negf.jpg,stim/6.jpg,stim/1.jpg,stim/latef.jpg,EF,2,4,,,,,,,,,,,,,0,13,13,50,,,,,,4,1,0.599795614336,,,,,,2016_Jan_12_1122,P3,PLC_L_D2S1,NHGY,60.0199354193,
stim/posf.jpg,stim/negf.jpg,stim/5.jpg,stim/2.jpg,stim/latef.jpg,AB,2,4,,,,,,,,,,,,,0,14,14,11,,,,,,4,1,1.03299939324,,,,,,2016_Jan_12_1122,P3,PLC_L_D2S1,NHGY,60.0199354193,
stim/posf.jpg,stim/negf.jpg,stim/2.jpg,stim/5.jpg,stim/latef.jpg,AB,1,2,,,,,,,,,,,,,0,15,15,5,,,,,,2,1,0.666440838637,,,,,,2016_Jan_12_1122,P3,PLC_L_D2S1,NHGY,60.0199354193,
stim/posf.jpg,stim/negf.jpg,stim/5.jpg,stim/2.jpg,stim/latef.jpg,AB,2,4,,,,,,,,,,,,,0,16,16,13,,,,,,4,1,0.949680958485,,,,,,2016_Jan_12_1122,P3,PLC_L_D2S1,NHGY,60.0199354193,
stim/posf.jpg,stim/negf.jpg,stim/2.jpg,stim/5.jpg,stim/latef.jpg,AB,1,2,,,,,,,,,,,,,0,17,17,4,,,,,,2,1,0.699677546494,,,,,,2016_Jan_12_1122,P3,PLC_L_D2S1,NHGY,60.0199354193,
stim/posf.jpg,stim/negf.jpg,stim/1.jpg,stim/6.jpg,stim/latef.jpg,EF,1,2,,,,,,,,,,,,,0,18,18,43,,,,,,2,1,0.783077463037,,,,,,2016_Jan_12_1122,P3,PLC_L_D2S1,NHGY,60.0199354193,
stim/posf.jpg,stim/negf.jpg,stim/3.jpg,stim/4.jpg,stim/latef.jpg,CD,2,4,,,,,,,,,,,,,0,19,19,34,,,,,,4,1,0.96635519449,,,,,,2016_Jan_12_1122,P3,PLC_L_D2S1,NHGY,60.0199354193,
stim/posf.jpg,stim/negf.jpg,stim/1.jpg,stim/6.jpg,stim/latef.jpg,EF,1,2,,,,,,,,,,,,,0,20,20,45,,,,,,2,1,0.633096592144,,,,,,2016_Jan_12_1122,P3,PLC_L_D2S1,NHGY,60.0199354193,
stim/posf.jpg,stim/negf.jpg,stim/4.jpg,stim/3.jpg,stim/latef.jpg,CD,1,2,,,,,,,,,,,,,0,21,21,23,,,,,,2,1,0.783065195506,,,,,,2016_Jan_12_1122,P3,PLC_L_D2S1,NHGY,60.0199354193,
stim/negf.jpg,stim/posf.jpg,stim/3.jpg,stim/4.jpg,stim/latef.jpg,CD,2,4,,,,,,,,,,,,,0,22,22,37,,,,,,4,1,0.799831159798,,,,,,2016_Jan_12_1122,P3,PLC_L_D2S1,NHGY,60.0199354193,
stim/negf.jpg,stim/posf.jpg,stim/3.jpg,stim/4.jpg,stim/latef.jpg,CD,2,4,,,,,,,,,,,,,0,23,23,38,,,,,,4,1,0.649789805379,,,,,,2016_Jan_12_1122,P3,PLC_L_D2S1,NHGY,60.0199354193,
stim/posf.jpg,stim/negf.jpg,stim/1.jpg,stim/6.jpg,stim/latef.jpg,EF,1,2,,,,,,,,,,,,,0,24,24,40,,,,,,2,1,0.566486191509,,,,,,2016_Jan_12_1122,P3,PLC_L_D2S1,NHGY,60.0199354193,
stim/posf.jpg,stim/negf.jpg,stim/5.jpg,stim/2.jpg,stim/latef.jpg,AB,2,4,,,,,,,,,,,,,0,25,25,12,,,,,,4,1,0.649778205509,,,,,,2016_Jan_12_1122,P3,PLC_L_D2S1,NHGY,60.0199354193,
stim/negf.jpg,stim/posf.jpg,stim/1.jpg,stim/6.jpg,stim/latef.jpg,EF,1,2,,,,,,,,,,,,,0,26,26,49,,,,,,2,1,0.599807352549,,,,,,2016_Jan_12_1122,P3,PLC_L_D2S1,NHGY,60.0199354193,
stim/negf.jpg,stim/posf.jpg,stim/6.jpg,stim/1.jpg,stim/latef.jpg,EF,2,4,,,,,,,,,,,,,0,27,27,59,,,,,,4,1,0.649801083447,,,,,,2016_Jan_12_1122,P3,PLC_L_D2S1,NHGY,60.0199354193,
stim/posf.jpg,stim/negf.jpg,stim/2.jpg,stim/5.jpg,stim/latef.jpg,AB,1,2,,,,,,,,,,,,,0,28,28,2,,,,,,2,1,0.649785829483,,,,,,2016_Jan_12_1122,P3,PLC_L_D2S1,NHGY,60.0199354193,
stim/posf.jpg,stim/negf.jpg,stim/6.jpg,stim/1.jpg,stim/latef.jpg,EF,2,4,,,,,,,,,,,,,0,29,29,54,,,,,,4,1,0.549813823152,,,,,,2016_Jan_12_1122,P3,PLC_L_D2S1,NHGY,60.0199354193,
stim/negf.jpg,stim/posf.jpg,stim/2.jpg,stim/5.jpg,stim/latef.jpg,AB,1,2,,,,,,,,,,,,,0,30,30,8,,,,,,2,1,0.533150567474,,,,,,2016_Jan_12_1122,P3,PLC_L_D2S1,NHGY,60.0199354193,
stim/posf.jpg,stim/negf.jpg,stim/4.jpg,stim/3.jpg,stim/latef.jpg,CD,1,2,,,,,,,,,,,,,0,31,31,22,,,,,,2,1,0.932986488123,,,,,,2016_Jan_12_1122,P3,PLC_L_D2S1,NHGY,60.0199354193,
stim/posf.jpg,stim/negf.jpg,stim/5.jpg,stim/2.jpg,stim/latef.jpg,AB,2,4,,,,,,,,,,,,,0,32,32,17,,,,,,4,1,0.933040535633,,,,,,2016_Jan_12_1122,P3,PLC_L_D2S1,NHGY,60.0199354193,
stim/posf.jpg,stim/negf.jpg,stim/1.jpg,stim/6.jpg,stim/latef.jpg,EF,1,2,,,,,,,,,,,,,0,33,33,42,,,,,,2,1,0.699778011526,,,,,,2016_Jan_12_1122,P3,PLC_L_D2S1,NHGY,60.0199354193,
stim/posf.jpg,stim/negf.jpg,stim/6.jpg,stim/1.jpg,stim/latef.jpg,EF,2,4,,,,,,,,,,,,,0,34,34,55,,,,,,4,1,0.916290111014,,,,,,2016_Jan_12_1122,P3,PLC_L_D2S1,NHGY,60.0199354193,
stim/negf.jpg,stim/posf.jpg,stim/5.jpg,stim/2.jpg,stim/latef.jpg,AB,2,4,,,,,,,,,,,,,0,35,35,18,,,,,,4,1,1.34954283373,,,,,,2016_Jan_12_1122,P3,PLC_L_D2S1,NHGY,60.0199354193,
stim/posf.jpg,stim/negf.jpg,stim/2.jpg,stim/5.jpg,stim/latef.jpg,AB,1,2,,,,,,,,,,,,,0,36,36,0,,,,,,2,1,0.599791205363,,,,,,2016_Jan_12_1122,P3,PLC_L_D2S1,NHGY,60.0199354193,
stim/negf.jpg,stim/posf.jpg,stim/1.jpg,stim/6.jpg,stim/latef.jpg,EF,1,2,,,,,,,,,,,,,0,37,37,46,,,,,,2,1,0.916344281832,,,,,,2016_Jan_12_1122,P3,PLC_L_D2S1,NHGY,60.0199354193,
stim/negf.jpg,stim/posf.jpg,stim/6.jpg,stim/1.jpg,stim/latef.jpg,EF,2,4,,,,,,,,,,,,,0,38,38,56,,,,,,4,1,0.816313367895,,,,,,2016_Jan_12_1122,P3,PLC_L_D2S1,NHGY,60.0199354193,
stim/posf.jpg,stim/negf.jpg,stim/2.jpg,stim/5.jpg,stim/latef.jpg,AB,1,2,,,,,,,,,,,,,0,39,39,7,,,,,,2,1,0.533196891764,,,,,,2016_Jan_12_1122,P3,PLC_L_D2S1,NHGY,60.0199354193,
stim/posf.jpg,stim/negf.jpg,stim/2.jpg,stim/5.jpg,stim/latef.jpg,AB,1,2,,,,,,,,,,,,,0,40,40,1,,,,,,2,1,0.499835364262,,,,,,2016_Jan_12_1122,P3,PLC_L_D2S1,NHGY,60.0199354193,
stim/posf.jpg,stim/negf.jpg,stim/2.jpg,stim/5.jpg,stim/latef.jpg,AB,1,2,,,,,,,,,,,,,0,41,41,3,,,,,,2,1,0.499952689255,,,,,,2016_Jan_12_1122,P3,PLC_L_D2S1,NHGY,60.0199354193,
stim/posf.jpg,stim/negf.jpg,stim/3.jpg,stim/4.jpg,stim/latef.jpg,CD,2,4,,,,,,,,,,,,,0,42,42,35,,,,,,2,0,0.533154038112,,,,,,2016_Jan_12_1122,P3,PLC_L_D2S1,NHGY,60.0199354193,
stim/posf.jpg,stim/negf.jpg,stim/4.jpg,stim/3.jpg,stim/latef.jpg,CD,1,2,,,,,,,,,,,,,0,43,43,21,,,,,,2,1,0.883102662752,,,,,,2016_Jan_12_1122,P3,PLC_L_D2S1,NHGY,60.0199354193,
stim/negf.jpg,stim/posf.jpg,stim/2.jpg,stim/5.jpg,stim/latef.jpg,AB,1,2,,,,,,,,,,,,,0,44,44,9,,,,,,2,1,0.566493433533,,,,,,2016_Jan_12_1122,P3,PLC_L_D2S1,NHGY,60.0199354193,
stim/negf.jpg,stim/posf.jpg,stim/5.jpg,stim/2.jpg,stim/latef.jpg,AB,2,4,,,,,,,,,,,,,0,45,45,19,,,,,,4,1,0.816332483469,,,,,,2016_Jan_12_1122,P3,PLC_L_D2S1,NHGY,60.0199354193,
stim/negf.jpg,stim/posf.jpg,stim/6.jpg,stim/1.jpg,stim/latef.jpg,EF,2,4,,,,,,,,,,,,,0,46,46,58,,,,,,4,1,0.666362616963,,,,,,2016_Jan_12_1122,P3,PLC_L_D2S1,NHGY,60.0199354193,
stim/posf.jpg,stim/negf.jpg,stim/5.jpg,stim/2.jpg,stim/latef.jpg,AB,2,4,,,,,,,,,,,,,0,47,47,16,,,,,,4,1,0.933020226088,,,,,,2016_Jan_12_1122,P3,PLC_L_D2S1,NHGY,60.0199354193,
stim/posf.jpg,stim/negf.jpg,stim/2.jpg,stim/5.jpg,stim/latef.jpg,AB,1,2,,,,,,,,,,,,,0,48,48,6,,,,,,2,1,0.599795668471,,,,,,2016_Jan_12_1122,P3,PLC_L_D2S1,NHGY,60.0199354193,
stim/posf.jpg,stim/negf.jpg,stim/1.jpg,stim/6.jpg,stim/latef.jpg,EF,1,2,,,,,,,,,,,,,0,49,49,41,,,,,,2,1,0.566450246049,,,,,,2016_Jan_12_1122,P3,PLC_L_D2S1,NHGY,60.0199354193,
stim/posf.jpg,stim/negf.jpg,stim/4.jpg,stim/3.jpg,stim/latef.jpg,CD,1,2,,,,,,,,,,,,,0,50,50,20,,,,,,2,1,0.882995009831,,,,,,2016_Jan_12_1122,P3,PLC_L_D2S1,NHGY,60.0199354193,
stim/posf.jpg,stim/negf.jpg,stim/3.jpg,stim/4.jpg,stim/latef.jpg,CD,2,4,,,,,,,,,,,,,0,51,51,30,,,,,,2,0,0.949642739368,,,,,,2016_Jan_12_1122,P3,PLC_L_D2S1,NHGY,60.0199354193,
stim/posf.jpg,stim/negf.jpg,stim/6.jpg,stim/1.jpg,stim/latef.jpg,EF,2,4,,,,,,,,,,,,,0,52,52,51,,,,,,4,1,0.699751912573,,,,,,2016_Jan_12_1122,P3,PLC_L_D2S1,NHGY,60.0199354193,
stim/posf.jpg,stim/negf.jpg,stim/5.jpg,stim/2.jpg,stim/latef.jpg,AB,2,4,,,,,,,,,,,,,0,53,53,14,,,,,,4,1,0.74970694917,,,,,,2016_Jan_12_1122,P3,PLC_L_D2S1,NHGY,60.0199354193,
stim/negf.jpg,stim/posf.jpg,stim/3.jpg,stim/4.jpg,stim/latef.jpg,CD,2,4,,,,,,,,,,,,,0,54,54,39,,,,,,4,1,0.93301685169,,,,,,2016_Jan_12_1122,P3,PLC_L_D2S1,NHGY,60.0199354193,
stim/posf.jpg,stim/negf.jpg,stim/3.jpg,stim/4.jpg,stim/latef.jpg,CD,2,4,,,,,,,,,,,,,0,55,55,36,,,,,,4,1,0.51654780134,,,,,,2016_Jan_12_1122,P3,PLC_L_D2S1,NHGY,60.0199354193,
stim/posf.jpg,stim/negf.jpg,stim/6.jpg,stim/1.jpg,stim/latef.jpg,EF,2,4,,,,,,,,,,,,,0,56,56,53,,,,,,4,1,0.74974650361,,,,,,2016_Jan_12_1122,P3,PLC_L_D2S1,NHGY,60.0199354193,
stim/negf.jpg,stim/posf.jpg,stim/6.jpg,stim/1.jpg,stim/latef.jpg,EF,2,4,,,,,,,,,,,,,0,57,57,57,,,,,,4,1,0.633125367759,,,,,,2016_Jan_12_1122,P3,PLC_L_D2S1,NHGY,60.0199354193,
stim/posf.jpg,stim/negf.jpg,stim/5.jpg,stim/2.jpg,stim/latef.jpg,AB,2,4,,,,,,,,,,,,,0,58,58,10,,,,,,4,1,0.74974084954,,,,,,2016_Jan_12_1122,P3,PLC_L_D2S1,NHGY,60.0199354193,
stim/posf.jpg,stim/negf.jpg,stim/3.jpg,stim/4.jpg,stim/latef.jpg,CD,2,4,,,,,,,,,,,,,0,59,59,33,,,,,,2,0,1.09961421788,,,,,,2016_Jan_12_1122,P3,PLC_L_D2S1,NHGY,60.0199354193,
