fb_corr,fb_incorr,symbol2,symbol1,fb_late,pair,position,correct,block_01.thisRepN,block_01.thisTrialN,block_01.thisN,block_01.thisIndex,block_02.thisRepN,block_02.thisTrialN,block_02.thisN,block_02.thisIndex,block_03.thisRepN,block_03.thisTrialN,block_03.thisN,block_03.thisIndex,block_04.thisRepN,block_04.thisTrialN,block_04.thisN,block_04.thisIndex,mouse.x,mouse.y,mouse.leftButton,mouse.midButton,mouse.rightButton,buttonBox_2.keys,buttonBox_2.corr,buttonBox_2.rt,mouse_2.x,mouse_2.y,mouse_2.leftButton,mouse_2.midButton,mouse_2.rightButton,date,Participant,expName,Group,frameRate,
,,,,,,,,,,,,,,,,,,,,,,,,0.9984375,1.0,1,0,0,,,,,,,,,2016_Okt_06_1428,P6,PLC_L_D2S1,NHGY,60.0218420097,
stim/negf.jpg,stim/posf.jpg,stim/4.jpg,stim/5.jpg,stim/latef.jpg,CD,1,2,0,0,0,29,,,,,,,,,,,,,,,,,,4,0,1.0496839332,,,,,,2016_Okt_06_1428,P6,PLC_L_D2S1,NHGY,60.0218420097,
stim/negf.jpg,stim/posf.jpg,stim/2.jpg,stim/6.jpg,stim/latef.jpg,EF,2,4,0,1,1,58,,,,,,,,,,,,,,,,,,2,0,0.649780449771,,,,,,2016_Okt_06_1428,P6,PLC_L_D2S1,NHGY,60.0218420097,
stim/negf.jpg,stim/posf.jpg,stim/1.jpg,stim/3.jpg,stim/latef.jpg,AB,2,4,0,2,2,18,,,,,,,,,,,,,,,,,,2,0,0.816391551943,,,,,,2016_Okt_06_1428,P6,PLC_L_D2S1,NHGY,60.0218420097,
stim/posf.jpg,stim/negf.jpg,stim/1.jpg,stim/3.jpg,stim/latef.jpg,AB,2,4,0,3,3,11,,,,,,,,,,,,,,,,,,4,1,1.09957454154,,,,,,2016_Okt_06_1428,P6,PLC_L_D2S1,NHGY,60.0218420097,
stim/posf.jpg,stim/negf.jpg,stim/4.jpg,stim/5.jpg,stim/latef.jpg,CD,1,2,0,4,4,23,,,,,,,,,,,,,,,,,,None,0,,,,,,,2016_Okt_06_1428,P6,PLC_L_D2S1,NHGY,60.0218420097,
stim/posf.jpg,stim/negf.jpg,stim/1.jpg,stim/3.jpg,stim/latef.jpg,AB,2,4,0,5,5,10,,,,,,,,,,,,,,,,,,4,1,1.14963495613,,,,,,2016_Okt_06_1428,P6,PLC_L_D2S1,NHGY,60.0218420097,
stim/posf.jpg,stim/negf.jpg,stim/5.jpg,stim/4.jpg,stim/latef.jpg,CD,2,4,0,6,6,34,,,,,,,,,,,,,,,,,,2,0,1.01632714341,,,,,,2016_Okt_06_1428,P6,PLC_L_D2S1,NHGY,60.0218420097,
stim/negf.jpg,stim/posf.jpg,stim/2.jpg,stim/6.jpg,stim/latef.jpg,EF,2,4,0,7,7,59,,,,,,,,,,,,,,,,,,2,0,0.883053555988,,,,,,2016_Okt_06_1428,P6,PLC_L_D2S1,NHGY,60.0218420097,
stim/posf.jpg,stim/negf.jpg,stim/5.jpg,stim/4.jpg,stim/latef.jpg,CD,2,4,0,8,8,32,,,,,,,,,,,,,,,,,,4,1,0.949644703423,,,,,,2016_Okt_06_1428,P6,PLC_L_D2S1,NHGY,60.0218420097,
stim/posf.jpg,stim/negf.jpg,stim/6.jpg,stim/2.jpg,stim/latef.jpg,EF,1,2,0,9,9,43,,,,,,,,,,,,,,,,,,2,1,1.61612507274,,,,,,2016_Okt_06_1428,P6,PLC_L_D2S1,NHGY,60.0218420097,
stim/negf.jpg,stim/posf.jpg,stim/6.jpg,stim/2.jpg,stim/latef.jpg,EF,1,2,0,10,10,46,,,,,,,,,,,,,,,,,,2,1,0.833000455636,,,,,,2016_Okt_06_1428,P6,PLC_L_D2S1,NHGY,60.0218420097,
stim/posf.jpg,stim/negf.jpg,stim/3.jpg,stim/1.jpg,stim/latef.jpg,AB,1,2,0,11,11,7,,,,,,,,,,,,,,,,,,2,1,1.33286943406,,,,,,2016_Okt_06_1428,P6,PLC_L_D2S1,NHGY,60.0218420097,
stim/posf.jpg,stim/negf.jpg,stim/3.jpg,stim/1.jpg,stim/latef.jpg,AB,1,2,0,12,12,0,,,,,,,,,,,,,,,,,,4,0,0.716422929151,,,,,,2016_Okt_06_1428,P6,PLC_L_D2S1,NHGY,60.0218420097,
stim/posf.jpg,stim/negf.jpg,stim/4.jpg,stim/5.jpg,stim/latef.jpg,CD,1,2,0,13,13,20,,,,,,,,,,,,,,,,,,2,1,1.1496026075,,,,,,2016_Okt_06_1428,P6,PLC_L_D2S1,NHGY,60.0218420097,
stim/posf.jpg,stim/negf.jpg,stim/3.jpg,stim/1.jpg,stim/latef.jpg,AB,1,2,0,14,14,3,,,,,,,,,,,,,,,,,,4,0,1.08299284667,,,,,,2016_Okt_06_1428,P6,PLC_L_D2S1,NHGY,60.0218420097,
stim/negf.jpg,stim/posf.jpg,stim/3.jpg,stim/1.jpg,stim/latef.jpg,AB,1,2,0,15,15,9,,,,,,,,,,,,,,,,,,2,1,0.583164039368,,,,,,2016_Okt_06_1428,P6,PLC_L_D2S1,NHGY,60.0218420097,
stim/posf.jpg,stim/negf.jpg,stim/1.jpg,stim/3.jpg,stim/latef.jpg,AB,2,4,0,16,16,13,,,,,,,,,,,,,,,,,,4,1,0.749767992722,,,,,,2016_Okt_06_1428,P6,PLC_L_D2S1,NHGY,60.0218420097,
stim/posf.jpg,stim/negf.jpg,stim/2.jpg,stim/6.jpg,stim/latef.jpg,EF,2,4,0,17,17,54,,,,,,,,,,,,,,,,,,4,1,1.04958883317,,,,,,2016_Okt_06_1428,P6,PLC_L_D2S1,NHGY,60.0218420097,
stim/negf.jpg,stim/posf.jpg,stim/1.jpg,stim/3.jpg,stim/latef.jpg,AB,2,4,0,18,18,19,,,,,,,,,,,,,,,,,,2,0,1.29963421929,,,,,,2016_Okt_06_1428,P6,PLC_L_D2S1,NHGY,60.0218420097,
stim/posf.jpg,stim/negf.jpg,stim/4.jpg,stim/5.jpg,stim/latef.jpg,CD,1,2,0,19,19,24,,,,,,,,,,,,,,,,,,2,1,1.49951071345,,,,,,2016_Okt_06_1428,P6,PLC_L_D2S1,NHGY,60.0218420097,
stim/posf.jpg,stim/negf.jpg,stim/5.jpg,stim/4.jpg,stim/latef.jpg,CD,2,4,0,20,20,31,,,,,,,,,,,,,,,,,,2,0,0.932998151894,,,,,,2016_Okt_06_1428,P6,PLC_L_D2S1,NHGY,60.0218420097,
stim/posf.jpg,stim/negf.jpg,stim/3.jpg,stim/1.jpg,stim/latef.jpg,AB,1,2,0,21,21,5,,,,,,,,,,,,,,,,,,4,0,0.983000539846,,,,,,2016_Okt_06_1428,P6,PLC_L_D2S1,NHGY,60.0218420097,
stim/posf.jpg,stim/negf.jpg,stim/5.jpg,stim/4.jpg,stim/latef.jpg,CD,2,4,0,22,22,35,,,,,,,,,,,,,,,,,,2,0,1.19949574514,,,,,,2016_Okt_06_1428,P6,PLC_L_D2S1,NHGY,60.0218420097,
stim/negf.jpg,stim/posf.jpg,stim/6.jpg,stim/2.jpg,stim/latef.jpg,EF,1,2,0,23,23,47,,,,,,,,,,,,,,,,,,None,0,,,,,,,2016_Okt_06_1428,P6,PLC_L_D2S1,NHGY,60.0218420097,
stim/posf.jpg,stim/negf.jpg,stim/5.jpg,stim/4.jpg,stim/latef.jpg,CD,2,4,0,24,24,36,,,,,,,,,,,,,,,,,,4,1,0.966338538808,,,,,,2016_Okt_06_1428,P6,PLC_L_D2S1,NHGY,60.0218420097,
stim/posf.jpg,stim/negf.jpg,stim/6.jpg,stim/2.jpg,stim/latef.jpg,EF,1,2,0,25,25,40,,,,,,,,,,,,,,,,,,4,0,1.23292333742,,,,,,2016_Okt_06_1428,P6,PLC_L_D2S1,NHGY,60.0218420097,
stim/posf.jpg,stim/negf.jpg,stim/2.jpg,stim/6.jpg,stim/latef.jpg,EF,2,4,0,26,26,51,,,,,,,,,,,,,,,,,,4,1,0.983015848001,,,,,,2016_Okt_06_1428,P6,PLC_L_D2S1,NHGY,60.0218420097,
stim/posf.jpg,stim/negf.jpg,stim/2.jpg,stim/6.jpg,stim/latef.jpg,EF,2,4,0,27,27,55,,,,,,,,,,,,,,,,,,4,1,0.583138475651,,,,,,2016_Okt_06_1428,P6,PLC_L_D2S1,NHGY,60.0218420097,
stim/posf.jpg,stim/negf.jpg,stim/5.jpg,stim/4.jpg,stim/latef.jpg,CD,2,4,0,28,28,33,,,,,,,,,,,,,,,,,,4,1,0.982990073759,,,,,,2016_Okt_06_1428,P6,PLC_L_D2S1,NHGY,60.0218420097,
stim/negf.jpg,stim/posf.jpg,stim/4.jpg,stim/5.jpg,stim/latef.jpg,CD,1,2,0,29,29,28,,,,,,,,,,,,,,,,,,2,1,1.14959931429,,,,,,2016_Okt_06_1428,P6,PLC_L_D2S1,NHGY,60.0218420097,
stim/negf.jpg,stim/posf.jpg,stim/2.jpg,stim/6.jpg,stim/latef.jpg,EF,2,4,0,30,30,56,,,,,,,,,,,,,,,,,,4,1,1.19954351321,,,,,,2016_Okt_06_1428,P6,PLC_L_D2S1,NHGY,60.0218420097,
stim/posf.jpg,stim/negf.jpg,stim/4.jpg,stim/5.jpg,stim/latef.jpg,CD,1,2,0,31,31,21,,,,,,,,,,,,,,,,,,2,1,1.13294783348,,,,,,2016_Okt_06_1428,P6,PLC_L_D2S1,NHGY,60.0218420097,
stim/negf.jpg,stim/posf.jpg,stim/5.jpg,stim/4.jpg,stim/latef.jpg,CD,2,4,0,32,32,37,,,,,,,,,,,,,,,,,,4,1,1.06631194953,,,,,,2016_Okt_06_1428,P6,PLC_L_D2S1,NHGY,60.0218420097,
stim/negf.jpg,stim/posf.jpg,stim/2.jpg,stim/6.jpg,stim/latef.jpg,EF,2,4,0,33,33,57,,,,,,,,,,,,,,,,,,4,1,1.24958345276,,,,,,2016_Okt_06_1428,P6,PLC_L_D2S1,NHGY,60.0218420097,
stim/posf.jpg,stim/negf.jpg,stim/6.jpg,stim/2.jpg,stim/latef.jpg,EF,1,2,0,34,34,45,,,,,,,,,,,,,,,,,,4,0,1.03300068721,,,,,,2016_Okt_06_1428,P6,PLC_L_D2S1,NHGY,60.0218420097,
stim/posf.jpg,stim/negf.jpg,stim/1.jpg,stim/3.jpg,stim/latef.jpg,AB,2,4,0,35,35,12,,,,,,,,,,,,,,,,,,4,1,1.16630435561,,,,,,2016_Okt_06_1428,P6,PLC_L_D2S1,NHGY,60.0218420097,
stim/posf.jpg,stim/negf.jpg,stim/3.jpg,stim/1.jpg,stim/latef.jpg,AB,1,2,0,36,36,4,,,,,,,,,,,,,,,,,,2,1,0.816389218126,,,,,,2016_Okt_06_1428,P6,PLC_L_D2S1,NHGY,60.0218420097,
stim/posf.jpg,stim/negf.jpg,stim/2.jpg,stim/6.jpg,stim/latef.jpg,EF,2,4,0,37,37,50,,,,,,,,,,,,,,,,,,4,1,0.883051134954,,,,,,2016_Okt_06_1428,P6,PLC_L_D2S1,NHGY,60.0218420097,
stim/posf.jpg,stim/negf.jpg,stim/1.jpg,stim/3.jpg,stim/latef.jpg,AB,2,4,0,38,38,15,,,,,,,,,,,,,,,,,,4,1,1.14962436373,,,,,,2016_Okt_06_1428,P6,PLC_L_D2S1,NHGY,60.0218420097,
stim/posf.jpg,stim/negf.jpg,stim/3.jpg,stim/1.jpg,stim/latef.jpg,AB,1,2,0,39,39,6,,,,,,,,,,,,,,,,,,2,1,0.649748233472,,,,,,2016_Okt_06_1428,P6,PLC_L_D2S1,NHGY,60.0218420097,
stim/posf.jpg,stim/negf.jpg,stim/1.jpg,stim/3.jpg,stim/latef.jpg,AB,2,4,0,40,40,16,,,,,,,,,,,,,,,,,,4,1,0.716426640401,,,,,,2016_Okt_06_1428,P6,PLC_L_D2S1,NHGY,60.0218420097,
stim/negf.jpg,stim/posf.jpg,stim/5.jpg,stim/4.jpg,stim/latef.jpg,CD,2,4,0,41,41,39,,,,,,,,,,,,,,,,,,4,1,0.966349314667,,,,,,2016_Okt_06_1428,P6,PLC_L_D2S1,NHGY,60.0218420097,
stim/posf.jpg,stim/negf.jpg,stim/6.jpg,stim/2.jpg,stim/latef.jpg,EF,1,2,0,42,42,44,,,,,,,,,,,,,,,,,,2,1,1.54948819934,,,,,,2016_Okt_06_1428,P6,PLC_L_D2S1,NHGY,60.0218420097,
stim/posf.jpg,stim/negf.jpg,stim/2.jpg,stim/6.jpg,stim/latef.jpg,EF,2,4,0,43,43,52,,,,,,,,,,,,,,,,,,4,1,0.733104373651,,,,,,2016_Okt_06_1428,P6,PLC_L_D2S1,NHGY,60.0218420097,
stim/posf.jpg,stim/negf.jpg,stim/4.jpg,stim/5.jpg,stim/latef.jpg,CD,1,2,0,44,44,26,,,,,,,,,,,,,,,,,,2,1,1.03299643762,,,,,,2016_Okt_06_1428,P6,PLC_L_D2S1,NHGY,60.0218420097,
stim/negf.jpg,stim/posf.jpg,stim/4.jpg,stim/5.jpg,stim/latef.jpg,CD,1,2,0,45,45,27,,,,,,,,,,,,,,,,,,4,0,0.849699388726,,,,,,2016_Okt_06_1428,P6,PLC_L_D2S1,NHGY,60.0218420097,
stim/posf.jpg,stim/negf.jpg,stim/3.jpg,stim/1.jpg,stim/latef.jpg,AB,1,2,0,46,46,2,,,,,,,,,,,,,,,,,,2,1,1.04959448425,,,,,,2016_Okt_06_1428,P6,PLC_L_D2S1,NHGY,60.0218420097,
stim/posf.jpg,stim/negf.jpg,stim/1.jpg,stim/3.jpg,stim/latef.jpg,AB,2,4,0,47,47,14,,,,,,,,,,,,,,,,,,4,1,0.749814774325,,,,,,2016_Okt_06_1428,P6,PLC_L_D2S1,NHGY,60.0218420097,
stim/posf.jpg,stim/negf.jpg,stim/3.jpg,stim/1.jpg,stim/latef.jpg,AB,1,2,0,48,48,1,,,,,,,,,,,,,,,,,,2,1,0.716412466072,,,,,,2016_Okt_06_1428,P6,PLC_L_D2S1,NHGY,60.0218420097,
stim/posf.jpg,stim/negf.jpg,stim/4.jpg,stim/5.jpg,stim/latef.jpg,CD,1,2,0,49,49,22,,,,,,,,,,,,,,,,,,4,0,1.08298265427,,,,,,2016_Okt_06_1428,P6,PLC_L_D2S1,NHGY,60.0218420097,
stim/posf.jpg,stim/negf.jpg,stim/1.jpg,stim/3.jpg,stim/latef.jpg,AB,2,4,0,50,50,17,,,,,,,,,,,,,,,,,,2,0,1.21625234397,,,,,,2016_Okt_06_1428,P6,PLC_L_D2S1,NHGY,60.0218420097,
stim/posf.jpg,stim/negf.jpg,stim/4.jpg,stim/5.jpg,stim/latef.jpg,CD,1,2,0,51,51,25,,,,,,,,,,,,,,,,,,4,0,1.39953976587,,,,,,2016_Okt_06_1428,P6,PLC_L_D2S1,NHGY,60.0218420097,
stim/negf.jpg,stim/posf.jpg,stim/3.jpg,stim/1.jpg,stim/latef.jpg,AB,1,2,0,52,52,8,,,,,,,,,,,,,,,,,,2,1,1.19961742543,,,,,,2016_Okt_06_1428,P6,PLC_L_D2S1,NHGY,60.0218420097,
stim/negf.jpg,stim/posf.jpg,stim/6.jpg,stim/2.jpg,stim/latef.jpg,EF,1,2,0,53,53,48,,,,,,,,,,,,,,,,,,2,1,1.39947767611,,,,,,2016_Okt_06_1428,P6,PLC_L_D2S1,NHGY,60.0218420097,
stim/negf.jpg,stim/posf.jpg,stim/6.jpg,stim/2.jpg,stim/latef.jpg,EF,1,2,0,54,54,49,,,,,,,,,,,,,,,,,,4,0,0.616459256697,,,,,,2016_Okt_06_1428,P6,PLC_L_D2S1,NHGY,60.0218420097,
stim/posf.jpg,stim/negf.jpg,stim/6.jpg,stim/2.jpg,stim/latef.jpg,EF,1,2,0,55,55,42,,,,,,,,,,,,,,,,,,4,0,0.533099877445,,,,,,2016_Okt_06_1428,P6,PLC_L_D2S1,NHGY,60.0218420097,
stim/posf.jpg,stim/negf.jpg,stim/5.jpg,stim/4.jpg,stim/latef.jpg,CD,2,4,0,56,56,30,,,,,,,,,,,,,,,,,,4,1,0.816420348719,,,,,,2016_Okt_06_1428,P6,PLC_L_D2S1,NHGY,60.0218420097,
stim/posf.jpg,stim/negf.jpg,stim/6.jpg,stim/2.jpg,stim/latef.jpg,EF,1,2,0,57,57,41,,,,,,,,,,,,,,,,,,2,1,0.91640796385,,,,,,2016_Okt_06_1428,P6,PLC_L_D2S1,NHGY,60.0218420097,
stim/negf.jpg,stim/posf.jpg,stim/5.jpg,stim/4.jpg,stim/latef.jpg,CD,2,4,0,58,58,38,,,,,,,,,,,,,,,,,,4,1,0.816401578935,,,,,,2016_Okt_06_1428,P6,PLC_L_D2S1,NHGY,60.0218420097,
stim/posf.jpg,stim/negf.jpg,stim/2.jpg,stim/6.jpg,stim/latef.jpg,EF,2,4,0,59,59,53,,,,,,,,,,,,,,,,,,4,1,1.16626077999,,,,,,2016_Okt_06_1428,P6,PLC_L_D2S1,NHGY,60.0218420097,
,,,,,,,,,,,,,,,,,,,,,,,,,,,,,,,,0.996875,0.9921875,1,0,0,2016_Okt_06_1428,P6,PLC_L_D2S1,NHGY,60.0218420097,
stim/posf.jpg,stim/negf.jpg,stim/4.jpg,stim/5.jpg,stim/latef.jpg,CD,1,2,,,,,0,0,0,26,,,,,,,,,,,,,,4,0,1.01632612687,,,,,,2016_Okt_06_1428,P6,PLC_L_D2S1,NHGY,60.0218420097,
stim/posf.jpg,stim/negf.jpg,stim/4.jpg,stim/5.jpg,stim/latef.jpg,CD,1,2,,,,,0,1,1,22,,,,,,,,,,,,,,4,0,0.733039444816,,,,,,2016_Okt_06_1428,P6,PLC_L_D2S1,NHGY,60.0218420097,
stim/posf.jpg,stim/negf.jpg,stim/3.jpg,stim/1.jpg,stim/latef.jpg,AB,1,2,,,,,0,2,2,6,,,,,,,,,,,,,,2,1,1.04965584319,,,,,,2016_Okt_06_1428,P6,PLC_L_D2S1,NHGY,60.0218420097,
stim/negf.jpg,stim/posf.jpg,stim/2.jpg,stim/6.jpg,stim/latef.jpg,EF,2,4,,,,,0,3,3,57,,,,,,,,,,,,,,2,0,1.14958929632,,,,,,2016_Okt_06_1428,P6,PLC_L_D2S1,NHGY,60.0218420097,
stim/negf.jpg,stim/posf.jpg,stim/6.jpg,stim/2.jpg,stim/latef.jpg,EF,1,2,,,,,0,4,4,47,,,,,,,,,,,,,,4,0,0.649781908407,,,,,,2016_Okt_06_1428,P6,PLC_L_D2S1,NHGY,60.0218420097,
stim/negf.jpg,stim/posf.jpg,stim/5.jpg,stim/4.jpg,stim/latef.jpg,CD,2,4,,,,,0,5,5,38,,,,,,,,,,,,,,2,0,0.999668059639,,,,,,2016_Okt_06_1428,P6,PLC_L_D2S1,NHGY,60.0218420097,
stim/posf.jpg,stim/negf.jpg,stim/6.jpg,stim/2.jpg,stim/latef.jpg,EF,1,2,,,,,0,6,6,40,,,,,,,,,,,,,,4,0,1.43286070932,,,,,,2016_Okt_06_1428,P6,PLC_L_D2S1,NHGY,60.0218420097,
stim/posf.jpg,stim/negf.jpg,stim/6.jpg,stim/2.jpg,stim/latef.jpg,EF,1,2,,,,,0,7,7,41,,,,,,,,,,,,,,4,0,0.699769316021,,,,,,2016_Okt_06_1428,P6,PLC_L_D2S1,NHGY,60.0218420097,
stim/negf.jpg,stim/posf.jpg,stim/2.jpg,stim/6.jpg,stim/latef.jpg,EF,2,4,,,,,0,8,8,59,,,,,,,,,,,,,,4,1,0.749688116631,,,,,,2016_Okt_06_1428,P6,PLC_L_D2S1,NHGY,60.0218420097,
stim/posf.jpg,stim/negf.jpg,stim/5.jpg,stim/4.jpg,stim/latef.jpg,CD,2,4,,,,,0,9,9,34,,,,,,,,,,,,,,4,1,1.16626019955,,,,,,2016_Okt_06_1428,P6,PLC_L_D2S1,NHGY,60.0218420097,
stim/posf.jpg,stim/negf.jpg,stim/5.jpg,stim/4.jpg,stim/latef.jpg,CD,2,4,,,,,0,10,10,36,,,,,,,,,,,,,,4,1,0.733173789671,,,,,,2016_Okt_06_1428,P6,PLC_L_D2S1,NHGY,60.0218420097,
stim/posf.jpg,stim/negf.jpg,stim/5.jpg,stim/4.jpg,stim/latef.jpg,CD,2,4,,,,,0,11,11,33,,,,,,,,,,,,,,4,1,0.633158045428,,,,,,2016_Okt_06_1428,P6,PLC_L_D2S1,NHGY,60.0218420097,
stim/posf.jpg,stim/negf.jpg,stim/4.jpg,stim/5.jpg,stim/latef.jpg,CD,1,2,,,,,0,12,12,20,,,,,,,,,,,,,,4,0,0.533168782189,,,,,,2016_Okt_06_1428,P6,PLC_L_D2S1,NHGY,60.0218420097,
stim/posf.jpg,stim/negf.jpg,stim/2.jpg,stim/6.jpg,stim/latef.jpg,EF,2,4,,,,,0,13,13,51,,,,,,,,,,,,,,2,0,1.24959176548,,,,,,2016_Okt_06_1428,P6,PLC_L_D2S1,NHGY,60.0218420097,
stim/negf.jpg,stim/posf.jpg,stim/4.jpg,stim/5.jpg,stim/latef.jpg,CD,1,2,,,,,0,14,14,29,,,,,,,,,,,,,,2,1,1.16626841302,,,,,,2016_Okt_06_1428,P6,PLC_L_D2S1,NHGY,60.0218420097,
stim/posf.jpg,stim/negf.jpg,stim/1.jpg,stim/3.jpg,stim/latef.jpg,AB,2,4,,,,,0,15,15,14,,,,,,,,,,,,,,2,0,0.88307534229,,,,,,2016_Okt_06_1428,P6,PLC_L_D2S1,NHGY,60.0218420097,
stim/posf.jpg,stim/negf.jpg,stim/4.jpg,stim/5.jpg,stim/latef.jpg,CD,1,2,,,,,0,16,16,25,,,,,,,,,,,,,,2,1,1.26624500267,,,,,,2016_Okt_06_1428,P6,PLC_L_D2S1,NHGY,60.0218420097,
stim/negf.jpg,stim/posf.jpg,stim/5.jpg,stim/4.jpg,stim/latef.jpg,CD,2,4,,,,,0,17,17,37,,,,,,,,,,,,,,4,1,0.949682453515,,,,,,2016_Okt_06_1428,P6,PLC_L_D2S1,NHGY,60.0218420097,
stim/negf.jpg,stim/posf.jpg,stim/4.jpg,stim/5.jpg,stim/latef.jpg,CD,1,2,,,,,0,18,18,27,,,,,,,,,,,,,,2,1,0.716504943572,,,,,,2016_Okt_06_1428,P6,PLC_L_D2S1,NHGY,60.0218420097,
stim/posf.jpg,stim/negf.jpg,stim/6.jpg,stim/2.jpg,stim/latef.jpg,EF,1,2,,,,,0,19,19,42,,,,,,,,,,,,,,4,0,1.01633261103,,,,,,2016_Okt_06_1428,P6,PLC_L_D2S1,NHGY,60.0218420097,
stim/posf.jpg,stim/negf.jpg,stim/3.jpg,stim/1.jpg,stim/latef.jpg,AB,1,2,,,,,0,20,20,3,,,,,,,,,,,,,,2,1,1.09965070639,,,,,,2016_Okt_06_1428,P6,PLC_L_D2S1,NHGY,60.0218420097,
stim/negf.jpg,stim/posf.jpg,stim/6.jpg,stim/2.jpg,stim/latef.jpg,EF,1,2,,,,,0,21,21,48,,,,,,,,,,,,,,2,1,1.09963008398,,,,,,2016_Okt_06_1428,P6,PLC_L_D2S1,NHGY,60.0218420097,
stim/posf.jpg,stim/negf.jpg,stim/6.jpg,stim/2.jpg,stim/latef.jpg,EF,1,2,,,,,0,22,22,45,,,,,,,,,,,,,,4,0,0.766422243442,,,,,,2016_Okt_06_1428,P6,PLC_L_D2S1,NHGY,60.0218420097,
stim/negf.jpg,stim/posf.jpg,stim/1.jpg,stim/3.jpg,stim/latef.jpg,AB,2,4,,,,,0,23,23,18,,,,,,,,,,,,,,4,1,0.916353293585,,,,,,2016_Okt_06_1428,P6,PLC_L_D2S1,NHGY,60.0218420097,
stim/posf.jpg,stim/negf.jpg,stim/3.jpg,stim/1.jpg,stim/latef.jpg,AB,1,2,,,,,0,24,24,0,,,,,,,,,,,,,,2,1,0.899704245833,,,,,,2016_Okt_06_1428,P6,PLC_L_D2S1,NHGY,60.0218420097,
stim/posf.jpg,stim/negf.jpg,stim/4.jpg,stim/5.jpg,stim/latef.jpg,CD,1,2,,,,,0,25,25,23,,,,,,,,,,,,,,2,1,0.816388998579,,,,,,2016_Okt_06_1428,P6,PLC_L_D2S1,NHGY,60.0218420097,
stim/posf.jpg,stim/negf.jpg,stim/6.jpg,stim/2.jpg,stim/latef.jpg,EF,1,2,,,,,0,26,26,43,,,,,,,,,,,,,,2,1,1.09963856512,,,,,,2016_Okt_06_1428,P6,PLC_L_D2S1,NHGY,60.0218420097,
stim/posf.jpg,stim/negf.jpg,stim/1.jpg,stim/3.jpg,stim/latef.jpg,AB,2,4,,,,,0,27,27,17,,,,,,,,,,,,,,4,1,0.899701364652,,,,,,2016_Okt_06_1428,P6,PLC_L_D2S1,NHGY,60.0218420097,
stim/posf.jpg,stim/negf.jpg,stim/1.jpg,stim/3.jpg,stim/latef.jpg,AB,2,4,,,,,0,28,28,10,,,,,,,,,,,,,,4,1,0.783097784227,,,,,,2016_Okt_06_1428,P6,PLC_L_D2S1,NHGY,60.0218420097,
stim/posf.jpg,stim/negf.jpg,stim/6.jpg,stim/2.jpg,stim/latef.jpg,EF,1,2,,,,,0,29,29,44,,,,,,,,,,,,,,2,1,0.816312773588,,,,,,2016_Okt_06_1428,P6,PLC_L_D2S1,NHGY,60.0218420097,
stim/posf.jpg,stim/negf.jpg,stim/2.jpg,stim/6.jpg,stim/latef.jpg,EF,2,4,,,,,0,30,30,55,,,,,,,,,,,,,,4,1,0.799755761235,,,,,,2016_Okt_06_1428,P6,PLC_L_D2S1,NHGY,60.0218420097,
stim/negf.jpg,stim/posf.jpg,stim/3.jpg,stim/1.jpg,stim/latef.jpg,AB,1,2,,,,,0,31,31,8,,,,,,,,,,,,,,2,1,1.03298288885,,,,,,2016_Okt_06_1428,P6,PLC_L_D2S1,NHGY,60.0218420097,
stim/posf.jpg,stim/negf.jpg,stim/3.jpg,stim/1.jpg,stim/latef.jpg,AB,1,2,,,,,0,32,32,4,,,,,,,,,,,,,,2,1,1.06632842159,,,,,,2016_Okt_06_1428,P6,PLC_L_D2S1,NHGY,60.0218420097,
stim/posf.jpg,stim/negf.jpg,stim/2.jpg,stim/6.jpg,stim/latef.jpg,EF,2,4,,,,,0,33,33,54,,,,,,,,,,,,,,4,1,0.666443356065,,,,,,2016_Okt_06_1428,P6,PLC_L_D2S1,NHGY,60.0218420097,
stim/posf.jpg,stim/negf.jpg,stim/3.jpg,stim/1.jpg,stim/latef.jpg,AB,1,2,,,,,0,34,34,7,,,,,,,,,,,,,,2,1,0.816396797017,,,,,,2016_Okt_06_1428,P6,PLC_L_D2S1,NHGY,60.0218420097,
stim/posf.jpg,stim/negf.jpg,stim/1.jpg,stim/3.jpg,stim/latef.jpg,AB,2,4,,,,,0,35,35,13,,,,,,,,,,,,,,4,1,0.649792855693,,,,,,2016_Okt_06_1428,P6,PLC_L_D2S1,NHGY,60.0218420097,
stim/negf.jpg,stim/posf.jpg,stim/4.jpg,stim/5.jpg,stim/latef.jpg,CD,1,2,,,,,0,36,36,28,,,,,,,,,,,,,,2,1,0.966352102616,,,,,,2016_Okt_06_1428,P6,PLC_L_D2S1,NHGY,60.0218420097,
stim/negf.jpg,stim/posf.jpg,stim/1.jpg,stim/3.jpg,stim/latef.jpg,AB,2,4,,,,,0,37,37,19,,,,,,,,,,,,,,4,1,0.783051619161,,,,,,2016_Okt_06_1428,P6,PLC_L_D2S1,NHGY,60.0218420097,
stim/posf.jpg,stim/negf.jpg,stim/1.jpg,stim/3.jpg,stim/latef.jpg,AB,2,4,,,,,0,38,38,11,,,,,,,,,,,,,,4,1,0.866387028669,,,,,,2016_Okt_06_1428,P6,PLC_L_D2S1,NHGY,60.0218420097,
stim/posf.jpg,stim/negf.jpg,stim/3.jpg,stim/1.jpg,stim/latef.jpg,AB,1,2,,,,,0,39,39,5,,,,,,,,,,,,,,2,1,0.916369627296,,,,,,2016_Okt_06_1428,P6,PLC_L_D2S1,NHGY,60.0218420097,
stim/posf.jpg,stim/negf.jpg,stim/2.jpg,stim/6.jpg,stim/latef.jpg,EF,2,4,,,,,0,40,40,50,,,,,,,,,,,,,,4,1,0.882974233276,,,,,,2016_Okt_06_1428,P6,PLC_L_D2S1,NHGY,60.0218420097,
stim/posf.jpg,stim/negf.jpg,stim/4.jpg,stim/5.jpg,stim/latef.jpg,CD,1,2,,,,,0,41,41,21,,,,,,,,,,,,,,2,1,0.666390926384,,,,,,2016_Okt_06_1428,P6,PLC_L_D2S1,NHGY,60.0218420097,
stim/negf.jpg,stim/posf.jpg,stim/3.jpg,stim/1.jpg,stim/latef.jpg,AB,1,2,,,,,0,42,42,9,,,,,,,,,,,,,,None,0,,,,,,,2016_Okt_06_1428,P6,PLC_L_D2S1,NHGY,60.0218420097,
stim/negf.jpg,stim/posf.jpg,stim/2.jpg,stim/6.jpg,stim/latef.jpg,EF,2,4,,,,,0,43,43,58,,,,,,,,,,,,,,4,1,0.93293949068,,,,,,2016_Okt_06_1428,P6,PLC_L_D2S1,NHGY,60.0218420097,
stim/posf.jpg,stim/negf.jpg,stim/5.jpg,stim/4.jpg,stim/latef.jpg,CD,2,4,,,,,0,44,44,32,,,,,,,,,,,,,,4,1,0.849655283795,,,,,,2016_Okt_06_1428,P6,PLC_L_D2S1,NHGY,60.0218420097,
stim/posf.jpg,stim/negf.jpg,stim/5.jpg,stim/4.jpg,stim/latef.jpg,CD,2,4,,,,,0,45,45,35,,,,,,,,,,,,,,4,1,0.799702444343,,,,,,2016_Okt_06_1428,P6,PLC_L_D2S1,NHGY,60.0218420097,
stim/posf.jpg,stim/negf.jpg,stim/4.jpg,stim/5.jpg,stim/latef.jpg,CD,1,2,,,,,0,46,46,24,,,,,,,,,,,,,,2,1,0.783064743874,,,,,,2016_Okt_06_1428,P6,PLC_L_D2S1,NHGY,60.0218420097,
stim/posf.jpg,stim/negf.jpg,stim/1.jpg,stim/3.jpg,stim/latef.jpg,AB,2,4,,,,,0,47,47,15,,,,,,,,,,,,,,4,1,0.866381025707,,,,,,2016_Okt_06_1428,P6,PLC_L_D2S1,NHGY,60.0218420097,
stim/posf.jpg,stim/negf.jpg,stim/3.jpg,stim/1.jpg,stim/latef.jpg,AB,1,2,,,,,0,48,48,2,,,,,,,,,,,,,,2,1,0.533139260607,,,,,,2016_Okt_06_1428,P6,PLC_L_D2S1,NHGY,60.0218420097,
stim/posf.jpg,stim/negf.jpg,stim/2.jpg,stim/6.jpg,stim/latef.jpg,EF,2,4,,,,,0,49,49,53,,,,,,,,,,,,,,4,1,0.949685211389,,,,,,2016_Okt_06_1428,P6,PLC_L_D2S1,NHGY,60.0218420097,
stim/posf.jpg,stim/negf.jpg,stim/5.jpg,stim/4.jpg,stim/latef.jpg,CD,2,4,,,,,0,50,50,30,,,,,,,,,,,,,,4,1,0.833053243209,,,,,,2016_Okt_06_1428,P6,PLC_L_D2S1,NHGY,60.0218420097,
stim/negf.jpg,stim/posf.jpg,stim/6.jpg,stim/2.jpg,stim/latef.jpg,EF,1,2,,,,,0,51,51,49,,,,,,,,,,,,,,2,1,1.26619742709,,,,,,2016_Okt_06_1428,P6,PLC_L_D2S1,NHGY,60.0218420097,
stim/posf.jpg,stim/negf.jpg,stim/1.jpg,stim/3.jpg,stim/latef.jpg,AB,2,4,,,,,0,52,52,16,,,,,,,,,,,,,,4,1,1.01632685469,,,,,,2016_Okt_06_1428,P6,PLC_L_D2S1,NHGY,60.0218420097,
stim/negf.jpg,stim/posf.jpg,stim/6.jpg,stim/2.jpg,stim/latef.jpg,EF,1,2,,,,,0,53,53,46,,,,,,,,,,,,,,None,0,,,,,,,2016_Okt_06_1428,P6,PLC_L_D2S1,NHGY,60.0218420097,
stim/posf.jpg,stim/negf.jpg,stim/3.jpg,stim/1.jpg,stim/latef.jpg,AB,1,2,,,,,0,54,54,1,,,,,,,,,,,,,,2,1,1.23289177074,,,,,,2016_Okt_06_1428,P6,PLC_L_D2S1,NHGY,60.0218420097,
stim/posf.jpg,stim/negf.jpg,stim/5.jpg,stim/4.jpg,stim/latef.jpg,CD,2,4,,,,,0,55,55,31,,,,,,,,,,,,,,4,1,0.783043715461,,,,,,2016_Okt_06_1428,P6,PLC_L_D2S1,NHGY,60.0218420097,
stim/negf.jpg,stim/posf.jpg,stim/2.jpg,stim/6.jpg,stim/latef.jpg,EF,2,4,,,,,0,56,56,56,,,,,,,,,,,,,,4,1,0.733090145187,,,,,,2016_Okt_06_1428,P6,PLC_L_D2S1,NHGY,60.0218420097,
stim/negf.jpg,stim/posf.jpg,stim/5.jpg,stim/4.jpg,stim/latef.jpg,CD,2,4,,,,,0,57,57,39,,,,,,,,,,,,,,4,1,0.849734961391,,,,,,2016_Okt_06_1428,P6,PLC_L_D2S1,NHGY,60.0218420097,
stim/posf.jpg,stim/negf.jpg,stim/1.jpg,stim/3.jpg,stim/latef.jpg,AB,2,4,,,,,0,58,58,12,,,,,,,,,,,,,,4,1,0.73308387155,,,,,,2016_Okt_06_1428,P6,PLC_L_D2S1,NHGY,60.0218420097,
stim/posf.jpg,stim/negf.jpg,stim/2.jpg,stim/6.jpg,stim/latef.jpg,EF,2,4,,,,,0,59,59,52,,,,,,,,,,,,,,4,1,0.999664979963,,,,,,2016_Okt_06_1428,P6,PLC_L_D2S1,NHGY,60.0218420097,
,,,,,,,,,,,,,,,,,,,,,,,,,,,,,,,,0.9953125,0.830078125,1,0,0,2016_Okt_06_1428,P6,PLC_L_D2S1,NHGY,60.0218420097,
stim/posf.jpg,stim/negf.jpg,stim/3.jpg,stim/1.jpg,stim/latef.jpg,AB,1,2,,,,,,,,,0,0,0,6,,,,,,,,,,2,1,0.949681244502,,,,,,2016_Okt_06_1428,P6,PLC_L_D2S1,NHGY,60.0218420097,
stim/negf.jpg,stim/posf.jpg,stim/5.jpg,stim/4.jpg,stim/latef.jpg,CD,2,4,,,,,,,,,0,1,1,37,,,,,,,,,,4,1,0.849643891399,,,,,,2016_Okt_06_1428,P6,PLC_L_D2S1,NHGY,60.0218420097,
stim/negf.jpg,stim/posf.jpg,stim/2.jpg,stim/6.jpg,stim/latef.jpg,EF,2,4,,,,,,,,,0,2,2,59,,,,,,,,,,4,1,0.749752720656,,,,,,2016_Okt_06_1428,P6,PLC_L_D2S1,NHGY,60.0218420097,
stim/posf.jpg,stim/negf.jpg,stim/5.jpg,stim/4.jpg,stim/latef.jpg,CD,2,4,,,,,,,,,0,3,3,33,,,,,,,,,,4,1,0.5997217254,,,,,,2016_Okt_06_1428,P6,PLC_L_D2S1,NHGY,60.0218420097,
stim/posf.jpg,stim/negf.jpg,stim/2.jpg,stim/6.jpg,stim/latef.jpg,EF,2,4,,,,,,,,,0,4,4,50,,,,,,,,,,4,1,0.516493945158,,,,,,2016_Okt_06_1428,P6,PLC_L_D2S1,NHGY,60.0218420097,
stim/posf.jpg,stim/negf.jpg,stim/2.jpg,stim/6.jpg,stim/latef.jpg,EF,2,4,,,,,,,,,0,5,5,53,,,,,,,,,,4,1,0.64978716551,,,,,,2016_Okt_06_1428,P6,PLC_L_D2S1,NHGY,60.0218420097,
stim/posf.jpg,stim/negf.jpg,stim/4.jpg,stim/5.jpg,stim/latef.jpg,CD,1,2,,,,,,,,,0,6,6,22,,,,,,,,,,2,1,0.866376532507,,,,,,2016_Okt_06_1428,P6,PLC_L_D2S1,NHGY,60.0218420097,
stim/posf.jpg,stim/negf.jpg,stim/5.jpg,stim/4.jpg,stim/latef.jpg,CD,2,4,,,,,,,,,0,7,7,36,,,,,,,,,,4,1,0.683138878655,,,,,,2016_Okt_06_1428,P6,PLC_L_D2S1,NHGY,60.0218420097,
stim/negf.jpg,stim/posf.jpg,stim/3.jpg,stim/1.jpg,stim/latef.jpg,AB,1,2,,,,,,,,,0,8,8,9,,,,,,,,,,2,1,0.716394905302,,,,,,2016_Okt_06_1428,P6,PLC_L_D2S1,NHGY,60.0218420097,
stim/posf.jpg,stim/negf.jpg,stim/4.jpg,stim/5.jpg,stim/latef.jpg,CD,1,2,,,,,,,,,0,9,9,23,,,,,,,,,,2,1,0.999654571018,,,,,,2016_Okt_06_1428,P6,PLC_L_D2S1,NHGY,60.0218420097,
stim/posf.jpg,stim/negf.jpg,stim/3.jpg,stim/1.jpg,stim/latef.jpg,AB,1,2,,,,,,,,,0,10,10,2,,,,,,,,,,2,1,1.29956951301,,,,,,2016_Okt_06_1428,P6,PLC_L_D2S1,NHGY,60.0218420097,
stim/posf.jpg,stim/negf.jpg,stim/1.jpg,stim/3.jpg,stim/latef.jpg,AB,2,4,,,,,,,,,0,11,11,15,,,,,,,,,,4,1,0.683115299885,,,,,,2016_Okt_06_1428,P6,PLC_L_D2S1,NHGY,60.0218420097,
stim/posf.jpg,stim/negf.jpg,stim/5.jpg,stim/4.jpg,stim/latef.jpg,CD,2,4,,,,,,,,,0,12,12,35,,,,,,,,,,4,1,0.83306391982,,,,,,2016_Okt_06_1428,P6,PLC_L_D2S1,NHGY,60.0218420097,
stim/negf.jpg,stim/posf.jpg,stim/2.jpg,stim/6.jpg,stim/latef.jpg,EF,2,4,,,,,,,,,0,13,13,57,,,,,,,,,,4,1,0.89970237517,,,,,,2016_Okt_06_1428,P6,PLC_L_D2S1,NHGY,60.0218420097,
stim/posf.jpg,stim/negf.jpg,stim/4.jpg,stim/5.jpg,stim/latef.jpg,CD,1,2,,,,,,,,,0,14,14,26,,,,,,,,,,2,1,0.91636259577,,,,,,2016_Okt_06_1428,P6,PLC_L_D2S1,NHGY,60.0218420097,
stim/negf.jpg,stim/posf.jpg,stim/6.jpg,stim/2.jpg,stim/latef.jpg,EF,1,2,,,,,,,,,0,15,15,46,,,,,,,,,,2,1,0.916283230953,,,,,,2016_Okt_06_1428,P6,PLC_L_D2S1,NHGY,60.0218420097,
stim/posf.jpg,stim/negf.jpg,stim/2.jpg,stim/6.jpg,stim/latef.jpg,EF,2,4,,,,,,,,,0,16,16,55,,,,,,,,,,4,1,0.616476008451,,,,,,2016_Okt_06_1428,P6,PLC_L_D2S1,NHGY,60.0218420097,
stim/posf.jpg,stim/negf.jpg,stim/5.jpg,stim/4.jpg,stim/latef.jpg,CD,2,4,,,,,,,,,0,17,17,34,,,,,,,,,,4,1,0.833060722852,,,,,,2016_Okt_06_1428,P6,PLC_L_D2S1,NHGY,60.0218420097,
stim/posf.jpg,stim/negf.jpg,stim/6.jpg,stim/2.jpg,stim/latef.jpg,EF,1,2,,,,,,,,,0,18,18,42,,,,,,,,,,2,1,0.733120163006,,,,,,2016_Okt_06_1428,P6,PLC_L_D2S1,NHGY,60.0218420097,
stim/posf.jpg,stim/negf.jpg,stim/1.jpg,stim/3.jpg,stim/latef.jpg,AB,2,4,,,,,,,,,0,19,19,17,,,,,,,,,,4,1,0.899686071533,,,,,,2016_Okt_06_1428,P6,PLC_L_D2S1,NHGY,60.0218420097,
stim/negf.jpg,stim/posf.jpg,stim/6.jpg,stim/2.jpg,stim/latef.jpg,EF,1,2,,,,,,,,,0,20,20,48,,,,,,,,,,2,1,1.21622739077,,,,,,2016_Okt_06_1428,P6,PLC_L_D2S1,NHGY,60.0218420097,
stim/posf.jpg,stim/negf.jpg,stim/2.jpg,stim/6.jpg,stim/latef.jpg,EF,2,4,,,,,,,,,0,21,21,51,,,,,,,,,,4,1,0.783120099849,,,,,,2016_Okt_06_1428,P6,PLC_L_D2S1,NHGY,60.0218420097,
stim/posf.jpg,stim/negf.jpg,stim/2.jpg,stim/6.jpg,stim/latef.jpg,EF,2,4,,,,,,,,,0,22,22,52,,,,,,,,,,4,1,0.633100385711,,,,,,2016_Okt_06_1428,P6,PLC_L_D2S1,NHGY,60.0218420097,
stim/posf.jpg,stim/negf.jpg,stim/6.jpg,stim/2.jpg,stim/latef.jpg,EF,1,2,,,,,,,,,0,23,23,40,,,,,,,,,,2,1,0.699725689281,,,,,,2016_Okt_06_1428,P6,PLC_L_D2S1,NHGY,60.0218420097,
stim/negf.jpg,stim/posf.jpg,stim/5.jpg,stim/4.jpg,stim/latef.jpg,CD,2,4,,,,,,,,,0,24,24,38,,,,,,,,,,4,1,0.833045799656,,,,,,2016_Okt_06_1428,P6,PLC_L_D2S1,NHGY,60.0218420097,
stim/negf.jpg,stim/posf.jpg,stim/4.jpg,stim/5.jpg,stim/latef.jpg,CD,1,2,,,,,,,,,0,25,25,28,,,,,,,,,,2,1,0.949734426057,,,,,,2016_Okt_06_1428,P6,PLC_L_D2S1,NHGY,60.0218420097,
stim/posf.jpg,stim/negf.jpg,stim/6.jpg,stim/2.jpg,stim/latef.jpg,EF,1,2,,,,,,,,,0,26,26,45,,,,,,,,,,2,1,0.9663489267,,,,,,2016_Okt_06_1428,P6,PLC_L_D2S1,NHGY,60.0218420097,
stim/negf.jpg,stim/posf.jpg,stim/2.jpg,stim/6.jpg,stim/latef.jpg,EF,2,4,,,,,,,,,0,27,27,58,,,,,,,,,,4,1,0.86634456583,,,,,,2016_Okt_06_1428,P6,PLC_L_D2S1,NHGY,60.0218420097,
stim/negf.jpg,stim/posf.jpg,stim/5.jpg,stim/4.jpg,stim/latef.jpg,CD,2,4,,,,,,,,,0,28,28,39,,,,,,,,,,4,1,0.683150030451,,,,,,2016_Okt_06_1428,P6,PLC_L_D2S1,NHGY,60.0218420097,
stim/posf.jpg,stim/negf.jpg,stim/4.jpg,stim/5.jpg,stim/latef.jpg,CD,1,2,,,,,,,,,0,29,29,20,,,,,,,,,,2,1,0.71636856565,,,,,,2016_Okt_06_1428,P6,PLC_L_D2S1,NHGY,60.0218420097,
stim/negf.jpg,stim/posf.jpg,stim/4.jpg,stim/5.jpg,stim/latef.jpg,CD,1,2,,,,,,,,,0,30,30,29,,,,,,,,,,2,1,0.649805324772,,,,,,2016_Okt_06_1428,P6,PLC_L_D2S1,NHGY,60.0218420097,
stim/posf.jpg,stim/negf.jpg,stim/3.jpg,stim/1.jpg,stim/latef.jpg,AB,1,2,,,,,,,,,0,31,31,0,,,,,,,,,,2,1,0.866393900798,,,,,,2016_Okt_06_1428,P6,PLC_L_D2S1,NHGY,60.0218420097,
stim/negf.jpg,stim/posf.jpg,stim/6.jpg,stim/2.jpg,stim/latef.jpg,EF,1,2,,,,,,,,,0,32,32,49,,,,,,,,,,2,1,0.866374869362,,,,,,2016_Okt_06_1428,P6,PLC_L_D2S1,NHGY,60.0218420097,
stim/negf.jpg,stim/posf.jpg,stim/4.jpg,stim/5.jpg,stim/latef.jpg,CD,1,2,,,,,,,,,0,33,33,27,,,,,,,,,,2,1,0.949712290885,,,,,,2016_Okt_06_1428,P6,PLC_L_D2S1,NHGY,60.0218420097,
stim/posf.jpg,stim/negf.jpg,stim/4.jpg,stim/5.jpg,stim/latef.jpg,CD,1,2,,,,,,,,,0,34,34,24,,,,,,,,,,2,1,0.683103360125,,,,,,2016_Okt_06_1428,P6,PLC_L_D2S1,NHGY,60.0218420097,
stim/posf.jpg,stim/negf.jpg,stim/2.jpg,stim/6.jpg,stim/latef.jpg,EF,2,4,,,,,,,,,0,35,35,54,,,,,,,,,,4,1,0.799743325238,,,,,,2016_Okt_06_1428,P6,PLC_L_D2S1,NHGY,60.0218420097,
stim/negf.jpg,stim/posf.jpg,stim/1.jpg,stim/3.jpg,stim/latef.jpg,AB,2,4,,,,,,,,,0,36,36,18,,,,,,,,,,4,1,1.04964194555,,,,,,2016_Okt_06_1428,P6,PLC_L_D2S1,NHGY,60.0218420097,
stim/posf.jpg,stim/negf.jpg,stim/1.jpg,stim/3.jpg,stim/latef.jpg,AB,2,4,,,,,,,,,0,37,37,11,,,,,,,,,,4,1,0.933018476553,,,,,,2016_Okt_06_1428,P6,PLC_L_D2S1,NHGY,60.0218420097,
stim/negf.jpg,stim/posf.jpg,stim/6.jpg,stim/2.jpg,stim/latef.jpg,EF,1,2,,,,,,,,,0,38,38,47,,,,,,,,,,2,1,0.783035213269,,,,,,2016_Okt_06_1428,P6,PLC_L_D2S1,NHGY,60.0218420097,
stim/posf.jpg,stim/negf.jpg,stim/4.jpg,stim/5.jpg,stim/latef.jpg,CD,1,2,,,,,,,,,0,39,39,25,,,,,,,,,,2,1,0.733129350907,,,,,,2016_Okt_06_1428,P6,PLC_L_D2S1,NHGY,60.0218420097,
stim/posf.jpg,stim/negf.jpg,stim/1.jpg,stim/3.jpg,stim/latef.jpg,AB,2,4,,,,,,,,,0,40,40,10,,,,,,,,,,4,1,0.899695241389,,,,,,2016_Okt_06_1428,P6,PLC_L_D2S1,NHGY,60.0218420097,
stim/negf.jpg,stim/posf.jpg,stim/3.jpg,stim/1.jpg,stim/latef.jpg,AB,1,2,,,,,,,,,0,41,41,8,,,,,,,,,,2,1,0.683083095616,,,,,,2016_Okt_06_1428,P6,PLC_L_D2S1,NHGY,60.0218420097,
stim/posf.jpg,stim/negf.jpg,stim/5.jpg,stim/4.jpg,stim/latef.jpg,CD,2,4,,,,,,,,,0,42,42,32,,,,,,,,,,4,1,0.83306225066,,,,,,2016_Okt_06_1428,P6,PLC_L_D2S1,NHGY,60.0218420097,
stim/posf.jpg,stim/negf.jpg,stim/3.jpg,stim/1.jpg,stim/latef.jpg,AB,1,2,,,,,,,,,0,43,43,1,,,,,,,,,,2,1,0.683105188683,,,,,,2016_Okt_06_1428,P6,PLC_L_D2S1,NHGY,60.0218420097,
stim/posf.jpg,stim/negf.jpg,stim/1.jpg,stim/3.jpg,stim/latef.jpg,AB,2,4,,,,,,,,,0,44,44,12,,,,,,,,,,4,1,0.899629966692,,,,,,2016_Okt_06_1428,P6,PLC_L_D2S1,NHGY,60.0218420097,
stim/posf.jpg,stim/negf.jpg,stim/1.jpg,stim/3.jpg,stim/latef.jpg,AB,2,4,,,,,,,,,0,45,45,14,,,,,,,,,,4,1,0.699745812438,,,,,,2016_Okt_06_1428,P6,PLC_L_D2S1,NHGY,60.0218420097,
stim/posf.jpg,stim/negf.jpg,stim/6.jpg,stim/2.jpg,stim/latef.jpg,EF,1,2,,,,,,,,,0,46,46,44,,,,,,,,,,2,1,0.899695593266,,,,,,2016_Okt_06_1428,P6,PLC_L_D2S1,NHGY,60.0218420097,
stim/posf.jpg,stim/negf.jpg,stim/3.jpg,stim/1.jpg,stim/latef.jpg,AB,1,2,,,,,,,,,0,47,47,5,,,,,,,,,,2,1,0.699765983714,,,,,,2016_Okt_06_1428,P6,PLC_L_D2S1,NHGY,60.0218420097,
stim/posf.jpg,stim/negf.jpg,stim/1.jpg,stim/3.jpg,stim/latef.jpg,AB,2,4,,,,,,,,,0,48,48,13,,,,,,,,,,4,1,0.616440129022,,,,,,2016_Okt_06_1428,P6,PLC_L_D2S1,NHGY,60.0218420097,
stim/posf.jpg,stim/negf.jpg,stim/6.jpg,stim/2.jpg,stim/latef.jpg,EF,1,2,,,,,,,,,0,49,49,41,,,,,,,,,,2,1,1.09961859234,,,,,,2016_Okt_06_1428,P6,PLC_L_D2S1,NHGY,60.0218420097,
stim/posf.jpg,stim/negf.jpg,stim/4.jpg,stim/5.jpg,stim/latef.jpg,CD,1,2,,,,,,,,,0,50,50,21,,,,,,,,,,4,0,0.966325368982,,,,,,2016_Okt_06_1428,P6,PLC_L_D2S1,NHGY,60.0218420097,
stim/negf.jpg,stim/posf.jpg,stim/2.jpg,stim/6.jpg,stim/latef.jpg,EF,2,4,,,,,,,,,0,51,51,56,,,,,,,,,,2,0,0.783063865685,,,,,,2016_Okt_06_1428,P6,PLC_L_D2S1,NHGY,60.0218420097,
stim/posf.jpg,stim/negf.jpg,stim/3.jpg,stim/1.jpg,stim/latef.jpg,AB,1,2,,,,,,,,,0,52,52,7,,,,,,,,,,4,0,0.916335946346,,,,,,2016_Okt_06_1428,P6,PLC_L_D2S1,NHGY,60.0218420097,
stim/posf.jpg,stim/negf.jpg,stim/6.jpg,stim/2.jpg,stim/latef.jpg,EF,1,2,,,,,,,,,0,53,53,43,,,,,,,,,,4,0,1.01633832227,,,,,,2016_Okt_06_1428,P6,PLC_L_D2S1,NHGY,60.0218420097,
stim/posf.jpg,stim/negf.jpg,stim/3.jpg,stim/1.jpg,stim/latef.jpg,AB,1,2,,,,,,,,,0,54,54,3,,,,,,,,,,4,0,0.833061471718,,,,,,2016_Okt_06_1428,P6,PLC_L_D2S1,NHGY,60.0218420097,
stim/negf.jpg,stim/posf.jpg,stim/1.jpg,stim/3.jpg,stim/latef.jpg,AB,2,4,,,,,,,,,0,55,55,19,,,,,,,,,,2,0,1.18295192968,,,,,,2016_Okt_06_1428,P6,PLC_L_D2S1,NHGY,60.0218420097,
stim/posf.jpg,stim/negf.jpg,stim/5.jpg,stim/4.jpg,stim/latef.jpg,CD,2,4,,,,,,,,,0,56,56,31,,,,,,,,,,2,0,0.716417948737,,,,,,2016_Okt_06_1428,P6,PLC_L_D2S1,NHGY,60.0218420097,
stim/posf.jpg,stim/negf.jpg,stim/5.jpg,stim/4.jpg,stim/latef.jpg,CD,2,4,,,,,,,,,0,57,57,30,,,,,,,,,,4,1,0.766419464515,,,,,,2016_Okt_06_1428,P6,PLC_L_D2S1,NHGY,60.0218420097,
stim/posf.jpg,stim/negf.jpg,stim/3.jpg,stim/1.jpg,stim/latef.jpg,AB,1,2,,,,,,,,,0,58,58,4,,,,,,,,,,2,1,1.24956879422,,,,,,2016_Okt_06_1428,P6,PLC_L_D2S1,NHGY,60.0218420097,
stim/posf.jpg,stim/negf.jpg,stim/1.jpg,stim/3.jpg,stim/latef.jpg,AB,2,4,,,,,,,,,0,59,59,16,,,,,,,,,,4,1,0.799730597514,,,,,,2016_Okt_06_1428,P6,PLC_L_D2S1,NHGY,60.0218420097,
,,,,,,,,,,,,,,,,,,,,,,,,,,,,,,,,0.9953125,0.830078125,1,0,0,2016_Okt_06_1428,P6,PLC_L_D2S1,NHGY,60.0218420097,
stim/posf.jpg,stim/negf.jpg,stim/3.jpg,stim/1.jpg,stim/latef.jpg,AB,1,2,,,,,,,,,,,,,0,0,0,4,,,,,,2,1,0.9329815445,,,,,,2016_Okt_06_1428,P6,PLC_L_D2S1,NHGY,60.0218420097,
stim/posf.jpg,stim/negf.jpg,stim/5.jpg,stim/4.jpg,stim/latef.jpg,CD,2,4,,,,,,,,,,,,,0,1,1,35,,,,,,4,1,0.683113218698,,,,,,2016_Okt_06_1428,P6,PLC_L_D2S1,NHGY,60.0218420097,
stim/negf.jpg,stim/posf.jpg,stim/6.jpg,stim/2.jpg,stim/latef.jpg,EF,1,2,,,,,,,,,,,,,0,2,2,46,,,,,,2,1,0.716416090105,,,,,,2016_Okt_06_1428,P6,PLC_L_D2S1,NHGY,60.0218420097,
stim/posf.jpg,stim/negf.jpg,stim/3.jpg,stim/1.jpg,stim/latef.jpg,AB,1,2,,,,,,,,,,,,,0,3,3,7,,,,,,4,0,0.666433088473,,,,,,2016_Okt_06_1428,P6,PLC_L_D2S1,NHGY,60.0218420097,
stim/negf.jpg,stim/posf.jpg,stim/2.jpg,stim/6.jpg,stim/latef.jpg,EF,2,4,,,,,,,,,,,,,0,4,4,56,,,,,,4,1,0.783038401215,,,,,,2016_Okt_06_1428,P6,PLC_L_D2S1,NHGY,60.0218420097,
stim/posf.jpg,stim/negf.jpg,stim/2.jpg,stim/6.jpg,stim/latef.jpg,EF,2,4,,,,,,,,,,,,,0,5,5,55,,,,,,4,1,0.616461930361,,,,,,2016_Okt_06_1428,P6,PLC_L_D2S1,NHGY,60.0218420097,
stim/posf.jpg,stim/negf.jpg,stim/5.jpg,stim/4.jpg,stim/latef.jpg,CD,2,4,,,,,,,,,,,,,0,6,6,30,,,,,,4,1,0.766395873715,,,,,,2016_Okt_06_1428,P6,PLC_L_D2S1,NHGY,60.0218420097,
stim/posf.jpg,stim/negf.jpg,stim/1.jpg,stim/3.jpg,stim/latef.jpg,AB,2,4,,,,,,,,,,,,,0,7,7,10,,,,,,4,1,0.883049327449,,,,,,2016_Okt_06_1428,P6,PLC_L_D2S1,NHGY,60.0218420097,
stim/negf.jpg,stim/posf.jpg,stim/2.jpg,stim/6.jpg,stim/latef.jpg,EF,2,4,,,,,,,,,,,,,0,8,8,58,,,,,,4,1,0.899696934609,,,,,,2016_Okt_06_1428,P6,PLC_L_D2S1,NHGY,60.0218420097,
stim/negf.jpg,stim/posf.jpg,stim/3.jpg,stim/1.jpg,stim/latef.jpg,AB,1,2,,,,,,,,,,,,,0,9,9,8,,,,,,2,1,0.883051405629,,,,,,2016_Okt_06_1428,P6,PLC_L_D2S1,NHGY,60.0218420097,
stim/posf.jpg,stim/negf.jpg,stim/4.jpg,stim/5.jpg,stim/latef.jpg,CD,1,2,,,,,,,,,,,,,0,10,10,21,,,,,,2,1,0.799723848693,,,,,,2016_Okt_06_1428,P6,PLC_L_D2S1,NHGY,60.0218420097,
stim/posf.jpg,stim/negf.jpg,stim/2.jpg,stim/6.jpg,stim/latef.jpg,EF,2,4,,,,,,,,,,,,,0,11,11,54,,,,,,4,1,0.733097706032,,,,,,2016_Okt_06_1428,P6,PLC_L_D2S1,NHGY,60.0218420097,
stim/posf.jpg,stim/negf.jpg,stim/3.jpg,stim/1.jpg,stim/latef.jpg,AB,1,2,,,,,,,,,,,,,0,12,12,3,,,,,,2,1,0.949691118112,,,,,,2016_Okt_06_1428,P6,PLC_L_D2S1,NHGY,60.0218420097,
stim/posf.jpg,stim/negf.jpg,stim/3.jpg,stim/1.jpg,stim/latef.jpg,AB,1,2,,,,,,,,,,,,,0,13,13,1,,,,,,2,1,0.69968444147,,,,,,2016_Okt_06_1428,P6,PLC_L_D2S1,NHGY,60.0218420097,
stim/negf.jpg,stim/posf.jpg,stim/6.jpg,stim/2.jpg,stim/latef.jpg,EF,1,2,,,,,,,,,,,,,0,14,14,47,,,,,,2,1,0.799720378042,,,,,,2016_Okt_06_1428,P6,PLC_L_D2S1,NHGY,60.0218420097,
stim/posf.jpg,stim/negf.jpg,stim/1.jpg,stim/3.jpg,stim/latef.jpg,AB,2,4,,,,,,,,,,,,,0,15,15,15,,,,,,4,1,0.866385239209,,,,,,2016_Okt_06_1428,P6,PLC_L_D2S1,NHGY,60.0218420097,
stim/posf.jpg,stim/negf.jpg,stim/1.jpg,stim/3.jpg,stim/latef.jpg,AB,2,4,,,,,,,,,,,,,0,16,16,17,,,,,,4,1,0.933090854956,,,,,,2016_Okt_06_1428,P6,PLC_L_D2S1,NHGY,60.0218420097,
stim/posf.jpg,stim/negf.jpg,stim/2.jpg,stim/6.jpg,stim/latef.jpg,EF,2,4,,,,,,,,,,,,,0,17,17,50,,,,,,2,0,0.766421948707,,,,,,2016_Okt_06_1428,P6,PLC_L_D2S1,NHGY,60.0218420097,
stim/posf.jpg,stim/negf.jpg,stim/4.jpg,stim/5.jpg,stim/latef.jpg,CD,1,2,,,,,,,,,,,,,0,18,18,20,,,,,,4,0,0.783061847656,,,,,,2016_Okt_06_1428,P6,PLC_L_D2S1,NHGY,60.0218420097,
stim/negf.jpg,stim/posf.jpg,stim/1.jpg,stim/3.jpg,stim/latef.jpg,AB,2,4,,,,,,,,,,,,,0,19,19,19,,,,,,4,1,0.766409389403,,,,,,2016_Okt_06_1428,P6,PLC_L_D2S1,NHGY,60.0218420097,
stim/posf.jpg,stim/negf.jpg,stim/3.jpg,stim/1.jpg,stim/latef.jpg,AB,1,2,,,,,,,,,,,,,0,20,20,6,,,,,,2,1,1.24949613913,,,,,,2016_Okt_06_1428,P6,PLC_L_D2S1,NHGY,60.0218420097,
stim/negf.jpg,stim/posf.jpg,stim/4.jpg,stim/5.jpg,stim/latef.jpg,CD,1,2,,,,,,,,,,,,,0,21,21,28,,,,,,2,1,1.01634682747,,,,,,2016_Okt_06_1428,P6,PLC_L_D2S1,NHGY,60.0218420097,
stim/negf.jpg,stim/posf.jpg,stim/2.jpg,stim/6.jpg,stim/latef.jpg,EF,2,4,,,,,,,,,,,,,0,22,22,57,,,,,,2,0,0.883044894399,,,,,,2016_Okt_06_1428,P6,PLC_L_D2S1,NHGY,60.0218420097,
stim/posf.jpg,stim/negf.jpg,stim/4.jpg,stim/5.jpg,stim/latef.jpg,CD,1,2,,,,,,,,,,,,,0,23,23,24,,,,,,2,1,0.833061201044,,,,,,2016_Okt_06_1428,P6,PLC_L_D2S1,NHGY,60.0218420097,
stim/posf.jpg,stim/negf.jpg,stim/2.jpg,stim/6.jpg,stim/latef.jpg,EF,2,4,,,,,,,,,,,,,0,24,24,53,,,,,,2,0,0.683114689363,,,,,,2016_Okt_06_1428,P6,PLC_L_D2S1,NHGY,60.0218420097,
stim/posf.jpg,stim/negf.jpg,stim/1.jpg,stim/3.jpg,stim/latef.jpg,AB,2,4,,,,,,,,,,,,,0,25,25,13,,,,,,4,1,1.31622235622,,,,,,2016_Okt_06_1428,P6,PLC_L_D2S1,NHGY,60.0218420097,
stim/posf.jpg,stim/negf.jpg,stim/6.jpg,stim/2.jpg,stim/latef.jpg,EF,1,2,,,,,,,,,,,,,0,26,26,40,,,,,,2,1,0.96636688446,,,,,,2016_Okt_06_1428,P6,PLC_L_D2S1,NHGY,60.0218420097,
stim/posf.jpg,stim/negf.jpg,stim/3.jpg,stim/1.jpg,stim/latef.jpg,AB,1,2,,,,,,,,,,,,,0,27,27,2,,,,,,2,1,1.06631176908,,,,,,2016_Okt_06_1428,P6,PLC_L_D2S1,NHGY,60.0218420097,
stim/posf.jpg,stim/negf.jpg,stim/4.jpg,stim/5.jpg,stim/latef.jpg,CD,1,2,,,,,,,,,,,,,0,28,28,25,,,,,,2,1,0.866437834302,,,,,,2016_Okt_06_1428,P6,PLC_L_D2S1,NHGY,60.0218420097,
stim/negf.jpg,stim/posf.jpg,stim/4.jpg,stim/5.jpg,stim/latef.jpg,CD,1,2,,,,,,,,,,,,,0,29,29,27,,,,,,2,1,0.749763499522,,,,,,2016_Okt_06_1428,P6,PLC_L_D2S1,NHGY,60.0218420097,
stim/posf.jpg,stim/negf.jpg,stim/1.jpg,stim/3.jpg,stim/latef.jpg,AB,2,4,,,,,,,,,,,,,0,30,30,16,,,,,,4,1,0.949680495636,,,,,,2016_Okt_06_1428,P6,PLC_L_D2S1,NHGY,60.0218420097,
stim/posf.jpg,stim/negf.jpg,stim/6.jpg,stim/2.jpg,stim/latef.jpg,EF,1,2,,,,,,,,,,,,,0,31,31,45,,,,,,2,1,0.749743716213,,,,,,2016_Okt_06_1428,P6,PLC_L_D2S1,NHGY,60.0218420097,
stim/posf.jpg,stim/negf.jpg,stim/6.jpg,stim/2.jpg,stim/latef.jpg,EF,1,2,,,,,,,,,,,,,0,32,32,41,,,,,,2,1,0.566485966271,,,,,,2016_Okt_06_1428,P6,PLC_L_D2S1,NHGY,60.0218420097,
stim/posf.jpg,stim/negf.jpg,stim/1.jpg,stim/3.jpg,stim/latef.jpg,AB,2,4,,,,,,,,,,,,,0,33,33,11,,,,,,4,1,0.86638836099,,,,,,2016_Okt_06_1428,P6,PLC_L_D2S1,NHGY,60.0218420097,
stim/posf.jpg,stim/negf.jpg,stim/4.jpg,stim/5.jpg,stim/latef.jpg,CD,1,2,,,,,,,,,,,,,0,34,34,23,,,,,,2,1,0.883052178555,,,,,,2016_Okt_06_1428,P6,PLC_L_D2S1,NHGY,60.0218420097,
stim/posf.jpg,stim/negf.jpg,stim/6.jpg,stim/2.jpg,stim/latef.jpg,EF,1,2,,,,,,,,,,,,,0,35,35,44,,,,,,2,1,1.28291381569,,,,,,2016_Okt_06_1428,P6,PLC_L_D2S1,NHGY,60.0218420097,
stim/posf.jpg,stim/negf.jpg,stim/3.jpg,stim/1.jpg,stim/latef.jpg,AB,1,2,,,,,,,,,,,,,0,36,36,0,,,,,,2,1,0.93305626875,,,,,,2016_Okt_06_1428,P6,PLC_L_D2S1,NHGY,60.0218420097,
stim/negf.jpg,stim/posf.jpg,stim/1.jpg,stim/3.jpg,stim/latef.jpg,AB,2,4,,,,,,,,,,,,,0,37,37,18,,,,,,4,1,0.833104436809,,,,,,2016_Okt_06_1428,P6,PLC_L_D2S1,NHGY,60.0218420097,
stim/posf.jpg,stim/negf.jpg,stim/5.jpg,stim/4.jpg,stim/latef.jpg,CD,2,4,,,,,,,,,,,,,0,38,38,36,,,,,,4,1,0.816443262833,,,,,,2016_Okt_06_1428,P6,PLC_L_D2S1,NHGY,60.0218420097,
stim/posf.jpg,stim/negf.jpg,stim/4.jpg,stim/5.jpg,stim/latef.jpg,CD,1,2,,,,,,,,,,,,,0,39,39,22,,,,,,2,1,0.64977573101,,,,,,2016_Okt_06_1428,P6,PLC_L_D2S1,NHGY,60.0218420097,
stim/posf.jpg,stim/negf.jpg,stim/2.jpg,stim/6.jpg,stim/latef.jpg,EF,2,4,,,,,,,,,,,,,0,40,40,51,,,,,,4,1,0.83306192585,,,,,,2016_Okt_06_1428,P6,PLC_L_D2S1,NHGY,60.0218420097,
stim/negf.jpg,stim/posf.jpg,stim/5.jpg,stim/4.jpg,stim/latef.jpg,CD,2,4,,,,,,,,,,,,,0,41,41,38,,,,,,4,1,0.733087639942,,,,,,2016_Okt_06_1428,P6,PLC_L_D2S1,NHGY,60.0218420097,
stim/negf.jpg,stim/posf.jpg,stim/5.jpg,stim/4.jpg,stim/latef.jpg,CD,2,4,,,,,,,,,,,,,0,42,42,37,,,,,,4,1,0.666451897354,,,,,,2016_Okt_06_1428,P6,PLC_L_D2S1,NHGY,60.0218420097,
stim/posf.jpg,stim/negf.jpg,stim/1.jpg,stim/3.jpg,stim/latef.jpg,AB,2,4,,,,,,,,,,,,,0,43,43,12,,,,,,4,1,1.13295764393,,,,,,2016_Okt_06_1428,P6,PLC_L_D2S1,NHGY,60.0218420097,
stim/posf.jpg,stim/negf.jpg,stim/5.jpg,stim/4.jpg,stim/latef.jpg,CD,2,4,,,,,,,,,,,,,0,44,44,32,,,,,,4,1,0.599777234758,,,,,,2016_Okt_06_1428,P6,PLC_L_D2S1,NHGY,60.0218420097,
stim/posf.jpg,stim/negf.jpg,stim/1.jpg,stim/3.jpg,stim/latef.jpg,AB,2,4,,,,,,,,,,,,,0,45,45,14,,,,,,4,1,0.999678787377,,,,,,2016_Okt_06_1428,P6,PLC_L_D2S1,NHGY,60.0218420097,
stim/negf.jpg,stim/posf.jpg,stim/6.jpg,stim/2.jpg,stim/latef.jpg,EF,1,2,,,,,,,,,,,,,0,46,46,48,,,,,,2,1,1.04966823107,,,,,,2016_Okt_06_1428,P6,PLC_L_D2S1,NHGY,60.0218420097,
stim/negf.jpg,stim/posf.jpg,stim/5.jpg,stim/4.jpg,stim/latef.jpg,CD,2,4,,,,,,,,,,,,,0,47,47,39,,,,,,4,1,0.649770702476,,,,,,2016_Okt_06_1428,P6,PLC_L_D2S1,NHGY,60.0218420097,
stim/negf.jpg,stim/posf.jpg,stim/6.jpg,stim/2.jpg,stim/latef.jpg,EF,1,2,,,,,,,,,,,,,0,48,48,49,,,,,,2,1,0.783014061548,,,,,,2016_Okt_06_1428,P6,PLC_L_D2S1,NHGY,60.0218420097,
stim/posf.jpg,stim/negf.jpg,stim/3.jpg,stim/1.jpg,stim/latef.jpg,AB,1,2,,,,,,,,,,,,,0,49,49,5,,,,,,2,1,0.933018771287,,,,,,2016_Okt_06_1428,P6,PLC_L_D2S1,NHGY,60.0218420097,
stim/posf.jpg,stim/negf.jpg,stim/6.jpg,stim/2.jpg,stim/latef.jpg,EF,1,2,,,,,,,,,,,,,0,50,50,42,,,,,,2,1,1.06632956444,,,,,,2016_Okt_06_1428,P6,PLC_L_D2S1,NHGY,60.0218420097,
stim/posf.jpg,stim/negf.jpg,stim/5.jpg,stim/4.jpg,stim/latef.jpg,CD,2,4,,,,,,,,,,,,,0,51,51,33,,,,,,4,1,0.733084728686,,,,,,2016_Okt_06_1428,P6,PLC_L_D2S1,NHGY,60.0218420097,
stim/posf.jpg,stim/negf.jpg,stim/5.jpg,stim/4.jpg,stim/latef.jpg,CD,2,4,,,,,,,,,,,,,0,52,52,34,,,,,,4,1,0.616471641566,,,,,,2016_Okt_06_1428,P6,PLC_L_D2S1,NHGY,60.0218420097,
stim/posf.jpg,stim/negf.jpg,stim/5.jpg,stim/4.jpg,stim/latef.jpg,CD,2,4,,,,,,,,,,,,,0,53,53,31,,,,,,4,1,0.583123546439,,,,,,2016_Okt_06_1428,P6,PLC_L_D2S1,NHGY,60.0218420097,
stim/negf.jpg,stim/posf.jpg,stim/4.jpg,stim/5.jpg,stim/latef.jpg,CD,1,2,,,,,,,,,,,,,0,54,54,29,,,,,,4,0,0.583132848625,,,,,,2016_Okt_06_1428,P6,PLC_L_D2S1,NHGY,60.0218420097,
stim/posf.jpg,stim/negf.jpg,stim/6.jpg,stim/2.jpg,stim/latef.jpg,EF,1,2,,,,,,,,,,,,,0,55,55,43,,,,,,2,1,0.699777920467,,,,,,2016_Okt_06_1428,P6,PLC_L_D2S1,NHGY,60.0218420097,
stim/negf.jpg,stim/posf.jpg,stim/2.jpg,stim/6.jpg,stim/latef.jpg,EF,2,4,,,,,,,,,,,,,0,56,56,59,,,,,,4,1,0.766417888587,,,,,,2016_Okt_06_1428,P6,PLC_L_D2S1,NHGY,60.0218420097,
stim/negf.jpg,stim/posf.jpg,stim/3.jpg,stim/1.jpg,stim/latef.jpg,AB,1,2,,,,,,,,,,,,,0,57,57,9,,,,,,2,1,0.999655641687,,,,,,2016_Okt_06_1428,P6,PLC_L_D2S1,NHGY,60.0218420097,
stim/posf.jpg,stim/negf.jpg,stim/2.jpg,stim/6.jpg,stim/latef.jpg,EF,2,4,,,,,,,,,,,,,0,58,58,52,,,,,,4,1,0.733086827918,,,,,,2016_Okt_06_1428,P6,PLC_L_D2S1,NHGY,60.0218420097,
stim/posf.jpg,stim/negf.jpg,stim/4.jpg,stim/5.jpg,stim/latef.jpg,CD,1,2,,,,,,,,,,,,,0,59,59,26,,,,,,2,1,1.41617986932,,,,,,2016_Okt_06_1428,P6,PLC_L_D2S1,NHGY,60.0218420097,
