fb_corr,fb_incorr,symbol2,symbol1,fb_late,pair,position,correct,block_01.thisRepN,block_01.thisTrialN,block_01.thisN,block_01.thisIndex,block_02.thisRepN,block_02.thisTrialN,block_02.thisN,block_02.thisIndex,block_03.thisRepN,block_03.thisTrialN,block_03.thisN,block_03.thisIndex,block_04.thisRepN,block_04.thisTrialN,block_04.thisN,block_04.thisIndex,mouse.x,mouse.y,mouse.leftButton,mouse.midButton,mouse.rightButton,buttonBox_2.keys,buttonBox_2.corr,buttonBox_2.rt,mouse_2.x,mouse_2.y,mouse_2.leftButton,mouse_2.midButton,mouse_2.rightButton,date,Participant,expName,Group,frameRate,
,,,,,,,,,,,,,,,,,,,,,,,,0.9984375,0.234375,1,0,0,,,,,,,,,2016_Jan_19_1123,P7,PLC_L_D2S1,NHGY,60.0179709619,
stim/posf.jpg,stim/negf.jpg,stim/2.jpg,stim/6.jpg,stim/latef.jpg,EF,2,4,0,0,0,53,,,,,,,,,,,,,,,,,,2,0,1.11636046045,,,,,,2016_Jan_19_1123,P7,PLC_L_D2S1,NHGY,60.0179709619,
stim/posf.jpg,stim/negf.jpg,stim/6.jpg,stim/2.jpg,stim/latef.jpg,EF,1,2,0,1,1,42,,,,,,,,,,,,,,,,,,2,1,1.18294925001,,,,,,2016_Jan_19_1123,P7,PLC_L_D2S1,NHGY,60.0179709619,
stim/posf.jpg,stim/negf.jpg,stim/4.jpg,stim/3.jpg,stim/latef.jpg,CD,2,4,0,2,2,35,,,,,,,,,,,,,,,,,,2,0,1.19961178937,,,,,,2016_Jan_19_1123,P7,PLC_L_D2S1,NHGY,60.0179709619,
stim/posf.jpg,stim/negf.jpg,stim/5.jpg,stim/1.jpg,stim/latef.jpg,AB,1,2,0,3,3,4,,,,,,,,,,,,,,,,,,4,0,1.08298176705,,,,,,2016_Jan_19_1123,P7,PLC_L_D2S1,NHGY,60.0179709619,
stim/posf.jpg,stim/negf.jpg,stim/6.jpg,stim/2.jpg,stim/latef.jpg,EF,1,2,0,4,4,45,,,,,,,,,,,,,,,,,,2,1,1.09963760874,,,,,,2016_Jan_19_1123,P7,PLC_L_D2S1,NHGY,60.0179709619,
stim/negf.jpg,stim/posf.jpg,stim/3.jpg,stim/4.jpg,stim/latef.jpg,CD,1,2,0,5,5,27,,,,,,,,,,,,,,,,,,2,1,1.14967888061,,,,,,2016_Jan_19_1123,P7,PLC_L_D2S1,NHGY,60.0179709619,
stim/negf.jpg,stim/posf.jpg,stim/4.jpg,stim/3.jpg,stim/latef.jpg,CD,2,4,0,6,6,38,,,,,,,,,,,,,,,,,,2,0,0.833046509419,,,,,,2016_Jan_19_1123,P7,PLC_L_D2S1,NHGY,60.0179709619,
stim/negf.jpg,stim/posf.jpg,stim/1.jpg,stim/5.jpg,stim/latef.jpg,AB,2,4,0,7,7,18,,,,,,,,,,,,,,,,,,4,1,0.666432565165,,,,,,2016_Jan_19_1123,P7,PLC_L_D2S1,NHGY,60.0179709619,
stim/posf.jpg,stim/negf.jpg,stim/2.jpg,stim/6.jpg,stim/latef.jpg,EF,2,4,0,8,8,54,,,,,,,,,,,,,,,,,,4,1,1.06632233741,,,,,,2016_Jan_19_1123,P7,PLC_L_D2S1,NHGY,60.0179709619,
stim/negf.jpg,stim/posf.jpg,stim/6.jpg,stim/2.jpg,stim/latef.jpg,EF,1,2,0,9,9,48,,,,,,,,,,,,,,,,,,2,1,0.699747460545,,,,,,2016_Jan_19_1123,P7,PLC_L_D2S1,NHGY,60.0179709619,
stim/posf.jpg,stim/negf.jpg,stim/4.jpg,stim/3.jpg,stim/latef.jpg,CD,2,4,0,10,10,32,,,,,,,,,,,,,,,,,,2,0,0.933034016285,,,,,,2016_Jan_19_1123,P7,PLC_L_D2S1,NHGY,60.0179709619,
stim/posf.jpg,stim/negf.jpg,stim/6.jpg,stim/2.jpg,stim/latef.jpg,EF,1,2,0,11,11,43,,,,,,,,,,,,,,,,,,2,1,0.849729689246,,,,,,2016_Jan_19_1123,P7,PLC_L_D2S1,NHGY,60.0179709619,
stim/posf.jpg,stim/negf.jpg,stim/1.jpg,stim/5.jpg,stim/latef.jpg,AB,2,4,0,12,12,11,,,,,,,,,,,,,,,,,,2,0,0.699783502379,,,,,,2016_Jan_19_1123,P7,PLC_L_D2S1,NHGY,60.0179709619,
stim/negf.jpg,stim/posf.jpg,stim/3.jpg,stim/4.jpg,stim/latef.jpg,CD,1,2,0,13,13,29,,,,,,,,,,,,,,,,,,4,0,0.783119516389,,,,,,2016_Jan_19_1123,P7,PLC_L_D2S1,NHGY,60.0179709619,
stim/posf.jpg,stim/negf.jpg,stim/4.jpg,stim/3.jpg,stim/latef.jpg,CD,2,4,0,14,14,34,,,,,,,,,,,,,,,,,,2,0,0.766382333968,,,,,,2016_Jan_19_1123,P7,PLC_L_D2S1,NHGY,60.0179709619,
stim/posf.jpg,stim/negf.jpg,stim/3.jpg,stim/4.jpg,stim/latef.jpg,CD,1,2,0,15,15,22,,,,,,,,,,,,,,,,,,2,1,0.78306747468,,,,,,2016_Jan_19_1123,P7,PLC_L_D2S1,NHGY,60.0179709619,
stim/posf.jpg,stim/negf.jpg,stim/1.jpg,stim/5.jpg,stim/latef.jpg,AB,2,4,0,16,16,13,,,,,,,,,,,,,,,,,,2,0,1.0329900918,,,,,,2016_Jan_19_1123,P7,PLC_L_D2S1,NHGY,60.0179709619,
stim/negf.jpg,stim/posf.jpg,stim/5.jpg,stim/1.jpg,stim/latef.jpg,AB,1,2,0,17,17,9,,,,,,,,,,,,,,,,,,2,1,0.749744747794,,,,,,2016_Jan_19_1123,P7,PLC_L_D2S1,NHGY,60.0179709619,
stim/posf.jpg,stim/negf.jpg,stim/4.jpg,stim/3.jpg,stim/latef.jpg,CD,2,4,0,18,18,36,,,,,,,,,,,,,,,,,,2,0,0.766402700727,,,,,,2016_Jan_19_1123,P7,PLC_L_D2S1,NHGY,60.0179709619,
stim/negf.jpg,stim/posf.jpg,stim/2.jpg,stim/6.jpg,stim/latef.jpg,EF,2,4,0,19,19,57,,,,,,,,,,,,,,,,,,4,1,0.816391618107,,,,,,2016_Jan_19_1123,P7,PLC_L_D2S1,NHGY,60.0179709619,
stim/posf.jpg,stim/negf.jpg,stim/6.jpg,stim/2.jpg,stim/latef.jpg,EF,1,2,0,20,20,44,,,,,,,,,,,,,,,,,,4,0,0.883069730291,,,,,,2016_Jan_19_1123,P7,PLC_L_D2S1,NHGY,60.0179709619,
stim/posf.jpg,stim/negf.jpg,stim/2.jpg,stim/6.jpg,stim/latef.jpg,EF,2,4,0,21,21,50,,,,,,,,,,,,,,,,,,4,1,0.933018470547,,,,,,2016_Jan_19_1123,P7,PLC_L_D2S1,NHGY,60.0179709619,
stim/negf.jpg,stim/posf.jpg,stim/1.jpg,stim/5.jpg,stim/latef.jpg,AB,2,4,0,22,22,19,,,,,,,,,,,,,,,,,,4,1,0.899697581219,,,,,,2016_Jan_19_1123,P7,PLC_L_D2S1,NHGY,60.0179709619,
stim/posf.jpg,stim/negf.jpg,stim/3.jpg,stim/4.jpg,stim/latef.jpg,CD,1,2,0,23,23,21,,,,,,,,,,,,,,,,,,4,0,0.88306715287,,,,,,2016_Jan_19_1123,P7,PLC_L_D2S1,NHGY,60.0179709619,
stim/posf.jpg,stim/negf.jpg,stim/2.jpg,stim/6.jpg,stim/latef.jpg,EF,2,4,0,24,24,55,,,,,,,,,,,,,,,,,,2,0,0.666500152642,,,,,,2016_Jan_19_1123,P7,PLC_L_D2S1,NHGY,60.0179709619,
stim/posf.jpg,stim/negf.jpg,stim/1.jpg,stim/5.jpg,stim/latef.jpg,AB,2,4,0,25,25,10,,,,,,,,,,,,,,,,,,2,0,0.79975758979,,,,,,2016_Jan_19_1123,P7,PLC_L_D2S1,NHGY,60.0179709619,
stim/posf.jpg,stim/negf.jpg,stim/5.jpg,stim/1.jpg,stim/latef.jpg,AB,1,2,0,26,26,1,,,,,,,,,,,,,,,,,,2,1,0.799734747867,,,,,,2016_Jan_19_1123,P7,PLC_L_D2S1,NHGY,60.0179709619,
stim/posf.jpg,stim/negf.jpg,stim/2.jpg,stim/6.jpg,stim/latef.jpg,EF,2,4,0,27,27,52,,,,,,,,,,,,,,,,,,4,1,0.833062930353,,,,,,2016_Jan_19_1123,P7,PLC_L_D2S1,NHGY,60.0179709619,
stim/posf.jpg,stim/negf.jpg,stim/4.jpg,stim/3.jpg,stim/latef.jpg,CD,2,4,0,28,28,31,,,,,,,,,,,,,,,,,,2,0,0.833046506421,,,,,,2016_Jan_19_1123,P7,PLC_L_D2S1,NHGY,60.0179709619,
stim/posf.jpg,stim/negf.jpg,stim/1.jpg,stim/5.jpg,stim/latef.jpg,AB,2,4,0,29,29,16,,,,,,,,,,,,,,,,,,2,0,1.04963301028,,,,,,2016_Jan_19_1123,P7,PLC_L_D2S1,NHGY,60.0179709619,
stim/posf.jpg,stim/negf.jpg,stim/4.jpg,stim/3.jpg,stim/latef.jpg,CD,2,4,0,30,30,30,,,,,,,,,,,,,,,,,,2,0,0.882931890737,,,,,,2016_Jan_19_1123,P7,PLC_L_D2S1,NHGY,60.0179709619,
stim/posf.jpg,stim/negf.jpg,stim/3.jpg,stim/4.jpg,stim/latef.jpg,CD,1,2,0,31,31,24,,,,,,,,,,,,,,,,,,2,1,1.23292077503,,,,,,2016_Jan_19_1123,P7,PLC_L_D2S1,NHGY,60.0179709619,
stim/negf.jpg,stim/posf.jpg,stim/2.jpg,stim/6.jpg,stim/latef.jpg,EF,2,4,0,32,32,59,,,,,,,,,,,,,,,,,,4,1,1.08296429951,,,,,,2016_Jan_19_1123,P7,PLC_L_D2S1,NHGY,60.0179709619,
stim/negf.jpg,stim/posf.jpg,stim/5.jpg,stim/1.jpg,stim/latef.jpg,AB,1,2,0,33,33,8,,,,,,,,,,,,,,,,,,4,0,0.833041201186,,,,,,2016_Jan_19_1123,P7,PLC_L_D2S1,NHGY,60.0179709619,
stim/posf.jpg,stim/negf.jpg,stim/6.jpg,stim/2.jpg,stim/latef.jpg,EF,1,2,0,34,34,40,,,,,,,,,,,,,,,,,,2,1,1.03292699152,,,,,,2016_Jan_19_1123,P7,PLC_L_D2S1,NHGY,60.0179709619,
stim/posf.jpg,stim/negf.jpg,stim/1.jpg,stim/5.jpg,stim/latef.jpg,AB,2,4,0,35,35,12,,,,,,,,,,,,,,,,,,2,0,0.966351816911,,,,,,2016_Jan_19_1123,P7,PLC_L_D2S1,NHGY,60.0179709619,
stim/negf.jpg,stim/posf.jpg,stim/6.jpg,stim/2.jpg,stim/latef.jpg,EF,1,2,0,36,36,49,,,,,,,,,,,,,,,,,,4,0,0.766421205859,,,,,,2016_Jan_19_1123,P7,PLC_L_D2S1,NHGY,60.0179709619,
stim/posf.jpg,stim/negf.jpg,stim/4.jpg,stim/3.jpg,stim/latef.jpg,CD,2,4,0,37,37,33,,,,,,,,,,,,,,,,,,4,1,0.982987794079,,,,,,2016_Jan_19_1123,P7,PLC_L_D2S1,NHGY,60.0179709619,
stim/negf.jpg,stim/posf.jpg,stim/4.jpg,stim/3.jpg,stim/latef.jpg,CD,2,4,0,38,38,39,,,,,,,,,,,,,,,,,,4,1,1.06631339312,,,,,,2016_Jan_19_1123,P7,PLC_L_D2S1,NHGY,60.0179709619,
stim/posf.jpg,stim/negf.jpg,stim/1.jpg,stim/5.jpg,stim/latef.jpg,AB,2,4,0,39,39,17,,,,,,,,,,,,,,,,,,2,0,1.01641972616,,,,,,2016_Jan_19_1123,P7,PLC_L_D2S1,NHGY,60.0179709619,
stim/negf.jpg,stim/posf.jpg,stim/6.jpg,stim/2.jpg,stim/latef.jpg,EF,1,2,0,40,40,47,,,,,,,,,,,,,,,,,,4,0,0.73308322794,,,,,,2016_Jan_19_1123,P7,PLC_L_D2S1,NHGY,60.0179709619,
stim/negf.jpg,stim/posf.jpg,stim/4.jpg,stim/3.jpg,stim/latef.jpg,CD,2,4,0,41,41,37,,,,,,,,,,,,,,,,,,4,1,1.2329159089,,,,,,2016_Jan_19_1123,P7,PLC_L_D2S1,NHGY,60.0179709619,
stim/negf.jpg,stim/posf.jpg,stim/3.jpg,stim/4.jpg,stim/latef.jpg,CD,1,2,0,42,42,28,,,,,,,,,,,,,,,,,,2,1,0.98302231112,,,,,,2016_Jan_19_1123,P7,PLC_L_D2S1,NHGY,60.0179709619,
stim/posf.jpg,stim/negf.jpg,stim/3.jpg,stim/4.jpg,stim/latef.jpg,CD,1,2,0,43,43,25,,,,,,,,,,,,,,,,,,2,1,1.08296202886,,,,,,2016_Jan_19_1123,P7,PLC_L_D2S1,NHGY,60.0179709619,
stim/negf.jpg,stim/posf.jpg,stim/2.jpg,stim/6.jpg,stim/latef.jpg,EF,2,4,0,44,44,56,,,,,,,,,,,,,,,,,,2,0,0.982998885724,,,,,,2016_Jan_19_1123,P7,PLC_L_D2S1,NHGY,60.0179709619,
stim/posf.jpg,stim/negf.jpg,stim/3.jpg,stim/4.jpg,stim/latef.jpg,CD,1,2,0,45,45,20,,,,,,,,,,,,,,,,,,4,0,0.849714648764,,,,,,2016_Jan_19_1123,P7,PLC_L_D2S1,NHGY,60.0179709619,
stim/posf.jpg,stim/negf.jpg,stim/5.jpg,stim/1.jpg,stim/latef.jpg,AB,1,2,0,46,46,3,,,,,,,,,,,,,,,,,,2,1,0.916355723646,,,,,,2016_Jan_19_1123,P7,PLC_L_D2S1,NHGY,60.0179709619,
stim/posf.jpg,stim/negf.jpg,stim/6.jpg,stim/2.jpg,stim/latef.jpg,EF,1,2,0,47,47,41,,,,,,,,,,,,,,,,,,4,0,1.1829333614,,,,,,2016_Jan_19_1123,P7,PLC_L_D2S1,NHGY,60.0179709619,
stim/posf.jpg,stim/negf.jpg,stim/3.jpg,stim/4.jpg,stim/latef.jpg,CD,1,2,0,48,48,26,,,,,,,,,,,,,,,,,,2,1,1.03298284675,,,,,,2016_Jan_19_1123,P7,PLC_L_D2S1,NHGY,60.0179709619,
stim/negf.jpg,stim/posf.jpg,stim/6.jpg,stim/2.jpg,stim/latef.jpg,EF,1,2,0,49,49,46,,,,,,,,,,,,,,,,,,4,0,1.2162474628,,,,,,2016_Jan_19_1123,P7,PLC_L_D2S1,NHGY,60.0179709619,
stim/posf.jpg,stim/negf.jpg,stim/2.jpg,stim/6.jpg,stim/latef.jpg,EF,2,4,0,50,50,51,,,,,,,,,,,,,,,,,,2,0,0.633101943589,,,,,,2016_Jan_19_1123,P7,PLC_L_D2S1,NHGY,60.0179709619,
stim/posf.jpg,stim/negf.jpg,stim/3.jpg,stim/4.jpg,stim/latef.jpg,CD,1,2,0,51,51,23,,,,,,,,,,,,,,,,,,4,0,1.41620052481,,,,,,2016_Jan_19_1123,P7,PLC_L_D2S1,NHGY,60.0179709619,
stim/posf.jpg,stim/negf.jpg,stim/5.jpg,stim/1.jpg,stim/latef.jpg,AB,1,2,0,52,52,0,,,,,,,,,,,,,,,,,,2,1,1.19961036985,,,,,,2016_Jan_19_1123,P7,PLC_L_D2S1,NHGY,60.0179709619,
stim/posf.jpg,stim/negf.jpg,stim/5.jpg,stim/1.jpg,stim/latef.jpg,AB,1,2,0,53,53,7,,,,,,,,,,,,,,,,,,4,0,1.28283422231,,,,,,2016_Jan_19_1123,P7,PLC_L_D2S1,NHGY,60.0179709619,
stim/posf.jpg,stim/negf.jpg,stim/1.jpg,stim/5.jpg,stim/latef.jpg,AB,2,4,0,54,54,15,,,,,,,,,,,,,,,,,,2,0,1.29953652078,,,,,,2016_Jan_19_1123,P7,PLC_L_D2S1,NHGY,60.0179709619,
stim/posf.jpg,stim/negf.jpg,stim/1.jpg,stim/5.jpg,stim/latef.jpg,AB,2,4,0,55,55,14,,,,,,,,,,,,,,,,,,4,1,0.866378276856,,,,,,2016_Jan_19_1123,P7,PLC_L_D2S1,NHGY,60.0179709619,
stim/negf.jpg,stim/posf.jpg,stim/2.jpg,stim/6.jpg,stim/latef.jpg,EF,2,4,0,56,56,58,,,,,,,,,,,,,,,,,,2,0,0.666441780137,,,,,,2016_Jan_19_1123,P7,PLC_L_D2S1,NHGY,60.0179709619,
stim/posf.jpg,stim/negf.jpg,stim/5.jpg,stim/1.jpg,stim/latef.jpg,AB,1,2,0,57,57,2,,,,,,,,,,,,,,,,,,2,1,0.866365696493,,,,,,2016_Jan_19_1123,P7,PLC_L_D2S1,NHGY,60.0179709619,
stim/posf.jpg,stim/negf.jpg,stim/5.jpg,stim/1.jpg,stim/latef.jpg,AB,1,2,0,58,58,5,,,,,,,,,,,,,,,,,,4,0,0.816390493303,,,,,,2016_Jan_19_1123,P7,PLC_L_D2S1,NHGY,60.0179709619,
stim/posf.jpg,stim/negf.jpg,stim/5.jpg,stim/1.jpg,stim/latef.jpg,AB,1,2,0,59,59,6,,,,,,,,,,,,,,,,,,2,1,0.749747478592,,,,,,2016_Jan_19_1123,P7,PLC_L_D2S1,NHGY,60.0179709619,
,,,,,,,,,,,,,,,,,,,,,,,,,,,,,,,,0.9984375,0.234375,1,0,0,2016_Jan_19_1123,P7,PLC_L_D2S1,NHGY,60.0179709619,
stim/negf.jpg,stim/posf.jpg,stim/1.jpg,stim/5.jpg,stim/latef.jpg,AB,2,4,,,,,0,0,0,19,,,,,,,,,,,,,,4,1,1.04965454395,,,,,,2016_Jan_19_1123,P7,PLC_L_D2S1,NHGY,60.0179709619,
stim/negf.jpg,stim/posf.jpg,stim/1.jpg,stim/5.jpg,stim/latef.jpg,AB,2,4,,,,,0,1,1,18,,,,,,,,,,,,,,2,0,1.11629350456,,,,,,2016_Jan_19_1123,P7,PLC_L_D2S1,NHGY,60.0179709619,
stim/posf.jpg,stim/negf.jpg,stim/2.jpg,stim/6.jpg,stim/latef.jpg,EF,2,4,,,,,0,2,2,52,,,,,,,,,,,,,,2,0,1.06630565785,,,,,,2016_Jan_19_1123,P7,PLC_L_D2S1,NHGY,60.0179709619,
stim/posf.jpg,stim/negf.jpg,stim/2.jpg,stim/6.jpg,stim/latef.jpg,EF,2,4,,,,,0,3,3,54,,,,,,,,,,,,,,4,1,0.733077516707,,,,,,2016_Jan_19_1123,P7,PLC_L_D2S1,NHGY,60.0179709619,
stim/posf.jpg,stim/negf.jpg,stim/1.jpg,stim/5.jpg,stim/latef.jpg,AB,2,4,,,,,0,4,4,10,,,,,,,,,,,,,,4,1,1.41614225759,,,,,,2016_Jan_19_1123,P7,PLC_L_D2S1,NHGY,60.0179709619,
stim/posf.jpg,stim/negf.jpg,stim/4.jpg,stim/3.jpg,stim/latef.jpg,CD,2,4,,,,,0,5,5,35,,,,,,,,,,,,,,4,1,1.13296185742,,,,,,2016_Jan_19_1123,P7,PLC_L_D2S1,NHGY,60.0179709619,
stim/posf.jpg,stim/negf.jpg,stim/3.jpg,stim/4.jpg,stim/latef.jpg,CD,1,2,,,,,0,6,6,25,,,,,,,,,,,,,,2,1,0.916358171744,,,,,,2016_Jan_19_1123,P7,PLC_L_D2S1,NHGY,60.0179709619,
stim/posf.jpg,stim/negf.jpg,stim/3.jpg,stim/4.jpg,stim/latef.jpg,CD,1,2,,,,,0,7,7,22,,,,,,,,,,,,,,2,1,0.533174944547,,,,,,2016_Jan_19_1123,P7,PLC_L_D2S1,NHGY,60.0179709619,
stim/posf.jpg,stim/negf.jpg,stim/2.jpg,stim/6.jpg,stim/latef.jpg,EF,2,4,,,,,0,8,8,50,,,,,,,,,,,,,,2,0,1.58282493215,,,,,,2016_Jan_19_1123,P7,PLC_L_D2S1,NHGY,60.0179709619,
stim/posf.jpg,stim/negf.jpg,stim/6.jpg,stim/2.jpg,stim/latef.jpg,EF,1,2,,,,,0,9,9,42,,,,,,,,,,,,,,2,1,1.14960965708,,,,,,2016_Jan_19_1123,P7,PLC_L_D2S1,NHGY,60.0179709619,
stim/posf.jpg,stim/negf.jpg,stim/3.jpg,stim/4.jpg,stim/latef.jpg,CD,1,2,,,,,0,10,10,24,,,,,,,,,,,,,,2,1,0.899644315461,,,,,,2016_Jan_19_1123,P7,PLC_L_D2S1,NHGY,60.0179709619,
stim/posf.jpg,stim/negf.jpg,stim/1.jpg,stim/5.jpg,stim/latef.jpg,AB,2,4,,,,,0,11,11,14,,,,,,,,,,,,,,4,1,1.18284697708,,,,,,2016_Jan_19_1123,P7,PLC_L_D2S1,NHGY,60.0179709619,
stim/negf.jpg,stim/posf.jpg,stim/4.jpg,stim/3.jpg,stim/latef.jpg,CD,2,4,,,,,0,12,12,37,,,,,,,,,,,,,,4,1,0.883047664305,,,,,,2016_Jan_19_1123,P7,PLC_L_D2S1,NHGY,60.0179709619,
stim/posf.jpg,stim/negf.jpg,stim/5.jpg,stim/1.jpg,stim/latef.jpg,AB,1,2,,,,,0,13,13,4,,,,,,,,,,,,,,4,0,0.966357110097,,,,,,2016_Jan_19_1123,P7,PLC_L_D2S1,NHGY,60.0179709619,
stim/negf.jpg,stim/posf.jpg,stim/4.jpg,stim/3.jpg,stim/latef.jpg,CD,2,4,,,,,0,14,14,39,,,,,,,,,,,,,,4,1,1.23296103638,,,,,,2016_Jan_19_1123,P7,PLC_L_D2S1,NHGY,60.0179709619,
stim/negf.jpg,stim/posf.jpg,stim/6.jpg,stim/2.jpg,stim/latef.jpg,EF,1,2,,,,,0,15,15,46,,,,,,,,,,,,,,2,1,1.29956347095,,,,,,2016_Jan_19_1123,P7,PLC_L_D2S1,NHGY,60.0179709619,
stim/posf.jpg,stim/negf.jpg,stim/4.jpg,stim/3.jpg,stim/latef.jpg,CD,2,4,,,,,0,16,16,30,,,,,,,,,,,,,,4,1,0.86639842407,,,,,,2016_Jan_19_1123,P7,PLC_L_D2S1,NHGY,60.0179709619,
stim/posf.jpg,stim/negf.jpg,stim/5.jpg,stim/1.jpg,stim/latef.jpg,AB,1,2,,,,,0,17,17,2,,,,,,,,,,,,,,2,1,1.04963982827,,,,,,2016_Jan_19_1123,P7,PLC_L_D2S1,NHGY,60.0179709619,
stim/negf.jpg,stim/posf.jpg,stim/4.jpg,stim/3.jpg,stim/latef.jpg,CD,2,4,,,,,0,18,18,38,,,,,,,,,,,,,,4,1,0.999651981561,,,,,,2016_Jan_19_1123,P7,PLC_L_D2S1,NHGY,60.0179709619,
stim/posf.jpg,stim/negf.jpg,stim/6.jpg,stim/2.jpg,stim/latef.jpg,EF,1,2,,,,,0,19,19,44,,,,,,,,,,,,,,4,0,1.04963567792,,,,,,2016_Jan_19_1123,P7,PLC_L_D2S1,NHGY,60.0179709619,
stim/posf.jpg,stim/negf.jpg,stim/5.jpg,stim/1.jpg,stim/latef.jpg,AB,1,2,,,,,0,20,20,7,,,,,,,,,,,,,,4,0,1.24959260457,,,,,,2016_Jan_19_1123,P7,PLC_L_D2S1,NHGY,60.0179709619,
stim/posf.jpg,stim/negf.jpg,stim/6.jpg,stim/2.jpg,stim/latef.jpg,EF,1,2,,,,,0,21,21,45,,,,,,,,,,,,,,4,0,1.14965598153,,,,,,2016_Jan_19_1123,P7,PLC_L_D2S1,NHGY,60.0179709619,
stim/negf.jpg,stim/posf.jpg,stim/2.jpg,stim/6.jpg,stim/latef.jpg,EF,2,4,,,,,0,22,22,56,,,,,,,,,,,,,,2,0,1.34955830107,,,,,,2016_Jan_19_1123,P7,PLC_L_D2S1,NHGY,60.0179709619,
stim/posf.jpg,stim/negf.jpg,stim/2.jpg,stim/6.jpg,stim/latef.jpg,EF,2,4,,,,,0,23,23,55,,,,,,,,,,,,,,2,0,0.716441103461,,,,,,2016_Jan_19_1123,P7,PLC_L_D2S1,NHGY,60.0179709619,
stim/posf.jpg,stim/negf.jpg,stim/1.jpg,stim/5.jpg,stim/latef.jpg,AB,2,4,,,,,0,24,24,12,,,,,,,,,,,,,,2,0,1.31623561327,,,,,,2016_Jan_19_1123,P7,PLC_L_D2S1,NHGY,60.0179709619,
stim/negf.jpg,stim/posf.jpg,stim/5.jpg,stim/1.jpg,stim/latef.jpg,AB,1,2,,,,,0,25,25,8,,,,,,,,,,,,,,4,0,1.06632246074,,,,,,2016_Jan_19_1123,P7,PLC_L_D2S1,NHGY,60.0179709619,
stim/posf.jpg,stim/negf.jpg,stim/1.jpg,stim/5.jpg,stim/latef.jpg,AB,2,4,,,,,0,26,26,17,,,,,,,,,,,,,,2,0,1.23292842309,,,,,,2016_Jan_19_1123,P7,PLC_L_D2S1,NHGY,60.0179709619,
stim/posf.jpg,stim/negf.jpg,stim/3.jpg,stim/4.jpg,stim/latef.jpg,CD,1,2,,,,,0,27,27,20,,,,,,,,,,,,,,2,1,1.34955818679,,,,,,2016_Jan_19_1123,P7,PLC_L_D2S1,NHGY,60.0179709619,
stim/posf.jpg,stim/negf.jpg,stim/1.jpg,stim/5.jpg,stim/latef.jpg,AB,2,4,,,,,0,28,28,15,,,,,,,,,,,,,,2,0,1.2329156683,,,,,,2016_Jan_19_1123,P7,PLC_L_D2S1,NHGY,60.0179709619,
stim/posf.jpg,stim/negf.jpg,stim/6.jpg,stim/2.jpg,stim/latef.jpg,EF,1,2,,,,,0,29,29,40,,,,,,,,,,,,,,4,0,1.03303156818,,,,,,2016_Jan_19_1123,P7,PLC_L_D2S1,NHGY,60.0179709619,
stim/posf.jpg,stim/negf.jpg,stim/1.jpg,stim/5.jpg,stim/latef.jpg,AB,2,4,,,,,0,30,30,16,,,,,,,,,,,,,,4,1,1.01634140796,,,,,,2016_Jan_19_1123,P7,PLC_L_D2S1,NHGY,60.0179709619,
stim/negf.jpg,stim/posf.jpg,stim/3.jpg,stim/4.jpg,stim/latef.jpg,CD,1,2,,,,,0,31,31,27,,,,,,,,,,,,,,2,1,1.44952241862,,,,,,2016_Jan_19_1123,P7,PLC_L_D2S1,NHGY,60.0179709619,
stim/posf.jpg,stim/negf.jpg,stim/5.jpg,stim/1.jpg,stim/latef.jpg,AB,1,2,,,,,0,32,32,1,,,,,,,,,,,,,,4,0,1.19959861955,,,,,,2016_Jan_19_1123,P7,PLC_L_D2S1,NHGY,60.0179709619,
stim/posf.jpg,stim/negf.jpg,stim/5.jpg,stim/1.jpg,stim/latef.jpg,AB,1,2,,,,,0,33,33,5,,,,,,,,,,,,,,4,0,1.04965912737,,,,,,2016_Jan_19_1123,P7,PLC_L_D2S1,NHGY,60.0179709619,
stim/posf.jpg,stim/negf.jpg,stim/2.jpg,stim/6.jpg,stim/latef.jpg,EF,2,4,,,,,0,34,34,51,,,,,,,,,,,,,,2,0,1.01639955789,,,,,,2016_Jan_19_1123,P7,PLC_L_D2S1,NHGY,60.0179709619,
stim/posf.jpg,stim/negf.jpg,stim/6.jpg,stim/2.jpg,stim/latef.jpg,EF,1,2,,,,,0,35,35,43,,,,,,,,,,,,,,4,0,0.833055068753,,,,,,2016_Jan_19_1123,P7,PLC_L_D2S1,NHGY,60.0179709619,
stim/posf.jpg,stim/negf.jpg,stim/3.jpg,stim/4.jpg,stim/latef.jpg,CD,1,2,,,,,0,36,36,26,,,,,,,,,,,,,,2,1,1.04965154247,,,,,,2016_Jan_19_1123,P7,PLC_L_D2S1,NHGY,60.0179709619,
stim/negf.jpg,stim/posf.jpg,stim/2.jpg,stim/6.jpg,stim/latef.jpg,EF,2,4,,,,,0,37,37,57,,,,,,,,,,,,,,2,0,0.933005024024,,,,,,2016_Jan_19_1123,P7,PLC_L_D2S1,NHGY,60.0179709619,
stim/negf.jpg,stim/posf.jpg,stim/2.jpg,stim/6.jpg,stim/latef.jpg,EF,2,4,,,,,0,38,38,58,,,,,,,,,,,,,,2,0,1.16626239503,,,,,,2016_Jan_19_1123,P7,PLC_L_D2S1,NHGY,60.0179709619,
stim/negf.jpg,stim/posf.jpg,stim/3.jpg,stim/4.jpg,stim/latef.jpg,CD,1,2,,,,,0,39,39,29,,,,,,,,,,,,,,2,1,0.966305742069,,,,,,2016_Jan_19_1123,P7,PLC_L_D2S1,NHGY,60.0179709619,
stim/posf.jpg,stim/negf.jpg,stim/3.jpg,stim/4.jpg,stim/latef.jpg,CD,1,2,,,,,0,40,40,23,,,,,,,,,,,,,,4,0,0.733075850556,,,,,,2016_Jan_19_1123,P7,PLC_L_D2S1,NHGY,60.0179709619,
stim/posf.jpg,stim/negf.jpg,stim/5.jpg,stim/1.jpg,stim/latef.jpg,AB,1,2,,,,,0,41,41,0,,,,,,,,,,,,,,2,1,1.13295199284,,,,,,2016_Jan_19_1123,P7,PLC_L_D2S1,NHGY,60.0179709619,
stim/negf.jpg,stim/posf.jpg,stim/2.jpg,stim/6.jpg,stim/latef.jpg,EF,2,4,,,,,0,42,42,59,,,,,,,,,,,,,,4,1,1.43386337245,,,,,,2016_Jan_19_1123,P7,PLC_L_D2S1,NHGY,60.0179709619,
stim/posf.jpg,stim/negf.jpg,stim/3.jpg,stim/4.jpg,stim/latef.jpg,CD,1,2,,,,,0,43,43,21,,,,,,,,,,,,,,2,1,0.833059231125,,,,,,2016_Jan_19_1123,P7,PLC_L_D2S1,NHGY,60.0179709619,
stim/negf.jpg,stim/posf.jpg,stim/6.jpg,stim/2.jpg,stim/latef.jpg,EF,1,2,,,,,0,44,44,47,,,,,,,,,,,,,,2,1,1.29957610545,,,,,,2016_Jan_19_1123,P7,PLC_L_D2S1,NHGY,60.0179709619,
stim/negf.jpg,stim/posf.jpg,stim/6.jpg,stim/2.jpg,stim/latef.jpg,EF,1,2,,,,,0,45,45,49,,,,,,,,,,,,,,2,1,0.833071255111,,,,,,2016_Jan_19_1123,P7,PLC_L_D2S1,NHGY,60.0179709619,
stim/posf.jpg,stim/negf.jpg,stim/6.jpg,stim/2.jpg,stim/latef.jpg,EF,1,2,,,,,0,46,46,41,,,,,,,,,,,,,,4,0,0.933025366729,,,,,,2016_Jan_19_1123,P7,PLC_L_D2S1,NHGY,60.0179709619,
stim/negf.jpg,stim/posf.jpg,stim/6.jpg,stim/2.jpg,stim/latef.jpg,EF,1,2,,,,,0,47,47,48,,,,,,,,,,,,,,2,1,1.26623420276,,,,,,2016_Jan_19_1123,P7,PLC_L_D2S1,NHGY,60.0179709619,
stim/posf.jpg,stim/negf.jpg,stim/1.jpg,stim/5.jpg,stim/latef.jpg,AB,2,4,,,,,0,48,48,13,,,,,,,,,,,,,,2,0,1.33289283539,,,,,,2016_Jan_19_1123,P7,PLC_L_D2S1,NHGY,60.0179709619,
stim/posf.jpg,stim/negf.jpg,stim/4.jpg,stim/3.jpg,stim/latef.jpg,CD,2,4,,,,,0,49,49,34,,,,,,,,,,,,,,4,1,1.01631776303,,,,,,2016_Jan_19_1123,P7,PLC_L_D2S1,NHGY,60.0179709619,
stim/posf.jpg,stim/negf.jpg,stim/1.jpg,stim/5.jpg,stim/latef.jpg,AB,2,4,,,,,0,50,50,11,,,,,,,,,,,,,,4,1,0.949687307613,,,,,,2016_Jan_19_1123,P7,PLC_L_D2S1,NHGY,60.0179709619,
stim/posf.jpg,stim/negf.jpg,stim/2.jpg,stim/6.jpg,stim/latef.jpg,EF,2,4,,,,,0,51,51,53,,,,,,,,,,,,,,2,0,0.84970874204,,,,,,2016_Jan_19_1123,P7,PLC_L_D2S1,NHGY,60.0179709619,
stim/posf.jpg,stim/negf.jpg,stim/4.jpg,stim/3.jpg,stim/latef.jpg,CD,2,4,,,,,0,52,52,33,,,,,,,,,,,,,,2,0,0.849730552407,,,,,,2016_Jan_19_1123,P7,PLC_L_D2S1,NHGY,60.0179709619,
stim/negf.jpg,stim/posf.jpg,stim/5.jpg,stim/1.jpg,stim/latef.jpg,AB,1,2,,,,,0,53,53,9,,,,,,,,,,,,,,4,0,0.933012016452,,,,,,2016_Jan_19_1123,P7,PLC_L_D2S1,NHGY,60.0179709619,
stim/posf.jpg,stim/negf.jpg,stim/5.jpg,stim/1.jpg,stim/latef.jpg,AB,1,2,,,,,0,54,54,3,,,,,,,,,,,,,,4,0,1.48282400283,,,,,,2016_Jan_19_1123,P7,PLC_L_D2S1,NHGY,60.0179709619,
stim/posf.jpg,stim/negf.jpg,stim/5.jpg,stim/1.jpg,stim/latef.jpg,AB,1,2,,,,,0,55,55,6,,,,,,,,,,,,,,2,1,1.44952206976,,,,,,2016_Jan_19_1123,P7,PLC_L_D2S1,NHGY,60.0179709619,
stim/negf.jpg,stim/posf.jpg,stim/3.jpg,stim/4.jpg,stim/latef.jpg,CD,1,2,,,,,0,56,56,28,,,,,,,,,,,,,,2,1,1.18291303674,,,,,,2016_Jan_19_1123,P7,PLC_L_D2S1,NHGY,60.0179709619,
stim/posf.jpg,stim/negf.jpg,stim/4.jpg,stim/3.jpg,stim/latef.jpg,CD,2,4,,,,,0,57,57,31,,,,,,,,,,,,,,4,1,1.16628274073,,,,,,2016_Jan_19_1123,P7,PLC_L_D2S1,NHGY,60.0179709619,
stim/posf.jpg,stim/negf.jpg,stim/4.jpg,stim/3.jpg,stim/latef.jpg,CD,2,4,,,,,0,58,58,36,,,,,,,,,,,,,,4,1,0.916385368531,,,,,,2016_Jan_19_1123,P7,PLC_L_D2S1,NHGY,60.0179709619,
stim/posf.jpg,stim/negf.jpg,stim/4.jpg,stim/3.jpg,stim/latef.jpg,CD,2,4,,,,,0,59,59,32,,,,,,,,,,,,,,4,1,1.29956049053,,,,,,2016_Jan_19_1123,P7,PLC_L_D2S1,NHGY,60.0179709619,
,,,,,,,,,,,,,,,,,,,,,,,,,,,,,,,,0.9984375,0.234375,1,0,0,2016_Jan_19_1123,P7,PLC_L_D2S1,NHGY,60.0179709619,
stim/posf.jpg,stim/negf.jpg,stim/1.jpg,stim/5.jpg,stim/latef.jpg,AB,2,4,,,,,,,,,0,0,0,10,,,,,,,,,,2,0,1.08299257298,,,,,,2016_Jan_19_1123,P7,PLC_L_D2S1,NHGY,60.0179709619,
stim/negf.jpg,stim/posf.jpg,stim/1.jpg,stim/5.jpg,stim/latef.jpg,AB,2,4,,,,,,,,,0,1,1,19,,,,,,,,,,4,1,0.916349182342,,,,,,2016_Jan_19_1123,P7,PLC_L_D2S1,NHGY,60.0179709619,
stim/negf.jpg,stim/posf.jpg,stim/3.jpg,stim/4.jpg,stim/latef.jpg,CD,1,2,,,,,,,,,0,2,2,27,,,,,,,,,,2,1,1.04964908234,,,,,,2016_Jan_19_1123,P7,PLC_L_D2S1,NHGY,60.0179709619,
stim/posf.jpg,stim/negf.jpg,stim/1.jpg,stim/5.jpg,stim/latef.jpg,AB,2,4,,,,,,,,,0,3,3,11,,,,,,,,,,4,1,1.28290245337,,,,,,2016_Jan_19_1123,P7,PLC_L_D2S1,NHGY,60.0179709619,
stim/posf.jpg,stim/negf.jpg,stim/3.jpg,stim/4.jpg,stim/latef.jpg,CD,1,2,,,,,,,,,0,4,4,20,,,,,,,,,,4,0,1.28287852272,,,,,,2016_Jan_19_1123,P7,PLC_L_D2S1,NHGY,60.0179709619,
stim/posf.jpg,stim/negf.jpg,stim/5.jpg,stim/1.jpg,stim/latef.jpg,AB,1,2,,,,,,,,,0,5,5,5,,,,,,,,,,2,1,1.26628684296,,,,,,2016_Jan_19_1123,P7,PLC_L_D2S1,NHGY,60.0179709619,
stim/posf.jpg,stim/negf.jpg,stim/5.jpg,stim/1.jpg,stim/latef.jpg,AB,1,2,,,,,,,,,0,6,6,0,,,,,,,,,,2,1,0.599811048029,,,,,,2016_Jan_19_1123,P7,PLC_L_D2S1,NHGY,60.0179709619,
stim/negf.jpg,stim/posf.jpg,stim/2.jpg,stim/6.jpg,stim/latef.jpg,EF,2,4,,,,,,,,,0,7,7,58,,,,,,,,,,2,0,1.18291734047,,,,,,2016_Jan_19_1123,P7,PLC_L_D2S1,NHGY,60.0179709619,
stim/posf.jpg,stim/negf.jpg,stim/1.jpg,stim/5.jpg,stim/latef.jpg,AB,2,4,,,,,,,,,0,8,8,12,,,,,,,,,,4,1,1.04964811091,,,,,,2016_Jan_19_1123,P7,PLC_L_D2S1,NHGY,60.0179709619,
stim/negf.jpg,stim/posf.jpg,stim/4.jpg,stim/3.jpg,stim/latef.jpg,CD,2,4,,,,,,,,,0,9,9,39,,,,,,,,,,2,0,1.16622087052,,,,,,2016_Jan_19_1123,P7,PLC_L_D2S1,NHGY,60.0179709619,
stim/posf.jpg,stim/negf.jpg,stim/2.jpg,stim/6.jpg,stim/latef.jpg,EF,2,4,,,,,,,,,0,10,10,54,,,,,,,,,,2,0,0.849730552392,,,,,,2016_Jan_19_1123,P7,PLC_L_D2S1,NHGY,60.0179709619,
stim/posf.jpg,stim/negf.jpg,stim/5.jpg,stim/1.jpg,stim/latef.jpg,AB,1,2,,,,,,,,,0,11,11,3,,,,,,,,,,2,1,0.966352024421,,,,,,2016_Jan_19_1123,P7,PLC_L_D2S1,NHGY,60.0179709619,
stim/posf.jpg,stim/negf.jpg,stim/3.jpg,stim/4.jpg,stim/latef.jpg,CD,1,2,,,,,,,,,0,12,12,26,,,,,,,,,,4,0,0.933048524443,,,,,,2016_Jan_19_1123,P7,PLC_L_D2S1,NHGY,60.0179709619,
stim/negf.jpg,stim/posf.jpg,stim/3.jpg,stim/4.jpg,stim/latef.jpg,CD,1,2,,,,,,,,,0,13,13,29,,,,,,,,,,2,1,1.06630117969,,,,,,2016_Jan_19_1123,P7,PLC_L_D2S1,NHGY,60.0179709619,
stim/posf.jpg,stim/negf.jpg,stim/5.jpg,stim/1.jpg,stim/latef.jpg,AB,1,2,,,,,,,,,0,14,14,1,,,,,,,,,,4,0,1.44956174464,,,,,,2016_Jan_19_1123,P7,PLC_L_D2S1,NHGY,60.0179709619,
stim/posf.jpg,stim/negf.jpg,stim/2.jpg,stim/6.jpg,stim/latef.jpg,EF,2,4,,,,,,,,,0,15,15,51,,,,,,,,,,2,0,0.849712077354,,,,,,2016_Jan_19_1123,P7,PLC_L_D2S1,NHGY,60.0179709619,
stim/posf.jpg,stim/negf.jpg,stim/5.jpg,stim/1.jpg,stim/latef.jpg,AB,1,2,,,,,,,,,0,16,16,2,,,,,,,,,,2,1,1.01631836753,,,,,,2016_Jan_19_1123,P7,PLC_L_D2S1,NHGY,60.0179709619,
stim/posf.jpg,stim/negf.jpg,stim/2.jpg,stim/6.jpg,stim/latef.jpg,EF,2,4,,,,,,,,,0,17,17,52,,,,,,,,,,4,1,0.966381930964,,,,,,2016_Jan_19_1123,P7,PLC_L_D2S1,NHGY,60.0179709619,
stim/negf.jpg,stim/posf.jpg,stim/6.jpg,stim/2.jpg,stim/latef.jpg,EF,1,2,,,,,,,,,0,18,18,49,,,,,,,,,,2,1,0.966336057623,,,,,,2016_Jan_19_1123,P7,PLC_L_D2S1,NHGY,60.0179709619,
stim/negf.jpg,stim/posf.jpg,stim/6.jpg,stim/2.jpg,stim/latef.jpg,EF,1,2,,,,,,,,,0,19,19,46,,,,,,,,,,4,0,0.86637530243,,,,,,2016_Jan_19_1123,P7,PLC_L_D2S1,NHGY,60.0179709619,
stim/posf.jpg,stim/negf.jpg,stim/6.jpg,stim/2.jpg,stim/latef.jpg,EF,1,2,,,,,,,,,0,20,20,44,,,,,,,,,,4,0,0.649776212202,,,,,,2016_Jan_19_1123,P7,PLC_L_D2S1,NHGY,60.0179709619,
stim/negf.jpg,stim/posf.jpg,stim/4.jpg,stim/3.jpg,stim/latef.jpg,CD,2,4,,,,,,,,,0,21,21,37,,,,,,,,,,4,1,1.44955727551,,,,,,2016_Jan_19_1123,P7,PLC_L_D2S1,NHGY,60.0179709619,
stim/posf.jpg,stim/negf.jpg,stim/2.jpg,stim/6.jpg,stim/latef.jpg,EF,2,4,,,,,,,,,0,22,22,50,,,,,,,,,,2,0,0.699772864857,,,,,,2016_Jan_19_1123,P7,PLC_L_D2S1,NHGY,60.0179709619,
stim/posf.jpg,stim/negf.jpg,stim/2.jpg,stim/6.jpg,stim/latef.jpg,EF,2,4,,,,,,,,,0,23,23,53,,,,,,,,,,4,1,0.98303094563,,,,,,2016_Jan_19_1123,P7,PLC_L_D2S1,NHGY,60.0179709619,
stim/negf.jpg,stim/posf.jpg,stim/2.jpg,stim/6.jpg,stim/latef.jpg,EF,2,4,,,,,,,,,0,24,24,59,,,,,,,,,,4,1,0.733085170781,,,,,,2016_Jan_19_1123,P7,PLC_L_D2S1,NHGY,60.0179709619,
stim/posf.jpg,stim/negf.jpg,stim/1.jpg,stim/5.jpg,stim/latef.jpg,AB,2,4,,,,,,,,,0,25,25,17,,,,,,,,,,2,0,1.01633002459,,,,,,2016_Jan_19_1123,P7,PLC_L_D2S1,NHGY,60.0179709619,
stim/negf.jpg,stim/posf.jpg,stim/5.jpg,stim/1.jpg,stim/latef.jpg,AB,1,2,,,,,,,,,0,26,26,8,,,,,,,,,,2,1,1.29955801836,,,,,,2016_Jan_19_1123,P7,PLC_L_D2S1,NHGY,60.0179709619,
stim/posf.jpg,stim/negf.jpg,stim/2.jpg,stim/6.jpg,stim/latef.jpg,EF,2,4,,,,,,,,,0,27,27,55,,,,,,,,,,4,1,1.13299789325,,,,,,2016_Jan_19_1123,P7,PLC_L_D2S1,NHGY,60.0179709619,
stim/posf.jpg,stim/negf.jpg,stim/4.jpg,stim/3.jpg,stim/latef.jpg,CD,2,4,,,,,,,,,0,28,28,33,,,,,,,,,,2,0,0.916370622785,,,,,,2016_Jan_19_1123,P7,PLC_L_D2S1,NHGY,60.0179709619,
stim/posf.jpg,stim/negf.jpg,stim/3.jpg,stim/4.jpg,stim/latef.jpg,CD,1,2,,,,,,,,,0,29,29,22,,,,,,,,,,2,1,0.966352313146,,,,,,2016_Jan_19_1123,P7,PLC_L_D2S1,NHGY,60.0179709619,
stim/posf.jpg,stim/negf.jpg,stim/1.jpg,stim/5.jpg,stim/latef.jpg,AB,2,4,,,,,,,,,0,30,30,15,,,,,,,,,,4,1,1.13293900648,,,,,,2016_Jan_19_1123,P7,PLC_L_D2S1,NHGY,60.0179709619,
stim/negf.jpg,stim/posf.jpg,stim/6.jpg,stim/2.jpg,stim/latef.jpg,EF,1,2,,,,,,,,,0,31,31,48,,,,,,,,,,4,0,1.23297305735,,,,,,2016_Jan_19_1123,P7,PLC_L_D2S1,NHGY,60.0179709619,
stim/posf.jpg,stim/negf.jpg,stim/1.jpg,stim/5.jpg,stim/latef.jpg,AB,2,4,,,,,,,,,0,32,32,14,,,,,,,,,,4,1,1.14959712484,,,,,,2016_Jan_19_1123,P7,PLC_L_D2S1,NHGY,60.0179709619,
stim/posf.jpg,stim/negf.jpg,stim/4.jpg,stim/3.jpg,stim/latef.jpg,CD,2,4,,,,,,,,,0,33,33,35,,,,,,,,,,2,0,1.19960755482,,,,,,2016_Jan_19_1123,P7,PLC_L_D2S1,NHGY,60.0179709619,
stim/posf.jpg,stim/negf.jpg,stim/3.jpg,stim/4.jpg,stim/latef.jpg,CD,1,2,,,,,,,,,0,34,34,24,,,,,,,,,,2,1,1.08298365877,,,,,,2016_Jan_19_1123,P7,PLC_L_D2S1,NHGY,60.0179709619,
stim/posf.jpg,stim/negf.jpg,stim/4.jpg,stim/3.jpg,stim/latef.jpg,CD,2,4,,,,,,,,,0,35,35,36,,,,,,,,,,4,1,1.18298440763,,,,,,2016_Jan_19_1123,P7,PLC_L_D2S1,NHGY,60.0179709619,
stim/posf.jpg,stim/negf.jpg,stim/3.jpg,stim/4.jpg,stim/latef.jpg,CD,1,2,,,,,,,,,0,36,36,23,,,,,,,,,,2,1,0.899683716663,,,,,,2016_Jan_19_1123,P7,PLC_L_D2S1,NHGY,60.0179709619,
stim/posf.jpg,stim/negf.jpg,stim/4.jpg,stim/3.jpg,stim/latef.jpg,CD,2,4,,,,,,,,,0,37,37,30,,,,,,,,,,4,1,0.999581191121,,,,,,2016_Jan_19_1123,P7,PLC_L_D2S1,NHGY,60.0179709619,
stim/negf.jpg,stim/posf.jpg,stim/3.jpg,stim/4.jpg,stim/latef.jpg,CD,1,2,,,,,,,,,0,38,38,28,,,,,,,,,,2,1,1.1162692822,,,,,,2016_Jan_19_1123,P7,PLC_L_D2S1,NHGY,60.0179709619,
stim/posf.jpg,stim/negf.jpg,stim/6.jpg,stim/2.jpg,stim/latef.jpg,EF,1,2,,,,,,,,,0,39,39,40,,,,,,,,,,4,0,1.1996119157,,,,,,2016_Jan_19_1123,P7,PLC_L_D2S1,NHGY,60.0179709619,
stim/posf.jpg,stim/negf.jpg,stim/4.jpg,stim/3.jpg,stim/latef.jpg,CD,2,4,,,,,,,,,0,40,40,32,,,,,,,,,,4,1,1.26623527943,,,,,,2016_Jan_19_1123,P7,PLC_L_D2S1,NHGY,60.0179709619,
stim/posf.jpg,stim/negf.jpg,stim/5.jpg,stim/1.jpg,stim/latef.jpg,AB,1,2,,,,,,,,,0,41,41,6,,,,,,,,,,2,1,0.982997237617,,,,,,2016_Jan_19_1123,P7,PLC_L_D2S1,NHGY,60.0179709619,
stim/negf.jpg,stim/posf.jpg,stim/2.jpg,stim/6.jpg,stim/latef.jpg,EF,2,4,,,,,,,,,0,42,42,56,,,,,,,,,,4,1,1.1829374095,,,,,,2016_Jan_19_1123,P7,PLC_L_D2S1,NHGY,60.0179709619,
stim/posf.jpg,stim/negf.jpg,stim/6.jpg,stim/2.jpg,stim/latef.jpg,EF,1,2,,,,,,,,,0,43,43,42,,,,,,,,,,4,0,0.966343516207,,,,,,2016_Jan_19_1123,P7,PLC_L_D2S1,NHGY,60.0179709619,
stim/negf.jpg,stim/posf.jpg,stim/5.jpg,stim/1.jpg,stim/latef.jpg,AB,1,2,,,,,,,,,0,44,44,9,,,,,,,,,,2,1,1.11621159238,,,,,,2016_Jan_19_1123,P7,PLC_L_D2S1,NHGY,60.0179709619,
stim/posf.jpg,stim/negf.jpg,stim/3.jpg,stim/4.jpg,stim/latef.jpg,CD,1,2,,,,,,,,,0,45,45,21,,,,,,,,,,4,0,1.44946550777,,,,,,2016_Jan_19_1123,P7,PLC_L_D2S1,NHGY,60.0179709619,
stim/posf.jpg,stim/negf.jpg,stim/6.jpg,stim/2.jpg,stim/latef.jpg,EF,1,2,,,,,,,,,0,46,46,41,,,,,,,,,,4,0,1.33289999925,,,,,,2016_Jan_19_1123,P7,PLC_L_D2S1,NHGY,60.0179709619,
stim/posf.jpg,stim/negf.jpg,stim/1.jpg,stim/5.jpg,stim/latef.jpg,AB,2,4,,,,,,,,,0,47,47,13,,,,,,,,,,4,1,1.23290546387,,,,,,2016_Jan_19_1123,P7,PLC_L_D2S1,NHGY,60.0179709619,
stim/negf.jpg,stim/posf.jpg,stim/1.jpg,stim/5.jpg,stim/latef.jpg,AB,2,4,,,,,,,,,0,48,48,18,,,,,,,,,,None,0,,,,,,,2016_Jan_19_1123,P7,PLC_L_D2S1,NHGY,60.0179709619,
stim/posf.jpg,stim/negf.jpg,stim/4.jpg,stim/3.jpg,stim/latef.jpg,CD,2,4,,,,,,,,,0,49,49,34,,,,,,,,,,4,1,0.933061673219,,,,,,2016_Jan_19_1123,P7,PLC_L_D2S1,NHGY,60.0179709619,
stim/negf.jpg,stim/posf.jpg,stim/4.jpg,stim/3.jpg,stim/latef.jpg,CD,2,4,,,,,,,,,0,50,50,38,,,,,,,,,,2,0,0.783125546412,,,,,,2016_Jan_19_1123,P7,PLC_L_D2S1,NHGY,60.0179709619,
stim/posf.jpg,stim/negf.jpg,stim/3.jpg,stim/4.jpg,stim/latef.jpg,CD,1,2,,,,,,,,,0,51,51,25,,,,,,,,,,4,0,0.849703337561,,,,,,2016_Jan_19_1123,P7,PLC_L_D2S1,NHGY,60.0179709619,
stim/posf.jpg,stim/negf.jpg,stim/4.jpg,stim/3.jpg,stim/latef.jpg,CD,2,4,,,,,,,,,0,52,52,31,,,,,,,,,,2,0,0.89976287396,,,,,,2016_Jan_19_1123,P7,PLC_L_D2S1,NHGY,60.0179709619,
stim/negf.jpg,stim/posf.jpg,stim/2.jpg,stim/6.jpg,stim/latef.jpg,EF,2,4,,,,,,,,,0,53,53,57,,,,,,,,,,2,0,1.04963302832,,,,,,2016_Jan_19_1123,P7,PLC_L_D2S1,NHGY,60.0179709619,
stim/negf.jpg,stim/posf.jpg,stim/6.jpg,stim/2.jpg,stim/latef.jpg,EF,1,2,,,,,,,,,0,54,54,47,,,,,,,,,,4,0,1.01632529379,,,,,,2016_Jan_19_1123,P7,PLC_L_D2S1,NHGY,60.0179709619,
stim/posf.jpg,stim/negf.jpg,stim/6.jpg,stim/2.jpg,stim/latef.jpg,EF,1,2,,,,,,,,,0,55,55,45,,,,,,,,,,4,0,0.616455626659,,,,,,2016_Jan_19_1123,P7,PLC_L_D2S1,NHGY,60.0179709619,
stim/posf.jpg,stim/negf.jpg,stim/5.jpg,stim/1.jpg,stim/latef.jpg,AB,1,2,,,,,,,,,0,56,56,7,,,,,,,,,,2,1,0.833055336436,,,,,,2016_Jan_19_1123,P7,PLC_L_D2S1,NHGY,60.0179709619,
stim/posf.jpg,stim/negf.jpg,stim/6.jpg,stim/2.jpg,stim/latef.jpg,EF,1,2,,,,,,,,,0,57,57,43,,,,,,,,,,4,0,1.01632356449,,,,,,2016_Jan_19_1123,P7,PLC_L_D2S1,NHGY,60.0179709619,
stim/posf.jpg,stim/negf.jpg,stim/5.jpg,stim/1.jpg,stim/latef.jpg,AB,1,2,,,,,,,,,0,58,58,4,,,,,,,,,,2,1,1.03299023617,,,,,,2016_Jan_19_1123,P7,PLC_L_D2S1,NHGY,60.0179709619,
stim/posf.jpg,stim/negf.jpg,stim/1.jpg,stim/5.jpg,stim/latef.jpg,AB,2,4,,,,,,,,,0,59,59,16,,,,,,,,,,4,1,1.0996358283,,,,,,2016_Jan_19_1123,P7,PLC_L_D2S1,NHGY,60.0179709619,
,,,,,,,,,,,,,,,,,,,,,,,,,,,,,,,,0.9984375,0.234375,1,0,0,2016_Jan_19_1123,P7,PLC_L_D2S1,NHGY,60.0179709619,
stim/negf.jpg,stim/posf.jpg,stim/2.jpg,stim/6.jpg,stim/latef.jpg,EF,2,4,,,,,,,,,,,,,0,0,0,58,,,,,,2,0,0.966354415388,,,,,,2016_Jan_19_1123,P7,PLC_L_D2S1,NHGY,60.0179709619,
stim/posf.jpg,stim/negf.jpg,stim/1.jpg,stim/5.jpg,stim/latef.jpg,AB,2,4,,,,,,,,,,,,,0,1,1,10,,,,,,2,0,1.63279129632,,,,,,2016_Jan_19_1123,P7,PLC_L_D2S1,NHGY,60.0179709619,
stim/negf.jpg,stim/posf.jpg,stim/3.jpg,stim/4.jpg,stim/latef.jpg,CD,1,2,,,,,,,,,,,,,0,2,2,27,,,,,,4,0,1.03304052752,,,,,,2016_Jan_19_1123,P7,PLC_L_D2S1,NHGY,60.0179709619,
stim/negf.jpg,stim/posf.jpg,stim/5.jpg,stim/1.jpg,stim/latef.jpg,AB,1,2,,,,,,,,,,,,,0,3,3,9,,,,,,2,1,1.29956907392,,,,,,2016_Jan_19_1123,P7,PLC_L_D2S1,NHGY,60.0179709619,
stim/negf.jpg,stim/posf.jpg,stim/6.jpg,stim/2.jpg,stim/latef.jpg,EF,1,2,,,,,,,,,,,,,0,4,4,49,,,,,,4,0,0.733095552656,,,,,,2016_Jan_19_1123,P7,PLC_L_D2S1,NHGY,60.0179709619,
stim/posf.jpg,stim/negf.jpg,stim/5.jpg,stim/1.jpg,stim/latef.jpg,AB,1,2,,,,,,,,,,,,,0,5,5,5,,,,,,4,0,0.63310569695,,,,,,2016_Jan_19_1123,P7,PLC_L_D2S1,NHGY,60.0179709619,
stim/posf.jpg,stim/negf.jpg,stim/2.jpg,stim/6.jpg,stim/latef.jpg,EF,2,4,,,,,,,,,,,,,0,6,6,50,,,,,,2,0,0.666418261506,,,,,,2016_Jan_19_1123,P7,PLC_L_D2S1,NHGY,60.0179709619,
stim/negf.jpg,stim/posf.jpg,stim/1.jpg,stim/5.jpg,stim/latef.jpg,AB,2,4,,,,,,,,,,,,,0,7,7,18,,,,,,2,0,1.11624855452,,,,,,2016_Jan_19_1123,P7,PLC_L_D2S1,NHGY,60.0179709619,
stim/posf.jpg,stim/negf.jpg,stim/2.jpg,stim/6.jpg,stim/latef.jpg,EF,2,4,,,,,,,,,,,,,0,8,8,54,,,,,,4,1,1.03299186623,,,,,,2016_Jan_19_1123,P7,PLC_L_D2S1,NHGY,60.0179709619,
stim/posf.jpg,stim/negf.jpg,stim/3.jpg,stim/4.jpg,stim/latef.jpg,CD,1,2,,,,,,,,,,,,,0,9,9,26,,,,,,4,0,1.24959636093,,,,,,2016_Jan_19_1123,P7,PLC_L_D2S1,NHGY,60.0179709619,
stim/posf.jpg,stim/negf.jpg,stim/1.jpg,stim/5.jpg,stim/latef.jpg,AB,2,4,,,,,,,,,,,,,0,10,10,16,,,,,,2,0,0.966356231904,,,,,,2016_Jan_19_1123,P7,PLC_L_D2S1,NHGY,60.0179709619,
stim/negf.jpg,stim/posf.jpg,stim/4.jpg,stim/3.jpg,stim/latef.jpg,CD,2,4,,,,,,,,,,,,,0,11,11,39,,,,,,2,0,1.08294668762,,,,,,2016_Jan_19_1123,P7,PLC_L_D2S1,NHGY,60.0179709619,
stim/posf.jpg,stim/negf.jpg,stim/4.jpg,stim/3.jpg,stim/latef.jpg,CD,2,4,,,,,,,,,,,,,0,12,12,36,,,,,,2,0,1.24957891145,,,,,,2016_Jan_19_1123,P7,PLC_L_D2S1,NHGY,60.0179709619,
stim/negf.jpg,stim/posf.jpg,stim/6.jpg,stim/2.jpg,stim/latef.jpg,EF,1,2,,,,,,,,,,,,,0,13,13,47,,,,,,4,0,0.716371485934,,,,,,2016_Jan_19_1123,P7,PLC_L_D2S1,NHGY,60.0179709619,
stim/posf.jpg,stim/negf.jpg,stim/1.jpg,stim/5.jpg,stim/latef.jpg,AB,2,4,,,,,,,,,,,,,0,14,14,11,,,,,,4,1,1.13294725904,,,,,,2016_Jan_19_1123,P7,PLC_L_D2S1,NHGY,60.0179709619,
stim/negf.jpg,stim/posf.jpg,stim/2.jpg,stim/6.jpg,stim/latef.jpg,EF,2,4,,,,,,,,,,,,,0,15,15,57,,,,,,2,0,0.799683689605,,,,,,2016_Jan_19_1123,P7,PLC_L_D2S1,NHGY,60.0179709619,
stim/posf.jpg,stim/negf.jpg,stim/2.jpg,stim/6.jpg,stim/latef.jpg,EF,2,4,,,,,,,,,,,,,0,16,16,51,,,,,,2,0,0.699776573107,,,,,,2016_Jan_19_1123,P7,PLC_L_D2S1,NHGY,60.0179709619,
stim/posf.jpg,stim/negf.jpg,stim/2.jpg,stim/6.jpg,stim/latef.jpg,EF,2,4,,,,,,,,,,,,,0,17,17,52,,,,,,4,1,0.799723620134,,,,,,2016_Jan_19_1123,P7,PLC_L_D2S1,NHGY,60.0179709619,
stim/posf.jpg,stim/negf.jpg,stim/6.jpg,stim/2.jpg,stim/latef.jpg,EF,1,2,,,,,,,,,,,,,0,18,18,44,,,,,,4,0,0.798742051556,,,,,,2016_Jan_19_1123,P7,PLC_L_D2S1,NHGY,60.0179709619,
stim/negf.jpg,stim/posf.jpg,stim/5.jpg,stim/1.jpg,stim/latef.jpg,AB,1,2,,,,,,,,,,,,,0,19,19,8,,,,,,2,1,0.883066921291,,,,,,2016_Jan_19_1123,P7,PLC_L_D2S1,NHGY,60.0179709619,
stim/posf.jpg,stim/negf.jpg,stim/3.jpg,stim/4.jpg,stim/latef.jpg,CD,1,2,,,,,,,,,,,,,0,20,20,22,,,,,,2,1,1.06629205194,,,,,,2016_Jan_19_1123,P7,PLC_L_D2S1,NHGY,60.0179709619,
stim/negf.jpg,stim/posf.jpg,stim/6.jpg,stim/2.jpg,stim/latef.jpg,EF,1,2,,,,,,,,,,,,,0,21,21,46,,,,,,2,1,1.04964706731,,,,,,2016_Jan_19_1123,P7,PLC_L_D2S1,NHGY,60.0179709619,
stim/posf.jpg,stim/negf.jpg,stim/4.jpg,stim/3.jpg,stim/latef.jpg,CD,2,4,,,,,,,,,,,,,0,22,22,34,,,,,,4,1,0.916355449968,,,,,,2016_Jan_19_1123,P7,PLC_L_D2S1,NHGY,60.0179709619,
stim/posf.jpg,stim/negf.jpg,stim/4.jpg,stim/3.jpg,stim/latef.jpg,CD,2,4,,,,,,,,,,,,,0,23,23,35,,,,,,4,1,1.14960893527,,,,,,2016_Jan_19_1123,P7,PLC_L_D2S1,NHGY,60.0179709619,
stim/negf.jpg,stim/posf.jpg,stim/2.jpg,stim/6.jpg,stim/latef.jpg,EF,2,4,,,,,,,,,,,,,0,24,24,59,,,,,,2,0,1.03301930662,,,,,,2016_Jan_19_1123,P7,PLC_L_D2S1,NHGY,60.0179709619,
stim/negf.jpg,stim/posf.jpg,stim/4.jpg,stim/3.jpg,stim/latef.jpg,CD,2,4,,,,,,,,,,,,,0,25,25,37,,,,,,4,1,0.933003959362,,,,,,2016_Jan_19_1123,P7,PLC_L_D2S1,NHGY,60.0179709619,
stim/posf.jpg,stim/negf.jpg,stim/5.jpg,stim/1.jpg,stim/latef.jpg,AB,1,2,,,,,,,,,,,,,0,26,26,7,,,,,,2,1,0.999673262602,,,,,,2016_Jan_19_1123,P7,PLC_L_D2S1,NHGY,60.0179709619,
stim/posf.jpg,stim/negf.jpg,stim/4.jpg,stim/3.jpg,stim/latef.jpg,CD,2,4,,,,,,,,,,,,,0,27,27,33,,,,,,2,0,0.833043303428,,,,,,2016_Jan_19_1123,P7,PLC_L_D2S1,NHGY,60.0179709619,
stim/posf.jpg,stim/negf.jpg,stim/3.jpg,stim/4.jpg,stim/latef.jpg,CD,1,2,,,,,,,,,,,,,0,28,28,24,,,,,,2,1,0.866375783633,,,,,,2016_Jan_19_1123,P7,PLC_L_D2S1,NHGY,60.0179709619,
stim/posf.jpg,stim/negf.jpg,stim/3.jpg,stim/4.jpg,stim/latef.jpg,CD,1,2,,,,,,,,,,,,,0,29,29,23,,,,,,2,1,0.833049682333,,,,,,2016_Jan_19_1123,P7,PLC_L_D2S1,NHGY,60.0179709619,
stim/posf.jpg,stim/negf.jpg,stim/6.jpg,stim/2.jpg,stim/latef.jpg,EF,1,2,,,,,,,,,,,,,0,30,30,43,,,,,,4,0,0.916375762594,,,,,,2016_Jan_19_1123,P7,PLC_L_D2S1,NHGY,60.0179709619,
stim/posf.jpg,stim/negf.jpg,stim/6.jpg,stim/2.jpg,stim/latef.jpg,EF,1,2,,,,,,,,,,,,,0,31,31,45,,,,,,4,0,0.699822290058,,,,,,2016_Jan_19_1123,P7,PLC_L_D2S1,NHGY,60.0179709619,
stim/posf.jpg,stim/negf.jpg,stim/2.jpg,stim/6.jpg,stim/latef.jpg,EF,2,4,,,,,,,,,,,,,0,32,32,55,,,,,,2,0,0.94967379194,,,,,,2016_Jan_19_1123,P7,PLC_L_D2S1,NHGY,60.0179709619,
stim/posf.jpg,stim/negf.jpg,stim/4.jpg,stim/3.jpg,stim/latef.jpg,CD,2,4,,,,,,,,,,,,,0,33,33,30,,,,,,2,0,0.916362024349,,,,,,2016_Jan_19_1123,P7,PLC_L_D2S1,NHGY,60.0179709619,
stim/posf.jpg,stim/negf.jpg,stim/1.jpg,stim/5.jpg,stim/latef.jpg,AB,2,4,,,,,,,,,,,,,0,34,34,17,,,,,,2,0,0.916377546033,,,,,,2016_Jan_19_1123,P7,PLC_L_D2S1,NHGY,60.0179709619,
stim/posf.jpg,stim/negf.jpg,stim/4.jpg,stim/3.jpg,stim/latef.jpg,CD,2,4,,,,,,,,,,,,,0,35,35,31,,,,,,2,0,1.34954287561,,,,,,2016_Jan_19_1123,P7,PLC_L_D2S1,NHGY,60.0179709619,
stim/posf.jpg,stim/negf.jpg,stim/3.jpg,stim/4.jpg,stim/latef.jpg,CD,1,2,,,,,,,,,,,,,0,36,36,21,,,,,,4,0,1.18296498523,,,,,,2016_Jan_19_1123,P7,PLC_L_D2S1,NHGY,60.0179709619,
stim/posf.jpg,stim/negf.jpg,stim/1.jpg,stim/5.jpg,stim/latef.jpg,AB,2,4,,,,,,,,,,,,,0,37,37,15,,,,,,2,0,1.11628111669,,,,,,2016_Jan_19_1123,P7,PLC_L_D2S1,NHGY,60.0179709619,
stim/posf.jpg,stim/negf.jpg,stim/5.jpg,stim/1.jpg,stim/latef.jpg,AB,1,2,,,,,,,,,,,,,0,38,38,4,,,,,,2,1,1.06633360952,,,,,,2016_Jan_19_1123,P7,PLC_L_D2S1,NHGY,60.0179709619,
stim/posf.jpg,stim/negf.jpg,stim/5.jpg,stim/1.jpg,stim/latef.jpg,AB,1,2,,,,,,,,,,,,,0,39,39,0,,,,,,2,1,1.29958425576,,,,,,2016_Jan_19_1123,P7,PLC_L_D2S1,NHGY,60.0179709619,
stim/posf.jpg,stim/negf.jpg,stim/2.jpg,stim/6.jpg,stim/latef.jpg,EF,2,4,,,,,,,,,,,,,0,40,40,53,,,,,,4,1,1.11630860821,,,,,,2016_Jan_19_1123,P7,PLC_L_D2S1,NHGY,60.0179709619,
stim/posf.jpg,stim/negf.jpg,stim/6.jpg,stim/2.jpg,stim/latef.jpg,EF,1,2,,,,,,,,,,,,,0,41,41,41,,,,,,2,1,0.733050512412,,,,,,2016_Jan_19_1123,P7,PLC_L_D2S1,NHGY,60.0179709619,
stim/posf.jpg,stim/negf.jpg,stim/1.jpg,stim/5.jpg,stim/latef.jpg,AB,2,4,,,,,,,,,,,,,0,42,42,13,,,,,,4,1,1.54948764897,,,,,,2016_Jan_19_1123,P7,PLC_L_D2S1,NHGY,60.0179709619,
stim/negf.jpg,stim/posf.jpg,stim/6.jpg,stim/2.jpg,stim/latef.jpg,EF,1,2,,,,,,,,,,,,,0,43,43,48,,,,,,2,1,0.98300844054,,,,,,2016_Jan_19_1123,P7,PLC_L_D2S1,NHGY,60.0179709619,
stim/posf.jpg,stim/negf.jpg,stim/6.jpg,stim/2.jpg,stim/latef.jpg,EF,1,2,,,,,,,,,,,,,0,44,44,42,,,,,,4,0,0.816411290143,,,,,,2016_Jan_19_1123,P7,PLC_L_D2S1,NHGY,60.0179709619,
stim/posf.jpg,stim/negf.jpg,stim/5.jpg,stim/1.jpg,stim/latef.jpg,AB,1,2,,,,,,,,,,,,,0,45,45,6,,,,,,2,1,1.09962665846,,,,,,2016_Jan_19_1123,P7,PLC_L_D2S1,NHGY,60.0179709619,
stim/posf.jpg,stim/negf.jpg,stim/5.jpg,stim/1.jpg,stim/latef.jpg,AB,1,2,,,,,,,,,,,,,0,46,46,3,,,,,,2,1,0.666429948644,,,,,,2016_Jan_19_1123,P7,PLC_L_D2S1,NHGY,60.0179709619,
stim/posf.jpg,stim/negf.jpg,stim/6.jpg,stim/2.jpg,stim/latef.jpg,EF,1,2,,,,,,,,,,,,,0,47,47,40,,,,,,4,0,0.916371137064,,,,,,2016_Jan_19_1123,P7,PLC_L_D2S1,NHGY,60.0179709619,
stim/posf.jpg,stim/negf.jpg,stim/3.jpg,stim/4.jpg,stim/latef.jpg,CD,1,2,,,,,,,,,,,,,0,48,48,20,,,,,,4,0,1.14954663799,,,,,,2016_Jan_19_1123,P7,PLC_L_D2S1,NHGY,60.0179709619,
stim/posf.jpg,stim/negf.jpg,stim/1.jpg,stim/5.jpg,stim/latef.jpg,AB,2,4,,,,,,,,,,,,,0,49,49,14,,,,,,4,1,1.23293137345,,,,,,2016_Jan_19_1123,P7,PLC_L_D2S1,NHGY,60.0179709619,
stim/negf.jpg,stim/posf.jpg,stim/4.jpg,stim/3.jpg,stim/latef.jpg,CD,2,4,,,,,,,,,,,,,0,50,50,38,,,,,,2,0,0.866367753624,,,,,,2016_Jan_19_1123,P7,PLC_L_D2S1,NHGY,60.0179709619,
stim/posf.jpg,stim/negf.jpg,stim/5.jpg,stim/1.jpg,stim/latef.jpg,AB,1,2,,,,,,,,,,,,,0,51,51,1,,,,,,4,0,1.11628600988,,,,,,2016_Jan_19_1123,P7,PLC_L_D2S1,NHGY,60.0179709619,
stim/negf.jpg,stim/posf.jpg,stim/3.jpg,stim/4.jpg,stim/latef.jpg,CD,1,2,,,,,,,,,,,,,0,52,52,28,,,,,,2,1,1.06629792858,,,,,,2016_Jan_19_1123,P7,PLC_L_D2S1,NHGY,60.0179709619,
stim/negf.jpg,stim/posf.jpg,stim/3.jpg,stim/4.jpg,stim/latef.jpg,CD,1,2,,,,,,,,,,,,,0,53,53,29,,,,,,4,0,0.983027411829,,,,,,2016_Jan_19_1123,P7,PLC_L_D2S1,NHGY,60.0179709619,
stim/negf.jpg,stim/posf.jpg,stim/2.jpg,stim/6.jpg,stim/latef.jpg,EF,2,4,,,,,,,,,,,,,0,54,54,56,,,,,,2,0,0.949709178138,,,,,,2016_Jan_19_1123,P7,PLC_L_D2S1,NHGY,60.0179709619,
stim/posf.jpg,stim/negf.jpg,stim/5.jpg,stim/1.jpg,stim/latef.jpg,AB,1,2,,,,,,,,,,,,,0,55,55,2,,,,,,2,1,0.866365534093,,,,,,2016_Jan_19_1123,P7,PLC_L_D2S1,NHGY,60.0179709619,
stim/posf.jpg,stim/negf.jpg,stim/3.jpg,stim/4.jpg,stim/latef.jpg,CD,1,2,,,,,,,,,,,,,0,56,56,25,,,,,,4,0,1.132950453,,,,,,2016_Jan_19_1123,P7,PLC_L_D2S1,NHGY,60.0179709619,
stim/posf.jpg,stim/negf.jpg,stim/4.jpg,stim/3.jpg,stim/latef.jpg,CD,2,4,,,,,,,,,,,,,0,57,57,32,,,,,,2,0,1.56616017623,,,,,,2016_Jan_19_1123,P7,PLC_L_D2S1,NHGY,60.0179709619,
stim/posf.jpg,stim/negf.jpg,stim/1.jpg,stim/5.jpg,stim/latef.jpg,AB,2,4,,,,,,,,,,,,,0,58,58,12,,,,,,4,1,0.983009126241,,,,,,2016_Jan_19_1123,P7,PLC_L_D2S1,NHGY,60.0179709619,
stim/negf.jpg,stim/posf.jpg,stim/1.jpg,stim/5.jpg,stim/latef.jpg,AB,2,4,,,,,,,,,,,,,0,59,59,19,,,,,,4,1,0.933039486918,,,,,,2016_Jan_19_1123,P7,PLC_L_D2S1,NHGY,60.0179709619,
