fb_corr,fb_incorr,symbol2,symbol1,fb_late,pair,position,correct,block_01.thisRepN,block_01.thisTrialN,block_01.thisN,block_01.thisIndex,block_02.thisRepN,block_02.thisTrialN,block_02.thisN,block_02.thisIndex,block_03.thisRepN,block_03.thisTrialN,block_03.thisN,block_03.thisIndex,block_04.thisRepN,block_04.thisTrialN,block_04.thisN,block_04.thisIndex,mouse.x,mouse.y,mouse.leftButton,mouse.midButton,mouse.rightButton,buttonBox_2.keys,buttonBox_2.corr,buttonBox_2.rt,mouse_2.x,mouse_2.y,mouse_2.leftButton,mouse_2.midButton,mouse_2.rightButton,date,Participant,expName,Group,frameRate,
,,,,,,,,,,,,,,,,,,,,,,,,0.9984375,0.2109375,1,0,0,,,,,,,,,2016_Okt_06_0746,P8,PLC_L_D2S1,NHGY,60.0199776725,
stim/posf.jpg,stim/negf.jpg,stim/4.jpg,stim/2.jpg,stim/latef.jpg,AB,1,2,0,0,0,5,,,,,,,,,,,,,,,,,,4,0,1.19963665974,,,,,,2016_Okt_06_0746,P8,PLC_L_D2S1,NHGY,60.0199776725,
stim/posf.jpg,stim/negf.jpg,stim/1.jpg,stim/6.jpg,stim/latef.jpg,EF,2,4,0,1,1,53,,,,,,,,,,,,,,,,,,2,0,1.09962853652,,,,,,2016_Okt_06_0746,P8,PLC_L_D2S1,NHGY,60.0199776725,
stim/posf.jpg,stim/negf.jpg,stim/1.jpg,stim/6.jpg,stim/latef.jpg,EF,2,4,0,2,2,50,,,,,,,,,,,,,,,,,,2,0,1.3495503374,,,,,,2016_Okt_06_0746,P8,PLC_L_D2S1,NHGY,60.0199776725,
stim/posf.jpg,stim/negf.jpg,stim/1.jpg,stim/6.jpg,stim/latef.jpg,EF,2,4,0,3,3,55,,,,,,,,,,,,,,,,,,2,0,0.899701636448,,,,,,2016_Okt_06_0746,P8,PLC_L_D2S1,NHGY,60.0199776725,
stim/posf.jpg,stim/negf.jpg,stim/3.jpg,stim/5.jpg,stim/latef.jpg,CD,2,4,0,4,4,34,,,,,,,,,,,,,,,,,,2,0,1.61613304812,,,,,,2016_Okt_06_0746,P8,PLC_L_D2S1,NHGY,60.0199776725,
stim/posf.jpg,stim/negf.jpg,stim/2.jpg,stim/4.jpg,stim/latef.jpg,AB,2,4,0,5,5,17,,,,,,,,,,,,,,,,,,2,0,1.43288167727,,,,,,2016_Okt_06_0746,P8,PLC_L_D2S1,NHGY,60.0199776725,
stim/posf.jpg,stim/negf.jpg,stim/6.jpg,stim/1.jpg,stim/latef.jpg,EF,1,2,0,6,6,44,,,,,,,,,,,,,,,,,,4,0,1.34951788363,,,,,,2016_Okt_06_0746,P8,PLC_L_D2S1,NHGY,60.0199776725,
stim/negf.jpg,stim/posf.jpg,stim/6.jpg,stim/1.jpg,stim/latef.jpg,EF,1,2,0,7,7,47,,,,,,,,,,,,,,,,,,2,1,1.03298911967,,,,,,2016_Okt_06_0746,P8,PLC_L_D2S1,NHGY,60.0199776725,
stim/negf.jpg,stim/posf.jpg,stim/5.jpg,stim/3.jpg,stim/latef.jpg,CD,1,2,0,8,8,29,,,,,,,,,,,,,,,,,,4,0,1.28292184374,,,,,,2016_Okt_06_0746,P8,PLC_L_D2S1,NHGY,60.0199776725,
stim/posf.jpg,stim/negf.jpg,stim/6.jpg,stim/1.jpg,stim/latef.jpg,EF,1,2,0,9,9,40,,,,,,,,,,,,,,,,,,4,0,1.14960603001,,,,,,2016_Okt_06_0746,P8,PLC_L_D2S1,NHGY,60.0199776725,
stim/posf.jpg,stim/negf.jpg,stim/1.jpg,stim/6.jpg,stim/latef.jpg,EF,2,4,0,10,10,52,,,,,,,,,,,,,,,,,,4,1,0.983013547968,,,,,,2016_Okt_06_0746,P8,PLC_L_D2S1,NHGY,60.0199776725,
stim/posf.jpg,stim/negf.jpg,stim/6.jpg,stim/1.jpg,stim/latef.jpg,EF,1,2,0,11,11,41,,,,,,,,,,,,,,,,,,2,1,0.866377882956,,,,,,2016_Okt_06_0746,P8,PLC_L_D2S1,NHGY,60.0199776725,
stim/negf.jpg,stim/posf.jpg,stim/1.jpg,stim/6.jpg,stim/latef.jpg,EF,2,4,0,12,12,57,,,,,,,,,,,,,,,,,,4,1,0.549818587009,,,,,,2016_Okt_06_0746,P8,PLC_L_D2S1,NHGY,60.0199776725,
stim/negf.jpg,stim/posf.jpg,stim/2.jpg,stim/4.jpg,stim/latef.jpg,AB,2,4,0,13,13,18,,,,,,,,,,,,,,,,,,2,0,1.19956573723,,,,,,2016_Okt_06_0746,P8,PLC_L_D2S1,NHGY,60.0199776725,
stim/posf.jpg,stim/negf.jpg,stim/2.jpg,stim/4.jpg,stim/latef.jpg,AB,2,4,0,14,14,10,,,,,,,,,,,,,,,,,,2,0,0.816381800205,,,,,,2016_Okt_06_0746,P8,PLC_L_D2S1,NHGY,60.0199776725,
stim/posf.jpg,stim/negf.jpg,stim/1.jpg,stim/6.jpg,stim/latef.jpg,EF,2,4,0,15,15,51,,,,,,,,,,,,,,,,,,4,1,1.03299164897,,,,,,2016_Okt_06_0746,P8,PLC_L_D2S1,NHGY,60.0199776725,
stim/posf.jpg,stim/negf.jpg,stim/4.jpg,stim/2.jpg,stim/latef.jpg,AB,1,2,0,16,16,6,,,,,,,,,,,,,,,,,,4,0,1.34950204321,,,,,,2016_Okt_06_0746,P8,PLC_L_D2S1,NHGY,60.0199776725,
stim/posf.jpg,stim/negf.jpg,stim/4.jpg,stim/2.jpg,stim/latef.jpg,AB,1,2,0,17,17,2,,,,,,,,,,,,,,,,,,2,1,0.666432592114,,,,,,2016_Okt_06_0746,P8,PLC_L_D2S1,NHGY,60.0199776725,
stim/posf.jpg,stim/negf.jpg,stim/4.jpg,stim/2.jpg,stim/latef.jpg,AB,1,2,0,18,18,0,,,,,,,,,,,,,,,,,,2,1,0.533143993113,,,,,,2016_Okt_06_0746,P8,PLC_L_D2S1,NHGY,60.0199776725,
stim/posf.jpg,stim/negf.jpg,stim/5.jpg,stim/3.jpg,stim/latef.jpg,CD,1,2,0,19,19,25,,,,,,,,,,,,,,,,,,4,0,1.16627483149,,,,,,2016_Okt_06_0746,P8,PLC_L_D2S1,NHGY,60.0199776725,
stim/negf.jpg,stim/posf.jpg,stim/6.jpg,stim/1.jpg,stim/latef.jpg,EF,1,2,0,20,20,48,,,,,,,,,,,,,,,,,,2,1,1.2162159735,,,,,,2016_Okt_06_0746,P8,PLC_L_D2S1,NHGY,60.0199776725,
stim/posf.jpg,stim/negf.jpg,stim/2.jpg,stim/4.jpg,stim/latef.jpg,AB,2,4,0,21,21,16,,,,,,,,,,,,,,,,,,4,1,1.06629934249,,,,,,2016_Okt_06_0746,P8,PLC_L_D2S1,NHGY,60.0199776725,
stim/posf.jpg,stim/negf.jpg,stim/2.jpg,stim/4.jpg,stim/latef.jpg,AB,2,4,0,22,22,14,,,,,,,,,,,,,,,,,,4,1,1.14961856821,,,,,,2016_Okt_06_0746,P8,PLC_L_D2S1,NHGY,60.0199776725,
stim/posf.jpg,stim/negf.jpg,stim/1.jpg,stim/6.jpg,stim/latef.jpg,EF,2,4,0,23,23,54,,,,,,,,,,,,,,,,,,4,1,1.14967468487,,,,,,2016_Okt_06_0746,P8,PLC_L_D2S1,NHGY,60.0199776725,
stim/posf.jpg,stim/negf.jpg,stim/5.jpg,stim/3.jpg,stim/latef.jpg,CD,1,2,0,24,24,22,,,,,,,,,,,,,,,,,,2,1,0.699821451638,,,,,,2016_Okt_06_0746,P8,PLC_L_D2S1,NHGY,60.0199776725,
stim/negf.jpg,stim/posf.jpg,stim/1.jpg,stim/6.jpg,stim/latef.jpg,EF,2,4,0,25,25,58,,,,,,,,,,,,,,,,,,4,1,0.916362714706,,,,,,2016_Okt_06_0746,P8,PLC_L_D2S1,NHGY,60.0199776725,
stim/posf.jpg,stim/negf.jpg,stim/6.jpg,stim/1.jpg,stim/latef.jpg,EF,1,2,0,26,26,45,,,,,,,,,,,,,,,,,,2,1,0.749732506776,,,,,,2016_Okt_06_0746,P8,PLC_L_D2S1,NHGY,60.0199776725,
stim/posf.jpg,stim/negf.jpg,stim/2.jpg,stim/4.jpg,stim/latef.jpg,AB,2,4,0,27,27,15,,,,,,,,,,,,,,,,,,4,1,1.1496190073,,,,,,2016_Okt_06_0746,P8,PLC_L_D2S1,NHGY,60.0199776725,
stim/posf.jpg,stim/negf.jpg,stim/6.jpg,stim/1.jpg,stim/latef.jpg,EF,1,2,0,28,28,42,,,,,,,,,,,,,,,,,,2,1,0.833034532693,,,,,,2016_Okt_06_0746,P8,PLC_L_D2S1,NHGY,60.0199776725,
stim/negf.jpg,stim/posf.jpg,stim/5.jpg,stim/3.jpg,stim/latef.jpg,CD,1,2,0,29,29,27,,,,,,,,,,,,,,,,,,2,1,0.999681101341,,,,,,2016_Okt_06_0746,P8,PLC_L_D2S1,NHGY,60.0199776725,
stim/negf.jpg,stim/posf.jpg,stim/1.jpg,stim/6.jpg,stim/latef.jpg,EF,2,4,0,30,30,59,,,,,,,,,,,,,,,,,,4,1,0.833079190836,,,,,,2016_Okt_06_0746,P8,PLC_L_D2S1,NHGY,60.0199776725,
stim/posf.jpg,stim/negf.jpg,stim/2.jpg,stim/4.jpg,stim/latef.jpg,AB,2,4,0,31,31,13,,,,,,,,,,,,,,,,,,4,1,0.99964056646,,,,,,2016_Okt_06_0746,P8,PLC_L_D2S1,NHGY,60.0199776725,
stim/posf.jpg,stim/negf.jpg,stim/3.jpg,stim/5.jpg,stim/latef.jpg,CD,2,4,0,32,32,30,,,,,,,,,,,,,,,,,,2,0,0.983010486348,,,,,,2016_Okt_06_0746,P8,PLC_L_D2S1,NHGY,60.0199776725,
stim/posf.jpg,stim/negf.jpg,stim/3.jpg,stim/5.jpg,stim/latef.jpg,CD,2,4,0,33,33,33,,,,,,,,,,,,,,,,,,4,1,0.549809086364,,,,,,2016_Okt_06_0746,P8,PLC_L_D2S1,NHGY,60.0199776725,
stim/posf.jpg,stim/negf.jpg,stim/4.jpg,stim/2.jpg,stim/latef.jpg,AB,1,2,0,34,34,7,,,,,,,,,,,,,,,,,,2,1,1.14963199663,,,,,,2016_Okt_06_0746,P8,PLC_L_D2S1,NHGY,60.0199776725,
stim/posf.jpg,stim/negf.jpg,stim/5.jpg,stim/3.jpg,stim/latef.jpg,CD,1,2,0,35,35,20,,,,,,,,,,,,,,,,,,2,1,0.816404858592,,,,,,2016_Okt_06_0746,P8,PLC_L_D2S1,NHGY,60.0199776725,
stim/posf.jpg,stim/negf.jpg,stim/3.jpg,stim/5.jpg,stim/latef.jpg,CD,2,4,0,36,36,36,,,,,,,,,,,,,,,,,,4,1,0.93301874039,,,,,,2016_Okt_06_0746,P8,PLC_L_D2S1,NHGY,60.0199776725,
stim/posf.jpg,stim/negf.jpg,stim/4.jpg,stim/2.jpg,stim/latef.jpg,AB,1,2,0,37,37,3,,,,,,,,,,,,,,,,,,2,1,1.08295063439,,,,,,2016_Okt_06_0746,P8,PLC_L_D2S1,NHGY,60.0199776725,
stim/posf.jpg,stim/negf.jpg,stim/6.jpg,stim/1.jpg,stim/latef.jpg,EF,1,2,0,38,38,43,,,,,,,,,,,,,,,,,,2,1,0.966376875449,,,,,,2016_Okt_06_0746,P8,PLC_L_D2S1,NHGY,60.0199776725,
stim/negf.jpg,stim/posf.jpg,stim/2.jpg,stim/4.jpg,stim/latef.jpg,AB,2,4,0,39,39,19,,,,,,,,,,,,,,,,,,4,1,0.749763736499,,,,,,2016_Okt_06_0746,P8,PLC_L_D2S1,NHGY,60.0199776725,
stim/negf.jpg,stim/posf.jpg,stim/6.jpg,stim/1.jpg,stim/latef.jpg,EF,1,2,0,40,40,49,,,,,,,,,,,,,,,,,,2,1,0.783086891501,,,,,,2016_Okt_06_0746,P8,PLC_L_D2S1,NHGY,60.0199776725,
stim/posf.jpg,stim/negf.jpg,stim/5.jpg,stim/3.jpg,stim/latef.jpg,CD,1,2,0,41,41,24,,,,,,,,,,,,,,,,,,2,1,0.849713168648,,,,,,2016_Okt_06_0746,P8,PLC_L_D2S1,NHGY,60.0199776725,
stim/posf.jpg,stim/negf.jpg,stim/2.jpg,stim/4.jpg,stim/latef.jpg,AB,2,4,0,42,42,12,,,,,,,,,,,,,,,,,,4,1,0.949664441378,,,,,,2016_Okt_06_0746,P8,PLC_L_D2S1,NHGY,60.0199776725,
stim/negf.jpg,stim/posf.jpg,stim/4.jpg,stim/2.jpg,stim/latef.jpg,AB,1,2,0,43,43,8,,,,,,,,,,,,,,,,,,2,1,1.08295632756,,,,,,2016_Okt_06_0746,P8,PLC_L_D2S1,NHGY,60.0199776725,
stim/posf.jpg,stim/negf.jpg,stim/4.jpg,stim/2.jpg,stim/latef.jpg,AB,1,2,0,44,44,1,,,,,,,,,,,,,,,,,,2,1,0.549808424717,,,,,,2016_Okt_06_0746,P8,PLC_L_D2S1,NHGY,60.0199776725,
stim/negf.jpg,stim/posf.jpg,stim/6.jpg,stim/1.jpg,stim/latef.jpg,EF,1,2,0,45,45,46,,,,,,,,,,,,,,,,,,2,1,0.649801549607,,,,,,2016_Okt_06_0746,P8,PLC_L_D2S1,NHGY,60.0199776725,
stim/negf.jpg,stim/posf.jpg,stim/3.jpg,stim/5.jpg,stim/latef.jpg,CD,2,4,0,46,46,38,,,,,,,,,,,,,,,,,,4,1,0.91636047413,,,,,,2016_Okt_06_0746,P8,PLC_L_D2S1,NHGY,60.0199776725,
stim/posf.jpg,stim/negf.jpg,stim/3.jpg,stim/5.jpg,stim/latef.jpg,CD,2,4,0,47,47,35,,,,,,,,,,,,,,,,,,4,1,1.43287183979,,,,,,2016_Okt_06_0746,P8,PLC_L_D2S1,NHGY,60.0199776725,
stim/posf.jpg,stim/negf.jpg,stim/4.jpg,stim/2.jpg,stim/latef.jpg,AB,1,2,0,48,48,4,,,,,,,,,,,,,,,,,,2,1,0.833047549088,,,,,,2016_Okt_06_0746,P8,PLC_L_D2S1,NHGY,60.0199776725,
stim/negf.jpg,stim/posf.jpg,stim/3.jpg,stim/5.jpg,stim/latef.jpg,CD,2,4,0,49,49,39,,,,,,,,,,,,,,,,,,4,1,1.14963163273,,,,,,2016_Okt_06_0746,P8,PLC_L_D2S1,NHGY,60.0199776725,
stim/negf.jpg,stim/posf.jpg,stim/3.jpg,stim/5.jpg,stim/latef.jpg,CD,2,4,0,50,50,37,,,,,,,,,,,,,,,,,,4,1,0.766385741514,,,,,,2016_Okt_06_0746,P8,PLC_L_D2S1,NHGY,60.0199776725,
stim/posf.jpg,stim/negf.jpg,stim/3.jpg,stim/5.jpg,stim/latef.jpg,CD,2,4,0,51,51,31,,,,,,,,,,,,,,,,,,4,1,0.766371988286,,,,,,2016_Okt_06_0746,P8,PLC_L_D2S1,NHGY,60.0199776725,
stim/posf.jpg,stim/negf.jpg,stim/5.jpg,stim/3.jpg,stim/latef.jpg,CD,1,2,0,52,52,23,,,,,,,,,,,,,,,,,,2,1,0.866458155735,,,,,,2016_Okt_06_0746,P8,PLC_L_D2S1,NHGY,60.0199776725,
stim/negf.jpg,stim/posf.jpg,stim/1.jpg,stim/6.jpg,stim/latef.jpg,EF,2,4,0,53,53,56,,,,,,,,,,,,,,,,,,4,1,0.849743171318,,,,,,2016_Okt_06_0746,P8,PLC_L_D2S1,NHGY,60.0199776725,
stim/posf.jpg,stim/negf.jpg,stim/2.jpg,stim/4.jpg,stim/latef.jpg,AB,2,4,0,54,54,11,,,,,,,,,,,,,,,,,,4,1,0.883034657504,,,,,,2016_Okt_06_0746,P8,PLC_L_D2S1,NHGY,60.0199776725,
stim/negf.jpg,stim/posf.jpg,stim/5.jpg,stim/3.jpg,stim/latef.jpg,CD,1,2,0,55,55,28,,,,,,,,,,,,,,,,,,2,1,0.749739890152,,,,,,2016_Okt_06_0746,P8,PLC_L_D2S1,NHGY,60.0199776725,
stim/posf.jpg,stim/negf.jpg,stim/5.jpg,stim/3.jpg,stim/latef.jpg,CD,1,2,0,56,56,26,,,,,,,,,,,,,,,,,,2,1,0.849694218486,,,,,,2016_Okt_06_0746,P8,PLC_L_D2S1,NHGY,60.0199776725,
stim/posf.jpg,stim/negf.jpg,stim/5.jpg,stim/3.jpg,stim/latef.jpg,CD,1,2,0,57,57,21,,,,,,,,,,,,,,,,,,2,1,0.966333188723,,,,,,2016_Okt_06_0746,P8,PLC_L_D2S1,NHGY,60.0199776725,
stim/posf.jpg,stim/negf.jpg,stim/3.jpg,stim/5.jpg,stim/latef.jpg,CD,2,4,0,58,58,32,,,,,,,,,,,,,,,,,,4,1,0.666452525724,,,,,,2016_Okt_06_0746,P8,PLC_L_D2S1,NHGY,60.0199776725,
stim/negf.jpg,stim/posf.jpg,stim/4.jpg,stim/2.jpg,stim/latef.jpg,AB,1,2,0,59,59,9,,,,,,,,,,,,,,,,,,2,1,0.933043855896,,,,,,2016_Okt_06_0746,P8,PLC_L_D2S1,NHGY,60.0199776725,
,,,,,,,,,,,,,,,,,,,,,,,,,,,,,,,,0.9984375,0.2109375,1,0,0,2016_Okt_06_0746,P8,PLC_L_D2S1,NHGY,60.0199776725,
stim/posf.jpg,stim/negf.jpg,stim/1.jpg,stim/6.jpg,stim/latef.jpg,EF,2,4,,,,,0,0,0,54,,,,,,,,,,,,,,4,1,0.98303203197,,,,,,2016_Okt_06_0746,P8,PLC_L_D2S1,NHGY,60.0199776725,
stim/posf.jpg,stim/negf.jpg,stim/4.jpg,stim/2.jpg,stim/latef.jpg,AB,1,2,,,,,0,1,1,5,,,,,,,,,,,,,,2,1,0.999651615959,,,,,,2016_Okt_06_0746,P8,PLC_L_D2S1,NHGY,60.0199776725,
stim/negf.jpg,stim/posf.jpg,stim/5.jpg,stim/3.jpg,stim/latef.jpg,CD,1,2,,,,,0,2,2,29,,,,,,,,,,,,,,2,1,0.883032837975,,,,,,2016_Okt_06_0746,P8,PLC_L_D2S1,NHGY,60.0199776725,
stim/negf.jpg,stim/posf.jpg,stim/1.jpg,stim/6.jpg,stim/latef.jpg,EF,2,4,,,,,0,3,3,58,,,,,,,,,,,,,,4,1,0.833079828423,,,,,,2016_Okt_06_0746,P8,PLC_L_D2S1,NHGY,60.0199776725,
stim/posf.jpg,stim/negf.jpg,stim/5.jpg,stim/3.jpg,stim/latef.jpg,CD,1,2,,,,,0,4,4,25,,,,,,,,,,,,,,2,1,0.683110070187,,,,,,2016_Okt_06_0746,P8,PLC_L_D2S1,NHGY,60.0199776725,
stim/negf.jpg,stim/posf.jpg,stim/3.jpg,stim/5.jpg,stim/latef.jpg,CD,2,4,,,,,0,5,5,39,,,,,,,,,,,,,,4,1,0.616461345173,,,,,,2016_Okt_06_0746,P8,PLC_L_D2S1,NHGY,60.0199776725,
stim/posf.jpg,stim/negf.jpg,stim/1.jpg,stim/6.jpg,stim/latef.jpg,EF,2,4,,,,,0,6,6,53,,,,,,,,,,,,,,4,1,0.783117646042,,,,,,2016_Okt_06_0746,P8,PLC_L_D2S1,NHGY,60.0199776725,
stim/posf.jpg,stim/negf.jpg,stim/3.jpg,stim/5.jpg,stim/latef.jpg,CD,2,4,,,,,0,7,7,34,,,,,,,,,,,,,,4,1,0.699767560516,,,,,,2016_Okt_06_0746,P8,PLC_L_D2S1,NHGY,60.0199776725,
stim/negf.jpg,stim/posf.jpg,stim/1.jpg,stim/6.jpg,stim/latef.jpg,EF,2,4,,,,,0,8,8,57,,,,,,,,,,,,,,4,1,0.766409449518,,,,,,2016_Okt_06_0746,P8,PLC_L_D2S1,NHGY,60.0199776725,
stim/negf.jpg,stim/posf.jpg,stim/3.jpg,stim/5.jpg,stim/latef.jpg,CD,2,4,,,,,0,9,9,38,,,,,,,,,,,,,,4,1,0.866411855505,,,,,,2016_Okt_06_0746,P8,PLC_L_D2S1,NHGY,60.0199776725,
stim/posf.jpg,stim/negf.jpg,stim/4.jpg,stim/2.jpg,stim/latef.jpg,AB,1,2,,,,,0,10,10,4,,,,,,,,,,,,,,2,1,0.949735962377,,,,,,2016_Okt_06_0746,P8,PLC_L_D2S1,NHGY,60.0199776725,
stim/posf.jpg,stim/negf.jpg,stim/5.jpg,stim/3.jpg,stim/latef.jpg,CD,1,2,,,,,0,11,11,23,,,,,,,,,,,,,,2,1,0.616448791931,,,,,,2016_Okt_06_0746,P8,PLC_L_D2S1,NHGY,60.0199776725,
stim/posf.jpg,stim/negf.jpg,stim/6.jpg,stim/1.jpg,stim/latef.jpg,EF,1,2,,,,,0,12,12,43,,,,,,,,,,,,,,2,1,0.73309189746,,,,,,2016_Okt_06_0746,P8,PLC_L_D2S1,NHGY,60.0199776725,
stim/posf.jpg,stim/negf.jpg,stim/3.jpg,stim/5.jpg,stim/latef.jpg,CD,2,4,,,,,0,13,13,33,,,,,,,,,,,,,,4,1,0.849726554964,,,,,,2016_Okt_06_0746,P8,PLC_L_D2S1,NHGY,60.0199776725,
stim/posf.jpg,stim/negf.jpg,stim/5.jpg,stim/3.jpg,stim/latef.jpg,CD,1,2,,,,,0,14,14,21,,,,,,,,,,,,,,2,1,0.666450498678,,,,,,2016_Okt_06_0746,P8,PLC_L_D2S1,NHGY,60.0199776725,
stim/negf.jpg,stim/posf.jpg,stim/5.jpg,stim/3.jpg,stim/latef.jpg,CD,1,2,,,,,0,15,15,28,,,,,,,,,,,,,,2,1,0.916308601031,,,,,,2016_Okt_06_0746,P8,PLC_L_D2S1,NHGY,60.0199776725,
stim/posf.jpg,stim/negf.jpg,stim/3.jpg,stim/5.jpg,stim/latef.jpg,CD,2,4,,,,,0,16,16,32,,,,,,,,,,,,,,4,1,0.566472399184,,,,,,2016_Okt_06_0746,P8,PLC_L_D2S1,NHGY,60.0199776725,
stim/posf.jpg,stim/negf.jpg,stim/4.jpg,stim/2.jpg,stim/latef.jpg,AB,1,2,,,,,0,17,17,6,,,,,,,,,,,,,,2,1,0.666439915339,,,,,,2016_Okt_06_0746,P8,PLC_L_D2S1,NHGY,60.0199776725,
stim/posf.jpg,stim/negf.jpg,stim/3.jpg,stim/5.jpg,stim/latef.jpg,CD,2,4,,,,,0,18,18,30,,,,,,,,,,,,,,4,1,0.69974158487,,,,,,2016_Okt_06_0746,P8,PLC_L_D2S1,NHGY,60.0199776725,
stim/posf.jpg,stim/negf.jpg,stim/4.jpg,stim/2.jpg,stim/latef.jpg,AB,1,2,,,,,0,19,19,2,,,,,,,,,,,,,,2,1,0.616455754258,,,,,,2016_Okt_06_0746,P8,PLC_L_D2S1,NHGY,60.0199776725,
stim/posf.jpg,stim/negf.jpg,stim/2.jpg,stim/4.jpg,stim/latef.jpg,AB,2,4,,,,,0,20,20,13,,,,,,,,,,,,,,4,1,0.666441740883,,,,,,2016_Okt_06_0746,P8,PLC_L_D2S1,NHGY,60.0199776725,
stim/posf.jpg,stim/negf.jpg,stim/2.jpg,stim/4.jpg,stim/latef.jpg,AB,2,4,,,,,0,21,21,16,,,,,,,,,,,,,,4,1,0.799734330816,,,,,,2016_Okt_06_0746,P8,PLC_L_D2S1,NHGY,60.0199776725,
stim/posf.jpg,stim/negf.jpg,stim/3.jpg,stim/5.jpg,stim/latef.jpg,CD,2,4,,,,,0,22,22,31,,,,,,,,,,,,,,4,1,0.566437912354,,,,,,2016_Okt_06_0746,P8,PLC_L_D2S1,NHGY,60.0199776725,
stim/posf.jpg,stim/negf.jpg,stim/6.jpg,stim/1.jpg,stim/latef.jpg,EF,1,2,,,,,0,23,23,44,,,,,,,,,,,,,,2,1,1.03298072879,,,,,,2016_Okt_06_0746,P8,PLC_L_D2S1,NHGY,60.0199776725,
stim/posf.jpg,stim/negf.jpg,stim/5.jpg,stim/3.jpg,stim/latef.jpg,CD,1,2,,,,,0,24,24,26,,,,,,,,,,,,,,2,1,0.699703290564,,,,,,2016_Okt_06_0746,P8,PLC_L_D2S1,NHGY,60.0199776725,
stim/posf.jpg,stim/negf.jpg,stim/2.jpg,stim/4.jpg,stim/latef.jpg,AB,2,4,,,,,0,25,25,11,,,,,,,,,,,,,,4,1,0.832783813716,,,,,,2016_Okt_06_0746,P8,PLC_L_D2S1,NHGY,60.0199776725,
stim/negf.jpg,stim/posf.jpg,stim/6.jpg,stim/1.jpg,stim/latef.jpg,EF,1,2,,,,,0,26,26,48,,,,,,,,,,,,,,2,1,0.949688883208,,,,,,2016_Okt_06_0746,P8,PLC_L_D2S1,NHGY,60.0199776725,
stim/negf.jpg,stim/posf.jpg,stim/1.jpg,stim/6.jpg,stim/latef.jpg,EF,2,4,,,,,0,27,27,59,,,,,,,,,,,,,,4,1,0.883053815182,,,,,,2016_Okt_06_0746,P8,PLC_L_D2S1,NHGY,60.0199776725,
stim/posf.jpg,stim/negf.jpg,stim/2.jpg,stim/4.jpg,stim/latef.jpg,AB,2,4,,,,,0,28,28,14,,,,,,,,,,,,,,4,1,0.91635395691,,,,,,2016_Okt_06_0746,P8,PLC_L_D2S1,NHGY,60.0199776725,
stim/posf.jpg,stim/negf.jpg,stim/6.jpg,stim/1.jpg,stim/latef.jpg,EF,1,2,,,,,0,29,29,40,,,,,,,,,,,,,,2,1,0.749767760514,,,,,,2016_Okt_06_0746,P8,PLC_L_D2S1,NHGY,60.0199776725,
stim/negf.jpg,stim/posf.jpg,stim/2.jpg,stim/4.jpg,stim/latef.jpg,AB,2,4,,,,,0,30,30,19,,,,,,,,,,,,,,4,1,0.849747589313,,,,,,2016_Okt_06_0746,P8,PLC_L_D2S1,NHGY,60.0199776725,
stim/negf.jpg,stim/posf.jpg,stim/3.jpg,stim/5.jpg,stim/latef.jpg,CD,2,4,,,,,0,31,31,37,,,,,,,,,,,,,,4,1,0.783064708292,,,,,,2016_Okt_06_0746,P8,PLC_L_D2S1,NHGY,60.0199776725,
stim/posf.jpg,stim/negf.jpg,stim/5.jpg,stim/3.jpg,stim/latef.jpg,CD,1,2,,,,,0,32,32,20,,,,,,,,,,,,,,2,1,0.649802542076,,,,,,2016_Okt_06_0746,P8,PLC_L_D2S1,NHGY,60.0199776725,
stim/negf.jpg,stim/posf.jpg,stim/6.jpg,stim/1.jpg,stim/latef.jpg,EF,1,2,,,,,0,33,33,47,,,,,,,,,,,,,,2,1,0.69979264294,,,,,,2016_Okt_06_0746,P8,PLC_L_D2S1,NHGY,60.0199776725,
stim/posf.jpg,stim/negf.jpg,stim/2.jpg,stim/4.jpg,stim/latef.jpg,AB,2,4,,,,,0,34,34,17,,,,,,,,,,,,,,4,1,0.849734278185,,,,,,2016_Okt_06_0746,P8,PLC_L_D2S1,NHGY,60.0199776725,
stim/posf.jpg,stim/negf.jpg,stim/1.jpg,stim/6.jpg,stim/latef.jpg,EF,2,4,,,,,0,35,35,50,,,,,,,,,,,,,,4,1,0.616462277493,,,,,,2016_Okt_06_0746,P8,PLC_L_D2S1,NHGY,60.0199776725,
stim/posf.jpg,stim/negf.jpg,stim/2.jpg,stim/4.jpg,stim/latef.jpg,AB,2,4,,,,,0,36,36,12,,,,,,,,,,,,,,4,1,0.749731628591,,,,,,2016_Okt_06_0746,P8,PLC_L_D2S1,NHGY,60.0199776725,
stim/posf.jpg,stim/negf.jpg,stim/4.jpg,stim/2.jpg,stim/latef.jpg,AB,1,2,,,,,0,37,37,3,,,,,,,,,,,,,,2,1,0.583122388845,,,,,,2016_Okt_06_0746,P8,PLC_L_D2S1,NHGY,60.0199776725,
stim/negf.jpg,stim/posf.jpg,stim/2.jpg,stim/4.jpg,stim/latef.jpg,AB,2,4,,,,,0,38,38,18,,,,,,,,,,,,,,4,1,0.64977001312,,,,,,2016_Okt_06_0746,P8,PLC_L_D2S1,NHGY,60.0199776725,
stim/negf.jpg,stim/posf.jpg,stim/6.jpg,stim/1.jpg,stim/latef.jpg,EF,1,2,,,,,0,39,39,49,,,,,,,,,,,,,,2,1,0.749745144228,,,,,,2016_Okt_06_0746,P8,PLC_L_D2S1,NHGY,60.0199776725,
stim/negf.jpg,stim/posf.jpg,stim/5.jpg,stim/3.jpg,stim/latef.jpg,CD,1,2,,,,,0,40,40,27,,,,,,,,,,,,,,2,1,0.766350677248,,,,,,2016_Okt_06_0746,P8,PLC_L_D2S1,NHGY,60.0199776725,
stim/posf.jpg,stim/negf.jpg,stim/4.jpg,stim/2.jpg,stim/latef.jpg,AB,1,2,,,,,0,41,41,7,,,,,,,,,,,,,,2,1,0.749733421052,,,,,,2016_Okt_06_0746,P8,PLC_L_D2S1,NHGY,60.0199776725,
stim/posf.jpg,stim/negf.jpg,stim/4.jpg,stim/2.jpg,stim/latef.jpg,AB,1,2,,,,,0,42,42,1,,,,,,,,,,,,,,2,1,0.649836460491,,,,,,2016_Okt_06_0746,P8,PLC_L_D2S1,NHGY,60.0199776725,
stim/posf.jpg,stim/negf.jpg,stim/1.jpg,stim/6.jpg,stim/latef.jpg,EF,2,4,,,,,0,43,43,52,,,,,,,,,,,,,,4,1,0.766416123126,,,,,,2016_Okt_06_0746,P8,PLC_L_D2S1,NHGY,60.0199776725,
stim/posf.jpg,stim/negf.jpg,stim/5.jpg,stim/3.jpg,stim/latef.jpg,CD,1,2,,,,,0,44,44,24,,,,,,,,,,,,,,2,1,0.749754202772,,,,,,2016_Okt_06_0746,P8,PLC_L_D2S1,NHGY,60.0199776725,
stim/posf.jpg,stim/negf.jpg,stim/1.jpg,stim/6.jpg,stim/latef.jpg,EF,2,4,,,,,0,45,45,55,,,,,,,,,,,,,,4,1,0.599806808194,,,,,,2016_Okt_06_0746,P8,PLC_L_D2S1,NHGY,60.0199776725,
stim/negf.jpg,stim/posf.jpg,stim/6.jpg,stim/1.jpg,stim/latef.jpg,EF,1,2,,,,,0,46,46,46,,,,,,,,,,,,,,2,1,0.733065861663,,,,,,2016_Okt_06_0746,P8,PLC_L_D2S1,NHGY,60.0199776725,
stim/posf.jpg,stim/negf.jpg,stim/3.jpg,stim/5.jpg,stim/latef.jpg,CD,2,4,,,,,0,47,47,35,,,,,,,,,,,,,,4,1,0.749755105018,,,,,,2016_Okt_06_0746,P8,PLC_L_D2S1,NHGY,60.0199776725,
stim/posf.jpg,stim/negf.jpg,stim/1.jpg,stim/6.jpg,stim/latef.jpg,EF,2,4,,,,,0,48,48,51,,,,,,,,,,,,,,4,1,0.683117237023,,,,,,2016_Okt_06_0746,P8,PLC_L_D2S1,NHGY,60.0199776725,
stim/posf.jpg,stim/negf.jpg,stim/6.jpg,stim/1.jpg,stim/latef.jpg,EF,1,2,,,,,0,49,49,45,,,,,,,,,,,,,,2,1,0.549797594764,,,,,,2016_Okt_06_0746,P8,PLC_L_D2S1,NHGY,60.0199776725,
stim/posf.jpg,stim/negf.jpg,stim/2.jpg,stim/4.jpg,stim/latef.jpg,AB,2,4,,,,,0,50,50,15,,,,,,,,,,,,,,4,1,0.633049073883,,,,,,2016_Okt_06_0746,P8,PLC_L_D2S1,NHGY,60.0199776725,
stim/posf.jpg,stim/negf.jpg,stim/6.jpg,stim/1.jpg,stim/latef.jpg,EF,1,2,,,,,0,51,51,41,,,,,,,,,,,,,,2,1,0.78304832953,,,,,,2016_Okt_06_0746,P8,PLC_L_D2S1,NHGY,60.0199776725,
stim/posf.jpg,stim/negf.jpg,stim/4.jpg,stim/2.jpg,stim/latef.jpg,AB,1,2,,,,,0,52,52,0,,,,,,,,,,,,,,2,1,0.949721445247,,,,,,2016_Okt_06_0746,P8,PLC_L_D2S1,NHGY,60.0199776725,
stim/posf.jpg,stim/negf.jpg,stim/5.jpg,stim/3.jpg,stim/latef.jpg,CD,1,2,,,,,0,53,53,22,,,,,,,,,,,,,,2,1,0.73302707413,,,,,,2016_Okt_06_0746,P8,PLC_L_D2S1,NHGY,60.0199776725,
stim/negf.jpg,stim/posf.jpg,stim/1.jpg,stim/6.jpg,stim/latef.jpg,EF,2,4,,,,,0,54,54,56,,,,,,,,,,,,,,4,1,0.58312747751,,,,,,2016_Okt_06_0746,P8,PLC_L_D2S1,NHGY,60.0199776725,
stim/posf.jpg,stim/negf.jpg,stim/3.jpg,stim/5.jpg,stim/latef.jpg,CD,2,4,,,,,0,55,55,36,,,,,,,,,,,,,,4,1,0.71642754405,,,,,,2016_Okt_06_0746,P8,PLC_L_D2S1,NHGY,60.0199776725,
stim/posf.jpg,stim/negf.jpg,stim/2.jpg,stim/4.jpg,stim/latef.jpg,AB,2,4,,,,,0,56,56,10,,,,,,,,,,,,,,4,1,0.83304998515,,,,,,2016_Okt_06_0746,P8,PLC_L_D2S1,NHGY,60.0199776725,
stim/posf.jpg,stim/negf.jpg,stim/6.jpg,stim/1.jpg,stim/latef.jpg,EF,1,2,,,,,0,57,57,42,,,,,,,,,,,,,,2,1,0.683106605564,,,,,,2016_Okt_06_0746,P8,PLC_L_D2S1,NHGY,60.0199776725,
stim/negf.jpg,stim/posf.jpg,stim/4.jpg,stim/2.jpg,stim/latef.jpg,AB,1,2,,,,,0,58,58,9,,,,,,,,,,,,,,2,1,1.01631415886,,,,,,2016_Okt_06_0746,P8,PLC_L_D2S1,NHGY,60.0199776725,
stim/negf.jpg,stim/posf.jpg,stim/4.jpg,stim/2.jpg,stim/latef.jpg,AB,1,2,,,,,0,59,59,8,,,,,,,,,,,,,,2,1,0.716414912614,,,,,,2016_Okt_06_0746,P8,PLC_L_D2S1,NHGY,60.0199776725,
,,,,,,,,,,,,,,,,,,,,,,,,,,,,,,,,0.9984375,0.2109375,1,0,0,2016_Okt_06_0746,P8,PLC_L_D2S1,NHGY,60.0199776725,
stim/posf.jpg,stim/negf.jpg,stim/6.jpg,stim/1.jpg,stim/latef.jpg,EF,1,2,,,,,,,,,0,0,0,40,,,,,,,,,,2,1,0.899679179558,,,,,,2016_Okt_06_0746,P8,PLC_L_D2S1,NHGY,60.0199776725,
stim/posf.jpg,stim/negf.jpg,stim/1.jpg,stim/6.jpg,stim/latef.jpg,EF,2,4,,,,,,,,,0,1,1,53,,,,,,,,,,4,1,1.01629556058,,,,,,2016_Okt_06_0746,P8,PLC_L_D2S1,NHGY,60.0199776725,
stim/posf.jpg,stim/negf.jpg,stim/4.jpg,stim/2.jpg,stim/latef.jpg,AB,1,2,,,,,,,,,0,2,2,2,,,,,,,,,,2,1,0.466502317643,,,,,,2016_Okt_06_0746,P8,PLC_L_D2S1,NHGY,60.0199776725,
stim/posf.jpg,stim/negf.jpg,stim/4.jpg,stim/2.jpg,stim/latef.jpg,AB,1,2,,,,,,,,,0,3,3,3,,,,,,,,,,2,1,0.566470790179,,,,,,2016_Okt_06_0746,P8,PLC_L_D2S1,NHGY,60.0199776725,
stim/posf.jpg,stim/negf.jpg,stim/1.jpg,stim/6.jpg,stim/latef.jpg,EF,2,4,,,,,,,,,0,4,4,55,,,,,,,,,,4,1,0.699758965125,,,,,,2016_Okt_06_0746,P8,PLC_L_D2S1,NHGY,60.0199776725,
stim/posf.jpg,stim/negf.jpg,stim/3.jpg,stim/5.jpg,stim/latef.jpg,CD,2,4,,,,,,,,,0,5,5,35,,,,,,,,,,4,1,0.71642707789,,,,,,2016_Okt_06_0746,P8,PLC_L_D2S1,NHGY,60.0199776725,
stim/posf.jpg,stim/negf.jpg,stim/5.jpg,stim/3.jpg,stim/latef.jpg,CD,1,2,,,,,,,,,0,6,6,20,,,,,,,,,,2,1,0.46651680169,,,,,,2016_Okt_06_0746,P8,PLC_L_D2S1,NHGY,60.0199776725,
stim/posf.jpg,stim/negf.jpg,stim/1.jpg,stim/6.jpg,stim/latef.jpg,EF,2,4,,,,,,,,,0,7,7,51,,,,,,,,,,4,1,0.74976047037,,,,,,2016_Okt_06_0746,P8,PLC_L_D2S1,NHGY,60.0199776725,
stim/posf.jpg,stim/negf.jpg,stim/4.jpg,stim/2.jpg,stim/latef.jpg,AB,1,2,,,,,,,,,0,8,8,7,,,,,,,,,,2,1,0.849694062097,,,,,,2016_Okt_06_0746,P8,PLC_L_D2S1,NHGY,60.0199776725,
stim/posf.jpg,stim/negf.jpg,stim/6.jpg,stim/1.jpg,stim/latef.jpg,EF,1,2,,,,,,,,,0,9,9,45,,,,,,,,,,2,1,0.966319408428,,,,,,2016_Okt_06_0746,P8,PLC_L_D2S1,NHGY,60.0199776725,
stim/negf.jpg,stim/posf.jpg,stim/1.jpg,stim/6.jpg,stim/latef.jpg,EF,2,4,,,,,,,,,0,10,10,59,,,,,,,,,,4,1,0.699793626387,,,,,,2016_Okt_06_0746,P8,PLC_L_D2S1,NHGY,60.0199776725,
stim/posf.jpg,stim/negf.jpg,stim/3.jpg,stim/5.jpg,stim/latef.jpg,CD,2,4,,,,,,,,,0,11,11,33,,,,,,,,,,4,1,0.766389603125,,,,,,2016_Okt_06_0746,P8,PLC_L_D2S1,NHGY,60.0199776725,
stim/posf.jpg,stim/negf.jpg,stim/6.jpg,stim/1.jpg,stim/latef.jpg,EF,1,2,,,,,,,,,0,12,12,44,,,,,,,,,,2,1,0.799754718556,,,,,,2016_Okt_06_0746,P8,PLC_L_D2S1,NHGY,60.0199776725,
stim/negf.jpg,stim/posf.jpg,stim/4.jpg,stim/2.jpg,stim/latef.jpg,AB,1,2,,,,,,,,,0,13,13,8,,,,,,,,,,2,1,0.94968562911,,,,,,2016_Okt_06_0746,P8,PLC_L_D2S1,NHGY,60.0199776725,
stim/posf.jpg,stim/negf.jpg,stim/5.jpg,stim/3.jpg,stim/latef.jpg,CD,1,2,,,,,,,,,0,14,14,25,,,,,,,,,,2,1,0.749750365222,,,,,,2016_Okt_06_0746,P8,PLC_L_D2S1,NHGY,60.0199776725,
stim/posf.jpg,stim/negf.jpg,stim/2.jpg,stim/4.jpg,stim/latef.jpg,AB,2,4,,,,,,,,,0,15,15,16,,,,,,,,,,4,1,0.966259066251,,,,,,2016_Okt_06_0746,P8,PLC_L_D2S1,NHGY,60.0199776725,
stim/posf.jpg,stim/negf.jpg,stim/4.jpg,stim/2.jpg,stim/latef.jpg,AB,1,2,,,,,,,,,0,16,16,0,,,,,,,,,,2,1,0.59981407127,,,,,,2016_Okt_06_0746,P8,PLC_L_D2S1,NHGY,60.0199776725,
stim/negf.jpg,stim/posf.jpg,stim/1.jpg,stim/6.jpg,stim/latef.jpg,EF,2,4,,,,,,,,,0,17,17,58,,,,,,,,,,4,1,0.733116225005,,,,,,2016_Okt_06_0746,P8,PLC_L_D2S1,NHGY,60.0199776725,
stim/posf.jpg,stim/negf.jpg,stim/2.jpg,stim/4.jpg,stim/latef.jpg,AB,2,4,,,,,,,,,0,18,18,11,,,,,,,,,,4,1,0.783057920399,,,,,,2016_Okt_06_0746,P8,PLC_L_D2S1,NHGY,60.0199776725,
stim/posf.jpg,stim/negf.jpg,stim/2.jpg,stim/4.jpg,stim/latef.jpg,AB,2,4,,,,,,,,,0,19,19,10,,,,,,,,,,4,1,0.683066882704,,,,,,2016_Okt_06_0746,P8,PLC_L_D2S1,NHGY,60.0199776725,
stim/negf.jpg,stim/posf.jpg,stim/5.jpg,stim/3.jpg,stim/latef.jpg,CD,1,2,,,,,,,,,0,20,20,28,,,,,,,,,,2,1,0.966341065327,,,,,,2016_Okt_06_0746,P8,PLC_L_D2S1,NHGY,60.0199776725,
stim/negf.jpg,stim/posf.jpg,stim/3.jpg,stim/5.jpg,stim/latef.jpg,CD,2,4,,,,,,,,,0,21,21,37,,,,,,,,,,4,1,0.616473558569,,,,,,2016_Okt_06_0746,P8,PLC_L_D2S1,NHGY,60.0199776725,
stim/posf.jpg,stim/negf.jpg,stim/3.jpg,stim/5.jpg,stim/latef.jpg,CD,2,4,,,,,,,,,0,22,22,34,,,,,,,,,,4,1,0.816384789645,,,,,,2016_Okt_06_0746,P8,PLC_L_D2S1,NHGY,60.0199776725,
stim/posf.jpg,stim/negf.jpg,stim/6.jpg,stim/1.jpg,stim/latef.jpg,EF,1,2,,,,,,,,,0,23,23,41,,,,,,,,,,2,1,0.882977785965,,,,,,2016_Okt_06_0746,P8,PLC_L_D2S1,NHGY,60.0199776725,
stim/negf.jpg,stim/posf.jpg,stim/3.jpg,stim/5.jpg,stim/latef.jpg,CD,2,4,,,,,,,,,0,24,24,38,,,,,,,,,,4,1,0.733082405838,,,,,,2016_Okt_06_0746,P8,PLC_L_D2S1,NHGY,60.0199776725,
stim/posf.jpg,stim/negf.jpg,stim/2.jpg,stim/4.jpg,stim/latef.jpg,AB,2,4,,,,,,,,,0,25,25,13,,,,,,,,,,4,1,0.866357564388,,,,,,2016_Okt_06_0746,P8,PLC_L_D2S1,NHGY,60.0199776725,
stim/posf.jpg,stim/negf.jpg,stim/5.jpg,stim/3.jpg,stim/latef.jpg,CD,1,2,,,,,,,,,0,26,26,24,,,,,,,,,,2,1,1.21782819592,,,,,,2016_Okt_06_0746,P8,PLC_L_D2S1,NHGY,60.0199776725,
stim/posf.jpg,stim/negf.jpg,stim/3.jpg,stim/5.jpg,stim/latef.jpg,CD,2,4,,,,,,,,,0,27,27,30,,,,,,,,,,4,1,0.88304388146,,,,,,2016_Okt_06_0746,P8,PLC_L_D2S1,NHGY,60.0199776725,
stim/negf.jpg,stim/posf.jpg,stim/1.jpg,stim/6.jpg,stim/latef.jpg,EF,2,4,,,,,,,,,0,28,28,56,,,,,,,,,,4,1,0.78306815487,,,,,,2016_Okt_06_0746,P8,PLC_L_D2S1,NHGY,60.0199776725,
stim/posf.jpg,stim/negf.jpg,stim/4.jpg,stim/2.jpg,stim/latef.jpg,AB,1,2,,,,,,,,,0,29,29,4,,,,,,,,,,2,1,1.0996310989,,,,,,2016_Okt_06_0746,P8,PLC_L_D2S1,NHGY,60.0199776725,
stim/posf.jpg,stim/negf.jpg,stim/3.jpg,stim/5.jpg,stim/latef.jpg,CD,2,4,,,,,,,,,0,30,30,36,,,,,,,,,,4,1,0.816422434334,,,,,,2016_Okt_06_0746,P8,PLC_L_D2S1,NHGY,60.0199776725,
stim/negf.jpg,stim/posf.jpg,stim/1.jpg,stim/6.jpg,stim/latef.jpg,EF,2,4,,,,,,,,,0,31,31,57,,,,,,,,,,4,1,0.766387055785,,,,,,2016_Okt_06_0746,P8,PLC_L_D2S1,NHGY,60.0199776725,
stim/posf.jpg,stim/negf.jpg,stim/2.jpg,stim/4.jpg,stim/latef.jpg,AB,2,4,,,,,,,,,0,32,32,14,,,,,,,,,,4,1,0.816376362673,,,,,,2016_Okt_06_0746,P8,PLC_L_D2S1,NHGY,60.0199776725,
stim/posf.jpg,stim/negf.jpg,stim/6.jpg,stim/1.jpg,stim/latef.jpg,EF,1,2,,,,,,,,,0,33,33,42,,,,,,,,,,2,1,0.599796862442,,,,,,2016_Okt_06_0746,P8,PLC_L_D2S1,NHGY,60.0199776725,
stim/negf.jpg,stim/posf.jpg,stim/6.jpg,stim/1.jpg,stim/latef.jpg,EF,1,2,,,,,,,,,0,34,34,47,,,,,,,,,,2,1,0.516481462239,,,,,,2016_Okt_06_0746,P8,PLC_L_D2S1,NHGY,60.0199776725,
stim/negf.jpg,stim/posf.jpg,stim/3.jpg,stim/5.jpg,stim/latef.jpg,CD,2,4,,,,,,,,,0,35,35,39,,,,,,,,,,4,1,0.783059027154,,,,,,2016_Okt_06_0746,P8,PLC_L_D2S1,NHGY,60.0199776725,
stim/posf.jpg,stim/negf.jpg,stim/5.jpg,stim/3.jpg,stim/latef.jpg,CD,1,2,,,,,,,,,0,36,36,22,,,,,,,,,,2,1,0.499789891091,,,,,,2016_Okt_06_0746,P8,PLC_L_D2S1,NHGY,60.0199776725,
stim/posf.jpg,stim/negf.jpg,stim/1.jpg,stim/6.jpg,stim/latef.jpg,EF,2,4,,,,,,,,,0,37,37,54,,,,,,,,,,4,1,0.699779816017,,,,,,2016_Okt_06_0746,P8,PLC_L_D2S1,NHGY,60.0199776725,
stim/posf.jpg,stim/negf.jpg,stim/5.jpg,stim/3.jpg,stim/latef.jpg,CD,1,2,,,,,,,,,0,38,38,23,,,,,,,,,,2,1,0.6331414969,,,,,,2016_Okt_06_0746,P8,PLC_L_D2S1,NHGY,60.0199776725,
stim/negf.jpg,stim/posf.jpg,stim/5.jpg,stim/3.jpg,stim/latef.jpg,CD,1,2,,,,,,,,,0,39,39,27,,,,,,,,,,2,1,0.566463821837,,,,,,2016_Okt_06_0746,P8,PLC_L_D2S1,NHGY,60.0199776725,
stim/posf.jpg,stim/negf.jpg,stim/4.jpg,stim/2.jpg,stim/latef.jpg,AB,1,2,,,,,,,,,0,40,40,5,,,,,,,,,,2,1,0.516488941854,,,,,,2016_Okt_06_0746,P8,PLC_L_D2S1,NHGY,60.0199776725,
stim/posf.jpg,stim/negf.jpg,stim/2.jpg,stim/4.jpg,stim/latef.jpg,AB,2,4,,,,,,,,,0,41,41,17,,,,,,,,,,4,1,0.533191830167,,,,,,2016_Okt_06_0746,P8,PLC_L_D2S1,NHGY,60.0199776725,
stim/posf.jpg,stim/negf.jpg,stim/2.jpg,stim/4.jpg,stim/latef.jpg,AB,2,4,,,,,,,,,0,42,42,15,,,,,,,,,,4,1,0.616451264083,,,,,,2016_Okt_06_0746,P8,PLC_L_D2S1,NHGY,60.0199776725,
stim/negf.jpg,stim/posf.jpg,stim/6.jpg,stim/1.jpg,stim/latef.jpg,EF,1,2,,,,,,,,,0,43,43,49,,,,,,,,,,2,1,0.882981181415,,,,,,2016_Okt_06_0746,P8,PLC_L_D2S1,NHGY,60.0199776725,
stim/negf.jpg,stim/posf.jpg,stim/6.jpg,stim/1.jpg,stim/latef.jpg,EF,1,2,,,,,,,,,0,44,44,48,,,,,,,,,,2,1,0.666432095878,,,,,,2016_Okt_06_0746,P8,PLC_L_D2S1,NHGY,60.0199776725,
stim/posf.jpg,stim/negf.jpg,stim/5.jpg,stim/3.jpg,stim/latef.jpg,CD,1,2,,,,,,,,,0,45,45,21,,,,,,,,,,2,1,0.749746584813,,,,,,2016_Okt_06_0746,P8,PLC_L_D2S1,NHGY,60.0199776725,
stim/negf.jpg,stim/posf.jpg,stim/4.jpg,stim/2.jpg,stim/latef.jpg,AB,1,2,,,,,,,,,0,46,46,9,,,,,,,,,,2,1,0.71646477972,,,,,,2016_Okt_06_0746,P8,PLC_L_D2S1,NHGY,60.0199776725,
stim/posf.jpg,stim/negf.jpg,stim/3.jpg,stim/5.jpg,stim/latef.jpg,CD,2,4,,,,,,,,,0,47,47,32,,,,,,,,,,4,1,0.79973536539,,,,,,2016_Okt_06_0746,P8,PLC_L_D2S1,NHGY,60.0199776725,
stim/posf.jpg,stim/negf.jpg,stim/1.jpg,stim/6.jpg,stim/latef.jpg,EF,2,4,,,,,,,,,0,48,48,52,,,,,,,,,,4,1,0.783054804645,,,,,,2016_Okt_06_0746,P8,PLC_L_D2S1,NHGY,60.0199776725,
stim/negf.jpg,stim/posf.jpg,stim/2.jpg,stim/4.jpg,stim/latef.jpg,AB,2,4,,,,,,,,,0,49,49,19,,,,,,,,,,4,1,0.63316542445,,,,,,2016_Okt_06_0746,P8,PLC_L_D2S1,NHGY,60.0199776725,
stim/posf.jpg,stim/negf.jpg,stim/3.jpg,stim/5.jpg,stim/latef.jpg,CD,2,4,,,,,,,,,0,50,50,31,,,,,,,,,,4,1,0.749745965271,,,,,,2016_Okt_06_0746,P8,PLC_L_D2S1,NHGY,60.0199776725,
stim/posf.jpg,stim/negf.jpg,stim/5.jpg,stim/3.jpg,stim/latef.jpg,CD,1,2,,,,,,,,,0,51,51,26,,,,,,,,,,2,1,0.633124393334,,,,,,2016_Okt_06_0746,P8,PLC_L_D2S1,NHGY,60.0199776725,
stim/negf.jpg,stim/posf.jpg,stim/6.jpg,stim/1.jpg,stim/latef.jpg,EF,1,2,,,,,,,,,0,52,52,46,,,,,,,,,,2,1,0.566462327117,,,,,,2016_Okt_06_0746,P8,PLC_L_D2S1,NHGY,60.0199776725,
stim/negf.jpg,stim/posf.jpg,stim/5.jpg,stim/3.jpg,stim/latef.jpg,CD,1,2,,,,,,,,,0,53,53,29,,,,,,,,,,2,1,0.633109103281,,,,,,2016_Okt_06_0746,P8,PLC_L_D2S1,NHGY,60.0199776725,
stim/posf.jpg,stim/negf.jpg,stim/4.jpg,stim/2.jpg,stim/latef.jpg,AB,1,2,,,,,,,,,0,54,54,1,,,,,,,,,,2,1,0.549747835927,,,,,,2016_Okt_06_0746,P8,PLC_L_D2S1,NHGY,60.0199776725,
stim/negf.jpg,stim/posf.jpg,stim/2.jpg,stim/4.jpg,stim/latef.jpg,AB,2,4,,,,,,,,,0,55,55,18,,,,,,,,,,4,1,0.583124160254,,,,,,2016_Okt_06_0746,P8,PLC_L_D2S1,NHGY,60.0199776725,
stim/posf.jpg,stim/negf.jpg,stim/1.jpg,stim/6.jpg,stim/latef.jpg,EF,2,4,,,,,,,,,0,56,56,50,,,,,,,,,,4,1,0.616454563294,,,,,,2016_Okt_06_0746,P8,PLC_L_D2S1,NHGY,60.0199776725,
stim/posf.jpg,stim/negf.jpg,stim/4.jpg,stim/2.jpg,stim/latef.jpg,AB,1,2,,,,,,,,,0,57,57,6,,,,,,,,,,2,1,0.633134287959,,,,,,2016_Okt_06_0746,P8,PLC_L_D2S1,NHGY,60.0199776725,
stim/posf.jpg,stim/negf.jpg,stim/2.jpg,stim/4.jpg,stim/latef.jpg,AB,2,4,,,,,,,,,0,58,58,12,,,,,,,,,,4,1,1.06630723714,,,,,,2016_Okt_06_0746,P8,PLC_L_D2S1,NHGY,60.0199776725,
stim/posf.jpg,stim/negf.jpg,stim/6.jpg,stim/1.jpg,stim/latef.jpg,EF,1,2,,,,,,,,,0,59,59,43,,,,,,,,,,2,1,0.616456593346,,,,,,2016_Okt_06_0746,P8,PLC_L_D2S1,NHGY,60.0199776725,
,,,,,,,,,,,,,,,,,,,,,,,,,,,,,,,,0.9984375,0.2109375,1,0,0,2016_Okt_06_0746,P8,PLC_L_D2S1,NHGY,60.0199776725,
stim/posf.jpg,stim/negf.jpg,stim/6.jpg,stim/1.jpg,stim/latef.jpg,EF,1,2,,,,,,,,,,,,,0,0,0,44,,,,,,2,1,0.61652859855,,,,,,2016_Okt_06_0746,P8,PLC_L_D2S1,NHGY,60.0199776725,
stim/posf.jpg,stim/negf.jpg,stim/1.jpg,stim/6.jpg,stim/latef.jpg,EF,2,4,,,,,,,,,,,,,0,1,1,55,,,,,,4,1,0.633108610053,,,,,,2016_Okt_06_0746,P8,PLC_L_D2S1,NHGY,60.0199776725,
stim/posf.jpg,stim/negf.jpg,stim/5.jpg,stim/3.jpg,stim/latef.jpg,CD,1,2,,,,,,,,,,,,,0,2,2,26,,,,,,2,1,0.899704508596,,,,,,2016_Okt_06_0746,P8,PLC_L_D2S1,NHGY,60.0199776725,
stim/posf.jpg,stim/negf.jpg,stim/5.jpg,stim/3.jpg,stim/latef.jpg,CD,1,2,,,,,,,,,,,,,0,3,3,23,,,,,,2,1,0.666412637452,,,,,,2016_Okt_06_0746,P8,PLC_L_D2S1,NHGY,60.0199776725,
stim/posf.jpg,stim/negf.jpg,stim/1.jpg,stim/6.jpg,stim/latef.jpg,EF,2,4,,,,,,,,,,,,,0,4,4,53,,,,,,4,1,0.699761939527,,,,,,2016_Okt_06_0746,P8,PLC_L_D2S1,NHGY,60.0199776725,
stim/posf.jpg,stim/negf.jpg,stim/1.jpg,stim/6.jpg,stim/latef.jpg,EF,2,4,,,,,,,,,,,,,0,5,5,52,,,,,,4,1,0.633124883554,,,,,,2016_Okt_06_0746,P8,PLC_L_D2S1,NHGY,60.0199776725,
stim/posf.jpg,stim/negf.jpg,stim/4.jpg,stim/2.jpg,stim/latef.jpg,AB,1,2,,,,,,,,,,,,,0,6,6,3,,,,,,2,1,0.933018602046,,,,,,2016_Okt_06_0746,P8,PLC_L_D2S1,NHGY,60.0199776725,
stim/negf.jpg,stim/posf.jpg,stim/1.jpg,stim/6.jpg,stim/latef.jpg,EF,2,4,,,,,,,,,,,,,0,7,7,56,,,,,,4,1,0.666437310857,,,,,,2016_Okt_06_0746,P8,PLC_L_D2S1,NHGY,60.0199776725,
stim/negf.jpg,stim/posf.jpg,stim/5.jpg,stim/3.jpg,stim/latef.jpg,CD,1,2,,,,,,,,,,,,,0,8,8,29,,,,,,2,1,0.649766181584,,,,,,2016_Okt_06_0746,P8,PLC_L_D2S1,NHGY,60.0199776725,
stim/posf.jpg,stim/negf.jpg,stim/3.jpg,stim/5.jpg,stim/latef.jpg,CD,2,4,,,,,,,,,,,,,0,9,9,32,,,,,,4,1,0.966379392714,,,,,,2016_Okt_06_0746,P8,PLC_L_D2S1,NHGY,60.0199776725,
stim/negf.jpg,stim/posf.jpg,stim/6.jpg,stim/1.jpg,stim/latef.jpg,EF,1,2,,,,,,,,,,,,,0,10,10,46,,,,,,2,1,0.583180971643,,,,,,2016_Okt_06_0746,P8,PLC_L_D2S1,NHGY,60.0199776725,
stim/posf.jpg,stim/negf.jpg,stim/3.jpg,stim/5.jpg,stim/latef.jpg,CD,2,4,,,,,,,,,,,,,0,11,11,36,,,,,,4,1,1.14962659519,,,,,,2016_Okt_06_0746,P8,PLC_L_D2S1,NHGY,60.0199776725,
stim/posf.jpg,stim/negf.jpg,stim/5.jpg,stim/3.jpg,stim/latef.jpg,CD,1,2,,,,,,,,,,,,,0,12,12,22,,,,,,2,1,0.566482886283,,,,,,2016_Okt_06_0746,P8,PLC_L_D2S1,NHGY,60.0199776725,
stim/posf.jpg,stim/negf.jpg,stim/2.jpg,stim/4.jpg,stim/latef.jpg,AB,2,4,,,,,,,,,,,,,0,13,13,16,,,,,,4,1,0.549801633816,,,,,,2016_Okt_06_0746,P8,PLC_L_D2S1,NHGY,60.0199776725,
stim/posf.jpg,stim/negf.jpg,stim/5.jpg,stim/3.jpg,stim/latef.jpg,CD,1,2,,,,,,,,,,,,,0,14,14,20,,,,,,2,1,0.549826463612,,,,,,2016_Okt_06_0746,P8,PLC_L_D2S1,NHGY,60.0199776725,
stim/posf.jpg,stim/negf.jpg,stim/3.jpg,stim/5.jpg,stim/latef.jpg,CD,2,4,,,,,,,,,,,,,0,15,15,30,,,,,,4,1,0.883113047597,,,,,,2016_Okt_06_0746,P8,PLC_L_D2S1,NHGY,60.0199776725,
stim/posf.jpg,stim/negf.jpg,stim/1.jpg,stim/6.jpg,stim/latef.jpg,EF,2,4,,,,,,,,,,,,,0,16,16,50,,,,,,4,1,0.899651393405,,,,,,2016_Okt_06_0746,P8,PLC_L_D2S1,NHGY,60.0199776725,
stim/posf.jpg,stim/negf.jpg,stim/3.jpg,stim/5.jpg,stim/latef.jpg,CD,2,4,,,,,,,,,,,,,0,17,17,33,,,,,,4,1,0.783082837412,,,,,,2016_Okt_06_0746,P8,PLC_L_D2S1,NHGY,60.0199776725,
stim/posf.jpg,stim/negf.jpg,stim/4.jpg,stim/2.jpg,stim/latef.jpg,AB,1,2,,,,,,,,,,,,,0,18,18,4,,,,,,2,1,0.849718170096,,,,,,2016_Okt_06_0746,P8,PLC_L_D2S1,NHGY,60.0199776725,
stim/posf.jpg,stim/negf.jpg,stim/3.jpg,stim/5.jpg,stim/latef.jpg,CD,2,4,,,,,,,,,,,,,0,19,19,35,,,,,,4,1,0.899705907076,,,,,,2016_Okt_06_0746,P8,PLC_L_D2S1,NHGY,60.0199776725,
stim/posf.jpg,stim/negf.jpg,stim/2.jpg,stim/4.jpg,stim/latef.jpg,AB,2,4,,,,,,,,,,,,,0,20,20,14,,,,,,4,1,0.683105192047,,,,,,2016_Okt_06_0746,P8,PLC_L_D2S1,NHGY,60.0199776725,
stim/posf.jpg,stim/negf.jpg,stim/4.jpg,stim/2.jpg,stim/latef.jpg,AB,1,2,,,,,,,,,,,,,0,21,21,0,,,,,,2,1,0.649745078063,,,,,,2016_Okt_06_0746,P8,PLC_L_D2S1,NHGY,60.0199776725,
stim/posf.jpg,stim/negf.jpg,stim/4.jpg,stim/2.jpg,stim/latef.jpg,AB,1,2,,,,,,,,,,,,,0,22,22,7,,,,,,2,1,0.5498103465,,,,,,2016_Okt_06_0746,P8,PLC_L_D2S1,NHGY,60.0199776725,
stim/negf.jpg,stim/posf.jpg,stim/4.jpg,stim/2.jpg,stim/latef.jpg,AB,1,2,,,,,,,,,,,,,0,23,23,8,,,,,,2,1,0.499772727375,,,,,,2016_Okt_06_0746,P8,PLC_L_D2S1,NHGY,60.0199776725,
stim/negf.jpg,stim/posf.jpg,stim/5.jpg,stim/3.jpg,stim/latef.jpg,CD,1,2,,,,,,,,,,,,,0,24,24,28,,,,,,2,1,1.09961850355,,,,,,2016_Okt_06_0746,P8,PLC_L_D2S1,NHGY,60.0199776725,
stim/posf.jpg,stim/negf.jpg,stim/2.jpg,stim/4.jpg,stim/latef.jpg,AB,2,4,,,,,,,,,,,,,0,25,25,13,,,,,,4,1,0.666434477807,,,,,,2016_Okt_06_0746,P8,PLC_L_D2S1,NHGY,60.0199776725,
stim/posf.jpg,stim/negf.jpg,stim/1.jpg,stim/6.jpg,stim/latef.jpg,EF,2,4,,,,,,,,,,,,,0,26,26,51,,,,,,4,1,0.649729878235,,,,,,2016_Okt_06_0746,P8,PLC_L_D2S1,NHGY,60.0199776725,
stim/posf.jpg,stim/negf.jpg,stim/5.jpg,stim/3.jpg,stim/latef.jpg,CD,1,2,,,,,,,,,,,,,0,27,27,25,,,,,,2,1,0.866384923478,,,,,,2016_Okt_06_0746,P8,PLC_L_D2S1,NHGY,60.0199776725,
stim/posf.jpg,stim/negf.jpg,stim/2.jpg,stim/4.jpg,stim/latef.jpg,AB,2,4,,,,,,,,,,,,,0,28,28,11,,,,,,4,1,0.633122128698,,,,,,2016_Okt_06_0746,P8,PLC_L_D2S1,NHGY,60.0199776725,
stim/negf.jpg,stim/posf.jpg,stim/3.jpg,stim/5.jpg,stim/latef.jpg,CD,2,4,,,,,,,,,,,,,0,29,29,38,,,,,,4,1,0.666484032135,,,,,,2016_Okt_06_0746,P8,PLC_L_D2S1,NHGY,60.0199776725,
stim/negf.jpg,stim/posf.jpg,stim/3.jpg,stim/5.jpg,stim/latef.jpg,CD,2,4,,,,,,,,,,,,,0,30,30,39,,,,,,4,1,0.799741148784,,,,,,2016_Okt_06_0746,P8,PLC_L_D2S1,NHGY,60.0199776725,
stim/negf.jpg,stim/posf.jpg,stim/6.jpg,stim/1.jpg,stim/latef.jpg,EF,1,2,,,,,,,,,,,,,0,31,31,49,,,,,,2,1,0.983004269877,,,,,,2016_Okt_06_0746,P8,PLC_L_D2S1,NHGY,60.0199776725,
stim/posf.jpg,stim/negf.jpg,stim/2.jpg,stim/4.jpg,stim/latef.jpg,AB,2,4,,,,,,,,,,,,,0,32,32,10,,,,,,4,1,0.666426255343,,,,,,2016_Okt_06_0746,P8,PLC_L_D2S1,NHGY,60.0199776725,
stim/posf.jpg,stim/negf.jpg,stim/2.jpg,stim/4.jpg,stim/latef.jpg,AB,2,4,,,,,,,,,,,,,0,33,33,15,,,,,,4,1,0.649746190833,,,,,,2016_Okt_06_0746,P8,PLC_L_D2S1,NHGY,60.0199776725,
stim/negf.jpg,stim/posf.jpg,stim/1.jpg,stim/6.jpg,stim/latef.jpg,EF,2,4,,,,,,,,,,,,,0,34,34,57,,,,,,4,1,0.84970838374,,,,,,2016_Okt_06_0746,P8,PLC_L_D2S1,NHGY,60.0199776725,
stim/posf.jpg,stim/negf.jpg,stim/5.jpg,stim/3.jpg,stim/latef.jpg,CD,1,2,,,,,,,,,,,,,0,35,35,24,,,,,,2,1,0.733087759161,,,,,,2016_Okt_06_0746,P8,PLC_L_D2S1,NHGY,60.0199776725,
stim/negf.jpg,stim/posf.jpg,stim/1.jpg,stim/6.jpg,stim/latef.jpg,EF,2,4,,,,,,,,,,,,,0,36,36,59,,,,,,4,1,0.566491809491,,,,,,2016_Okt_06_0746,P8,PLC_L_D2S1,NHGY,60.0199776725,
stim/negf.jpg,stim/posf.jpg,stim/2.jpg,stim/4.jpg,stim/latef.jpg,AB,2,4,,,,,,,,,,,,,0,37,37,19,,,,,,4,1,0.799746790825,,,,,,2016_Okt_06_0746,P8,PLC_L_D2S1,NHGY,60.0199776725,
stim/posf.jpg,stim/negf.jpg,stim/4.jpg,stim/2.jpg,stim/latef.jpg,AB,1,2,,,,,,,,,,,,,0,38,38,5,,,,,,2,1,0.533158398965,,,,,,2016_Okt_06_0746,P8,PLC_L_D2S1,NHGY,60.0199776725,
stim/negf.jpg,stim/posf.jpg,stim/5.jpg,stim/3.jpg,stim/latef.jpg,CD,1,2,,,,,,,,,,,,,0,39,39,27,,,,,,2,1,0.699760507964,,,,,,2016_Okt_06_0746,P8,PLC_L_D2S1,NHGY,60.0199776725,
stim/negf.jpg,stim/posf.jpg,stim/6.jpg,stim/1.jpg,stim/latef.jpg,EF,1,2,,,,,,,,,,,,,0,40,40,48,,,,,,2,1,0.533144173562,,,,,,2016_Okt_06_0746,P8,PLC_L_D2S1,NHGY,60.0199776725,
stim/posf.jpg,stim/negf.jpg,stim/6.jpg,stim/1.jpg,stim/latef.jpg,EF,1,2,,,,,,,,,,,,,0,41,41,41,,,,,,2,1,0.516482544934,,,,,,2016_Okt_06_0746,P8,PLC_L_D2S1,NHGY,60.0199776725,
stim/posf.jpg,stim/negf.jpg,stim/6.jpg,stim/1.jpg,stim/latef.jpg,EF,1,2,,,,,,,,,,,,,0,42,42,43,,,,,,2,1,0.6331276745,,,,,,2016_Okt_06_0746,P8,PLC_L_D2S1,NHGY,60.0199776725,
stim/posf.jpg,stim/negf.jpg,stim/2.jpg,stim/4.jpg,stim/latef.jpg,AB,2,4,,,,,,,,,,,,,0,43,43,12,,,,,,4,1,0.766422730571,,,,,,2016_Okt_06_0746,P8,PLC_L_D2S1,NHGY,60.0199776725,
stim/posf.jpg,stim/negf.jpg,stim/5.jpg,stim/3.jpg,stim/latef.jpg,CD,1,2,,,,,,,,,,,,,0,44,44,21,,,,,,2,1,0.69969314331,,,,,,2016_Okt_06_0746,P8,PLC_L_D2S1,NHGY,60.0199776725,
stim/negf.jpg,stim/posf.jpg,stim/1.jpg,stim/6.jpg,stim/latef.jpg,EF,2,4,,,,,,,,,,,,,0,45,45,58,,,,,,4,1,0.683093390676,,,,,,2016_Okt_06_0746,P8,PLC_L_D2S1,NHGY,60.0199776725,
stim/posf.jpg,stim/negf.jpg,stim/6.jpg,stim/1.jpg,stim/latef.jpg,EF,1,2,,,,,,,,,,,,,0,46,46,40,,,,,,2,1,0.483134361642,,,,,,2016_Okt_06_0746,P8,PLC_L_D2S1,NHGY,60.0199776725,
stim/posf.jpg,stim/negf.jpg,stim/2.jpg,stim/4.jpg,stim/latef.jpg,AB,2,4,,,,,,,,,,,,,0,47,47,17,,,,,,4,1,0.633113491201,,,,,,2016_Okt_06_0746,P8,PLC_L_D2S1,NHGY,60.0199776725,
stim/posf.jpg,stim/negf.jpg,stim/4.jpg,stim/2.jpg,stim/latef.jpg,AB,1,2,,,,,,,,,,,,,0,48,48,1,,,,,,2,1,0.48312703541,,,,,,2016_Okt_06_0746,P8,PLC_L_D2S1,NHGY,60.0199776725,
stim/posf.jpg,stim/negf.jpg,stim/6.jpg,stim/1.jpg,stim/latef.jpg,EF,1,2,,,,,,,,,,,,,0,49,49,45,,,,,,2,1,0.716408617948,,,,,,2016_Okt_06_0746,P8,PLC_L_D2S1,NHGY,60.0199776725,
stim/posf.jpg,stim/negf.jpg,stim/1.jpg,stim/6.jpg,stim/latef.jpg,EF,2,4,,,,,,,,,,,,,0,50,50,54,,,,,,4,1,0.599791205362,,,,,,2016_Okt_06_0746,P8,PLC_L_D2S1,NHGY,60.0199776725,
stim/posf.jpg,stim/negf.jpg,stim/6.jpg,stim/1.jpg,stim/latef.jpg,EF,1,2,,,,,,,,,,,,,0,51,51,42,,,,,,2,1,0.416430774089,,,,,,2016_Okt_06_0746,P8,PLC_L_D2S1,NHGY,60.0199776725,
stim/negf.jpg,stim/posf.jpg,stim/3.jpg,stim/5.jpg,stim/latef.jpg,CD,2,4,,,,,,,,,,,,,0,52,52,37,,,,,,4,1,0.716427986151,,,,,,2016_Okt_06_0746,P8,PLC_L_D2S1,NHGY,60.0199776725,
stim/negf.jpg,stim/posf.jpg,stim/2.jpg,stim/4.jpg,stim/latef.jpg,AB,2,4,,,,,,,,,,,,,0,53,53,18,,,,,,4,1,0.583134211268,,,,,,2016_Okt_06_0746,P8,PLC_L_D2S1,NHGY,60.0199776725,
stim/posf.jpg,stim/negf.jpg,stim/3.jpg,stim/5.jpg,stim/latef.jpg,CD,2,4,,,,,,,,,,,,,0,54,54,34,,,,,,4,1,0.949682441176,,,,,,2016_Okt_06_0746,P8,PLC_L_D2S1,NHGY,60.0199776725,
stim/negf.jpg,stim/posf.jpg,stim/4.jpg,stim/2.jpg,stim/latef.jpg,AB,1,2,,,,,,,,,,,,,0,55,55,9,,,,,,2,1,0.533153409548,,,,,,2016_Okt_06_0746,P8,PLC_L_D2S1,NHGY,60.0199776725,
stim/posf.jpg,stim/negf.jpg,stim/3.jpg,stim/5.jpg,stim/latef.jpg,CD,2,4,,,,,,,,,,,,,0,56,56,31,,,,,,4,1,0.583194135404,,,,,,2016_Okt_06_0746,P8,PLC_L_D2S1,NHGY,60.0199776725,
stim/posf.jpg,stim/negf.jpg,stim/4.jpg,stim/2.jpg,stim/latef.jpg,AB,1,2,,,,,,,,,,,,,0,57,57,6,,,,,,2,1,0.483161633515,,,,,,2016_Okt_06_0746,P8,PLC_L_D2S1,NHGY,60.0199776725,
stim/posf.jpg,stim/negf.jpg,stim/4.jpg,stim/2.jpg,stim/latef.jpg,AB,1,2,,,,,,,,,,,,,0,58,58,2,,,,,,2,1,0.749737087176,,,,,,2016_Okt_06_0746,P8,PLC_L_D2S1,NHGY,60.0199776725,
stim/negf.jpg,stim/posf.jpg,stim/6.jpg,stim/1.jpg,stim/latef.jpg,EF,1,2,,,,,,,,,,,,,0,59,59,47,,,,,,2,1,0.63304723631,,,,,,2016_Okt_06_0746,P8,PLC_L_D2S1,NHGY,60.0199776725,
