fb_corr,fb_incorr,symbol2,symbol1,fb_late,pair,position,correct,block_01.thisRepN,block_01.thisTrialN,block_01.thisN,block_01.thisIndex,block_02.thisRepN,block_02.thisTrialN,block_02.thisN,block_02.thisIndex,block_03.thisRepN,block_03.thisTrialN,block_03.thisN,block_03.thisIndex,block_04.thisRepN,block_04.thisTrialN,block_04.thisN,block_04.thisIndex,mouse.x,mouse.y,mouse.leftButton,mouse.midButton,mouse.rightButton,buttonBox_2.keys,buttonBox_2.corr,buttonBox_2.rt,mouse_2.x,mouse_2.y,mouse_2.leftButton,mouse_2.midButton,mouse_2.rightButton,date,Participant,expName,Group,frameRate,
,,,,,,,,,,,,,,,,,,,,,,,,0.99875,0.937777777778,1,0,0,,,,,,,,,2017_Jan_27_1313,P9,PLC_L_D2S1,NHGY,59.9960318261,
stim/posf.jpg,stim/negf.jpg,stim/5.jpg,stim/4.jpg,stim/latef.jpg,EF,1,2,0,0,0,43,,,,,,,,,,,,,,,,,,2,1,0.916722749743,,,,,,2017_Jan_27_1313,P9,PLC_L_D2S1,NHGY,59.9960318261,
stim/posf.jpg,stim/negf.jpg,stim/5.jpg,stim/4.jpg,stim/latef.jpg,EF,1,2,0,1,1,45,,,,,,,,,,,,,,,,,,2,1,0.849992356477,,,,,,2017_Jan_27_1313,P9,PLC_L_D2S1,NHGY,59.9960318261,
stim/negf.jpg,stim/posf.jpg,stim/5.jpg,stim/4.jpg,stim/latef.jpg,EF,1,2,0,2,2,48,,,,,,,,,,,,,,,,,,2,1,0.783257879047,,,,,,2017_Jan_27_1313,P9,PLC_L_D2S1,NHGY,59.9960318261,
stim/posf.jpg,stim/negf.jpg,stim/6.jpg,stim/2.jpg,stim/latef.jpg,AB,1,2,0,3,3,2,,,,,,,,,,,,,,,,,,4,0,0.949971914602,,,,,,2017_Jan_27_1313,P9,PLC_L_D2S1,NHGY,59.9960318261,
stim/posf.jpg,stim/negf.jpg,stim/2.jpg,stim/6.jpg,stim/latef.jpg,AB,2,4,0,4,4,15,,,,,,,,,,,,,,,,,,4,1,1.24996644098,,,,,,2017_Jan_27_1313,P9,PLC_L_D2S1,NHGY,59.9960318261,
stim/negf.jpg,stim/posf.jpg,stim/1.jpg,stim/3.jpg,stim/latef.jpg,CD,1,2,0,5,5,27,,,,,,,,,,,,,,,,,,2,1,1.18332066932,,,,,,2017_Jan_27_1313,P9,PLC_L_D2S1,NHGY,59.9960318261,
stim/posf.jpg,stim/negf.jpg,stim/4.jpg,stim/5.jpg,stim/latef.jpg,EF,2,4,0,6,6,55,,,,,,,,,,,,,,,,,,2,0,1.19999531133,,,,,,2017_Jan_27_1313,P9,PLC_L_D2S1,NHGY,59.9960318261,
stim/posf.jpg,stim/negf.jpg,stim/5.jpg,stim/4.jpg,stim/latef.jpg,EF,1,2,0,7,7,40,,,,,,,,,,,,,,,,,,2,1,1.15001878625,,,,,,2017_Jan_27_1313,P9,PLC_L_D2S1,NHGY,59.9960318261,
stim/negf.jpg,stim/posf.jpg,stim/6.jpg,stim/2.jpg,stim/latef.jpg,AB,1,2,0,8,8,9,,,,,,,,,,,,,,,,,,2,1,1.21664122585,,,,,,2017_Jan_27_1313,P9,PLC_L_D2S1,NHGY,59.9960318261,
stim/posf.jpg,stim/negf.jpg,stim/1.jpg,stim/3.jpg,stim/latef.jpg,CD,1,2,0,9,9,22,,,,,,,,,,,,,,,,,,4,0,1.25003042823,,,,,,2017_Jan_27_1313,P9,PLC_L_D2S1,NHGY,59.9960318261,
stim/posf.jpg,stim/negf.jpg,stim/6.jpg,stim/2.jpg,stim/latef.jpg,AB,1,2,0,10,10,5,,,,,,,,,,,,,,,,,,4,0,1.11665696101,,,,,,2017_Jan_27_1313,P9,PLC_L_D2S1,NHGY,59.9960318261,
stim/negf.jpg,stim/posf.jpg,stim/5.jpg,stim/4.jpg,stim/latef.jpg,EF,1,2,0,11,11,49,,,,,,,,,,,,,,,,,,2,1,1.39999886618,,,,,,2017_Jan_27_1313,P9,PLC_L_D2S1,NHGY,59.9960318261,
stim/negf.jpg,stim/posf.jpg,stim/4.jpg,stim/5.jpg,stim/latef.jpg,EF,2,4,0,12,12,58,,,,,,,,,,,,,,,,,,2,0,1.48333958038,,,,,,2017_Jan_27_1313,P9,PLC_L_D2S1,NHGY,59.9960318261,
stim/posf.jpg,stim/negf.jpg,stim/2.jpg,stim/6.jpg,stim/latef.jpg,AB,2,4,0,13,13,16,,,,,,,,,,,,,,,,,,4,1,1.31669016365,,,,,,2017_Jan_27_1313,P9,PLC_L_D2S1,NHGY,59.9960318261,
stim/posf.jpg,stim/negf.jpg,stim/1.jpg,stim/3.jpg,stim/latef.jpg,CD,1,2,0,14,14,26,,,,,,,,,,,,,,,,,,2,1,1.26665221971,,,,,,2017_Jan_27_1313,P9,PLC_L_D2S1,NHGY,59.9960318261,
stim/posf.jpg,stim/negf.jpg,stim/4.jpg,stim/5.jpg,stim/latef.jpg,EF,2,4,0,15,15,50,,,,,,,,,,,,,,,,,,2,0,1.28335910497,,,,,,2017_Jan_27_1313,P9,PLC_L_D2S1,NHGY,59.9960318261,
stim/negf.jpg,stim/posf.jpg,stim/1.jpg,stim/3.jpg,stim/latef.jpg,CD,1,2,0,16,16,29,,,,,,,,,,,,,,,,,,4,0,1.38334061496,,,,,,2017_Jan_27_1313,P9,PLC_L_D2S1,NHGY,59.9960318261,
stim/posf.jpg,stim/negf.jpg,stim/3.jpg,stim/1.jpg,stim/latef.jpg,CD,2,4,0,17,17,32,,,,,,,,,,,,,,,,,,4,1,1.1333237986,,,,,,2017_Jan_27_1313,P9,PLC_L_D2S1,NHGY,59.9960318261,
stim/posf.jpg,stim/negf.jpg,stim/1.jpg,stim/3.jpg,stim/latef.jpg,CD,1,2,0,18,18,25,,,,,,,,,,,,,,,,,,2,1,1.14999346624,,,,,,2017_Jan_27_1313,P9,PLC_L_D2S1,NHGY,59.9960318261,
stim/negf.jpg,stim/posf.jpg,stim/2.jpg,stim/6.jpg,stim/latef.jpg,AB,2,4,0,19,19,18,,,,,,,,,,,,,,,,,,4,1,1.06666616843,,,,,,2017_Jan_27_1313,P9,PLC_L_D2S1,NHGY,59.9960318261,
stim/posf.jpg,stim/negf.jpg,stim/3.jpg,stim/1.jpg,stim/latef.jpg,CD,2,4,0,20,20,30,,,,,,,,,,,,,,,,,,4,1,1.20001476675,,,,,,2017_Jan_27_1313,P9,PLC_L_D2S1,NHGY,59.9960318261,
stim/posf.jpg,stim/negf.jpg,stim/1.jpg,stim/3.jpg,stim/latef.jpg,CD,1,2,0,21,21,21,,,,,,,,,,,,,,,,,,2,1,1.14995009831,,,,,,2017_Jan_27_1313,P9,PLC_L_D2S1,NHGY,59.9960318261,
stim/posf.jpg,stim/negf.jpg,stim/6.jpg,stim/2.jpg,stim/latef.jpg,AB,1,2,0,22,22,4,,,,,,,,,,,,,,,,,,2,1,1.18332158961,,,,,,2017_Jan_27_1313,P9,PLC_L_D2S1,NHGY,59.9960318261,
stim/posf.jpg,stim/negf.jpg,stim/5.jpg,stim/4.jpg,stim/latef.jpg,EF,1,2,0,23,23,42,,,,,,,,,,,,,,,,,,2,1,1.15003289136,,,,,,2017_Jan_27_1313,P9,PLC_L_D2S1,NHGY,59.9960318261,
stim/posf.jpg,stim/negf.jpg,stim/2.jpg,stim/6.jpg,stim/latef.jpg,AB,2,4,0,24,24,11,,,,,,,,,,,,,,,,,,4,1,1.05000819389,,,,,,2017_Jan_27_1313,P9,PLC_L_D2S1,NHGY,59.9960318261,
stim/posf.jpg,stim/negf.jpg,stim/3.jpg,stim/1.jpg,stim/latef.jpg,CD,2,4,0,25,25,33,,,,,,,,,,,,,,,,,,4,1,0.9000135006,,,,,,2017_Jan_27_1313,P9,PLC_L_D2S1,NHGY,59.9960318261,
stim/posf.jpg,stim/negf.jpg,stim/6.jpg,stim/2.jpg,stim/latef.jpg,AB,1,2,0,26,26,1,,,,,,,,,,,,,,,,,,2,1,0.916661096304,,,,,,2017_Jan_27_1313,P9,PLC_L_D2S1,NHGY,59.9960318261,
stim/posf.jpg,stim/negf.jpg,stim/2.jpg,stim/6.jpg,stim/latef.jpg,AB,2,4,0,27,27,10,,,,,,,,,,,,,,,,,,4,1,0.933324857238,,,,,,2017_Jan_27_1313,P9,PLC_L_D2S1,NHGY,59.9960318261,
stim/posf.jpg,stim/negf.jpg,stim/2.jpg,stim/6.jpg,stim/latef.jpg,AB,2,4,0,28,28,13,,,,,,,,,,,,,,,,,,4,1,1.0832787149,,,,,,2017_Jan_27_1313,P9,PLC_L_D2S1,NHGY,59.9960318261,
stim/posf.jpg,stim/negf.jpg,stim/3.jpg,stim/1.jpg,stim/latef.jpg,CD,2,4,0,29,29,34,,,,,,,,,,,,,,,,,,4,1,1.08337666868,,,,,,2017_Jan_27_1313,P9,PLC_L_D2S1,NHGY,59.9960318261,
stim/posf.jpg,stim/negf.jpg,stim/4.jpg,stim/5.jpg,stim/latef.jpg,EF,2,4,0,30,30,52,,,,,,,,,,,,,,,,,,4,1,1.01665859408,,,,,,2017_Jan_27_1313,P9,PLC_L_D2S1,NHGY,59.9960318261,
stim/posf.jpg,stim/negf.jpg,stim/1.jpg,stim/3.jpg,stim/latef.jpg,CD,1,2,0,31,31,20,,,,,,,,,,,,,,,,,,2,1,0.933361425247,,,,,,2017_Jan_27_1313,P9,PLC_L_D2S1,NHGY,59.9960318261,
stim/posf.jpg,stim/negf.jpg,stim/3.jpg,stim/1.jpg,stim/latef.jpg,CD,2,4,0,32,32,35,,,,,,,,,,,,,,,,,,4,1,0.933330466198,,,,,,2017_Jan_27_1313,P9,PLC_L_D2S1,NHGY,59.9960318261,
stim/posf.jpg,stim/negf.jpg,stim/2.jpg,stim/6.jpg,stim/latef.jpg,AB,2,4,0,33,33,14,,,,,,,,,,,,,,,,,,4,1,1.13332418356,,,,,,2017_Jan_27_1313,P9,PLC_L_D2S1,NHGY,59.9960318261,
stim/negf.jpg,stim/posf.jpg,stim/6.jpg,stim/2.jpg,stim/latef.jpg,AB,1,2,0,34,34,8,,,,,,,,,,,,,,,,,,2,1,0.866576954395,,,,,,2017_Jan_27_1313,P9,PLC_L_D2S1,NHGY,59.9960318261,
stim/posf.jpg,stim/negf.jpg,stim/2.jpg,stim/6.jpg,stim/latef.jpg,AB,2,4,0,35,35,17,,,,,,,,,,,,,,,,,,4,1,1.01661207129,,,,,,2017_Jan_27_1313,P9,PLC_L_D2S1,NHGY,59.9960318261,
stim/posf.jpg,stim/negf.jpg,stim/1.jpg,stim/3.jpg,stim/latef.jpg,CD,1,2,0,36,36,23,,,,,,,,,,,,,,,,,,2,1,0.950010223945,,,,,,2017_Jan_27_1313,P9,PLC_L_D2S1,NHGY,59.9960318261,
stim/negf.jpg,stim/posf.jpg,stim/5.jpg,stim/4.jpg,stim/latef.jpg,EF,1,2,0,37,37,47,,,,,,,,,,,,,,,,,,2,1,0.950061525622,,,,,,2017_Jan_27_1313,P9,PLC_L_D2S1,NHGY,59.9960318261,
stim/negf.jpg,stim/posf.jpg,stim/4.jpg,stim/5.jpg,stim/latef.jpg,EF,2,4,0,38,38,59,,,,,,,,,,,,,,,,,,4,1,0.749996569964,,,,,,2017_Jan_27_1313,P9,PLC_L_D2S1,NHGY,59.9960318261,
stim/posf.jpg,stim/negf.jpg,stim/3.jpg,stim/1.jpg,stim/latef.jpg,CD,2,4,0,39,39,36,,,,,,,,,,,,,,,,,,4,1,0.933300505633,,,,,,2017_Jan_27_1313,P9,PLC_L_D2S1,NHGY,59.9960318261,
stim/negf.jpg,stim/posf.jpg,stim/4.jpg,stim/5.jpg,stim/latef.jpg,EF,2,4,0,40,40,57,,,,,,,,,,,,,,,,,,4,1,0.783390503115,,,,,,2017_Jan_27_1313,P9,PLC_L_D2S1,NHGY,59.9960318261,
stim/posf.jpg,stim/negf.jpg,stim/5.jpg,stim/4.jpg,stim/latef.jpg,EF,1,2,0,41,41,41,,,,,,,,,,,,,,,,,,4,0,1.11661455247,,,,,,2017_Jan_27_1313,P9,PLC_L_D2S1,NHGY,59.9960318261,
stim/posf.jpg,stim/negf.jpg,stim/1.jpg,stim/3.jpg,stim/latef.jpg,CD,1,2,0,42,42,24,,,,,,,,,,,,,,,,,,2,1,0.933354465927,,,,,,2017_Jan_27_1313,P9,PLC_L_D2S1,NHGY,59.9960318261,
stim/posf.jpg,stim/negf.jpg,stim/6.jpg,stim/2.jpg,stim/latef.jpg,AB,1,2,0,43,43,3,,,,,,,,,,,,,,,,,,2,1,1.01663539133,,,,,,2017_Jan_27_1313,P9,PLC_L_D2S1,NHGY,59.9960318261,
stim/negf.jpg,stim/posf.jpg,stim/4.jpg,stim/5.jpg,stim/latef.jpg,EF,2,4,0,44,44,56,,,,,,,,,,,,,,,,,,4,1,0.916678413401,,,,,,2017_Jan_27_1313,P9,PLC_L_D2S1,NHGY,59.9960318261,
stim/posf.jpg,stim/negf.jpg,stim/2.jpg,stim/6.jpg,stim/latef.jpg,AB,2,4,0,45,45,12,,,,,,,,,,,,,,,,,,4,1,1.15000218494,,,,,,2017_Jan_27_1313,P9,PLC_L_D2S1,NHGY,59.9960318261,
stim/posf.jpg,stim/negf.jpg,stim/6.jpg,stim/2.jpg,stim/latef.jpg,AB,1,2,0,46,46,7,,,,,,,,,,,,,,,,,,2,1,1.01672081292,,,,,,2017_Jan_27_1313,P9,PLC_L_D2S1,NHGY,59.9960318261,
stim/posf.jpg,stim/negf.jpg,stim/4.jpg,stim/5.jpg,stim/latef.jpg,EF,2,4,0,47,47,51,,,,,,,,,,,,,,,,,,4,1,0.866669043582,,,,,,2017_Jan_27_1313,P9,PLC_L_D2S1,NHGY,59.9960318261,
stim/negf.jpg,stim/posf.jpg,stim/3.jpg,stim/1.jpg,stim/latef.jpg,CD,2,4,0,48,48,38,,,,,,,,,,,,,,,,,,4,1,0.96667538336,,,,,,2017_Jan_27_1313,P9,PLC_L_D2S1,NHGY,59.9960318261,
stim/negf.jpg,stim/posf.jpg,stim/1.jpg,stim/3.jpg,stim/latef.jpg,CD,1,2,0,49,49,28,,,,,,,,,,,,,,,,,,2,1,1.08332667827,,,,,,2017_Jan_27_1313,P9,PLC_L_D2S1,NHGY,59.9960318261,
stim/posf.jpg,stim/negf.jpg,stim/3.jpg,stim/1.jpg,stim/latef.jpg,CD,2,4,0,50,50,31,,,,,,,,,,,,,,,,,,4,1,0.983347267512,,,,,,2017_Jan_27_1313,P9,PLC_L_D2S1,NHGY,59.9960318261,
stim/posf.jpg,stim/negf.jpg,stim/4.jpg,stim/5.jpg,stim/latef.jpg,EF,2,4,0,51,51,53,,,,,,,,,,,,,,,,,,4,1,0.999994565475,,,,,,2017_Jan_27_1313,P9,PLC_L_D2S1,NHGY,59.9960318261,
stim/negf.jpg,stim/posf.jpg,stim/3.jpg,stim/1.jpg,stim/latef.jpg,CD,2,4,0,52,52,37,,,,,,,,,,,,,,,,,,4,1,0.983330533866,,,,,,2017_Jan_27_1313,P9,PLC_L_D2S1,NHGY,59.9960318261,
stim/negf.jpg,stim/posf.jpg,stim/2.jpg,stim/6.jpg,stim/latef.jpg,AB,2,4,0,53,53,19,,,,,,,,,,,,,,,,,,4,1,0.900013350225,,,,,,2017_Jan_27_1313,P9,PLC_L_D2S1,NHGY,59.9960318261,
stim/posf.jpg,stim/negf.jpg,stim/6.jpg,stim/2.jpg,stim/latef.jpg,AB,1,2,0,54,54,0,,,,,,,,,,,,,,,,,,2,1,1.18327381872,,,,,,2017_Jan_27_1313,P9,PLC_L_D2S1,NHGY,59.9960318261,
stim/negf.jpg,stim/posf.jpg,stim/3.jpg,stim/1.jpg,stim/latef.jpg,CD,2,4,0,55,55,39,,,,,,,,,,,,,,,,,,4,1,0.833328800051,,,,,,2017_Jan_27_1313,P9,PLC_L_D2S1,NHGY,59.9960318261,
stim/posf.jpg,stim/negf.jpg,stim/4.jpg,stim/5.jpg,stim/latef.jpg,EF,2,4,0,56,56,54,,,,,,,,,,,,,,,,,,4,1,0.96666201509,,,,,,2017_Jan_27_1313,P9,PLC_L_D2S1,NHGY,59.9960318261,
stim/posf.jpg,stim/negf.jpg,stim/5.jpg,stim/4.jpg,stim/latef.jpg,EF,1,2,0,57,57,44,,,,,,,,,,,,,,,,,,2,1,1.16666969019,,,,,,2017_Jan_27_1313,P9,PLC_L_D2S1,NHGY,59.9960318261,
stim/negf.jpg,stim/posf.jpg,stim/5.jpg,stim/4.jpg,stim/latef.jpg,EF,1,2,0,58,58,46,,,,,,,,,,,,,,,,,,2,1,0.883335796965,,,,,,2017_Jan_27_1313,P9,PLC_L_D2S1,NHGY,59.9960318261,
stim/posf.jpg,stim/negf.jpg,stim/6.jpg,stim/2.jpg,stim/latef.jpg,AB,1,2,0,59,59,6,,,,,,,,,,,,,,,,,,2,1,0.966669272151,,,,,,2017_Jan_27_1313,P9,PLC_L_D2S1,NHGY,59.9960318261,
,,,,,,,,,,,,,,,,,,,,,,,,,,,,,,,,0.99875,0.808888888889,1,0,0,2017_Jan_27_1313,P9,PLC_L_D2S1,NHGY,59.9960318261,
stim/posf.jpg,stim/negf.jpg,stim/3.jpg,stim/1.jpg,stim/latef.jpg,CD,2,4,,,,,0,0,0,34,,,,,,,,,,,,,,4,1,0.933327103829,,,,,,2017_Jan_27_1313,P9,PLC_L_D2S1,NHGY,59.9960318261,
stim/negf.jpg,stim/posf.jpg,stim/1.jpg,stim/3.jpg,stim/latef.jpg,CD,1,2,,,,,0,1,1,28,,,,,,,,,,,,,,2,1,1.06665183776,,,,,,2017_Jan_27_1313,P9,PLC_L_D2S1,NHGY,59.9960318261,
stim/posf.jpg,stim/negf.jpg,stim/5.jpg,stim/4.jpg,stim/latef.jpg,EF,1,2,,,,,0,2,2,40,,,,,,,,,,,,,,2,1,0.950002058623,,,,,,2017_Jan_27_1313,P9,PLC_L_D2S1,NHGY,59.9960318261,
stim/negf.jpg,stim/posf.jpg,stim/2.jpg,stim/6.jpg,stim/latef.jpg,AB,2,4,,,,,0,3,3,19,,,,,,,,,,,,,,4,1,0.849968269531,,,,,,2017_Jan_27_1313,P9,PLC_L_D2S1,NHGY,59.9960318261,
stim/posf.jpg,stim/negf.jpg,stim/2.jpg,stim/6.jpg,stim/latef.jpg,AB,2,4,,,,,0,4,4,17,,,,,,,,,,,,,,4,1,0.883327418112,,,,,,2017_Jan_27_1313,P9,PLC_L_D2S1,NHGY,59.9960318261,
stim/posf.jpg,stim/negf.jpg,stim/6.jpg,stim/2.jpg,stim/latef.jpg,AB,1,2,,,,,0,5,5,1,,,,,,,,,,,,,,2,1,0.81662941245,,,,,,2017_Jan_27_1313,P9,PLC_L_D2S1,NHGY,59.9960318261,
stim/posf.jpg,stim/negf.jpg,stim/6.jpg,stim/2.jpg,stim/latef.jpg,AB,1,2,,,,,0,6,6,2,,,,,,,,,,,,,,2,1,0.733326385041,,,,,,2017_Jan_27_1313,P9,PLC_L_D2S1,NHGY,59.9960318261,
stim/posf.jpg,stim/negf.jpg,stim/1.jpg,stim/3.jpg,stim/latef.jpg,CD,1,2,,,,,0,7,7,22,,,,,,,,,,,,,,2,1,1.0166206727,,,,,,2017_Jan_27_1313,P9,PLC_L_D2S1,NHGY,59.9960318261,
stim/negf.jpg,stim/posf.jpg,stim/6.jpg,stim/2.jpg,stim/latef.jpg,AB,1,2,,,,,0,8,8,9,,,,,,,,,,,,,,2,1,0.766663768454,,,,,,2017_Jan_27_1313,P9,PLC_L_D2S1,NHGY,59.9960318261,
stim/negf.jpg,stim/posf.jpg,stim/5.jpg,stim/4.jpg,stim/latef.jpg,EF,1,2,,,,,0,9,9,46,,,,,,,,,,,,,,2,1,0.850066629323,,,,,,2017_Jan_27_1313,P9,PLC_L_D2S1,NHGY,59.9960318261,
stim/posf.jpg,stim/negf.jpg,stim/3.jpg,stim/1.jpg,stim/latef.jpg,CD,2,4,,,,,0,10,10,35,,,,,,,,,,,,,,4,1,1.10001576223,,,,,,2017_Jan_27_1313,P9,PLC_L_D2S1,NHGY,59.9960318261,
stim/posf.jpg,stim/negf.jpg,stim/6.jpg,stim/2.jpg,stim/latef.jpg,AB,1,2,,,,,0,11,11,3,,,,,,,,,,,,,,2,1,0.750001276677,,,,,,2017_Jan_27_1313,P9,PLC_L_D2S1,NHGY,59.9960318261,
stim/negf.jpg,stim/posf.jpg,stim/3.jpg,stim/1.jpg,stim/latef.jpg,CD,2,4,,,,,0,12,12,39,,,,,,,,,,,,,,4,1,1.03332624068,,,,,,2017_Jan_27_1313,P9,PLC_L_D2S1,NHGY,59.9960318261,
stim/posf.jpg,stim/negf.jpg,stim/1.jpg,stim/3.jpg,stim/latef.jpg,CD,1,2,,,,,0,13,13,26,,,,,,,,,,,,,,2,1,0.883324894832,,,,,,2017_Jan_27_1313,P9,PLC_L_D2S1,NHGY,59.9960318261,
stim/posf.jpg,stim/negf.jpg,stim/4.jpg,stim/5.jpg,stim/latef.jpg,EF,2,4,,,,,0,14,14,55,,,,,,,,,,,,,,4,1,0.749939914963,,,,,,2017_Jan_27_1313,P9,PLC_L_D2S1,NHGY,59.9960318261,
stim/posf.jpg,stim/negf.jpg,stim/1.jpg,stim/3.jpg,stim/latef.jpg,CD,1,2,,,,,0,15,15,25,,,,,,,,,,,,,,2,1,0.850006160833,,,,,,2017_Jan_27_1313,P9,PLC_L_D2S1,NHGY,59.9960318261,
stim/negf.jpg,stim/posf.jpg,stim/4.jpg,stim/5.jpg,stim/latef.jpg,EF,2,4,,,,,0,16,16,56,,,,,,,,,,,,,,4,1,0.816671757837,,,,,,2017_Jan_27_1313,P9,PLC_L_D2S1,NHGY,59.9960318261,
stim/posf.jpg,stim/negf.jpg,stim/2.jpg,stim/6.jpg,stim/latef.jpg,AB,2,4,,,,,0,17,17,15,,,,,,,,,,,,,,4,1,0.916661775995,,,,,,2017_Jan_27_1313,P9,PLC_L_D2S1,NHGY,59.9960318261,
stim/posf.jpg,stim/negf.jpg,stim/2.jpg,stim/6.jpg,stim/latef.jpg,AB,2,4,,,,,0,18,18,13,,,,,,,,,,,,,,4,1,0.766647386684,,,,,,2017_Jan_27_1313,P9,PLC_L_D2S1,NHGY,59.9960318261,
stim/negf.jpg,stim/posf.jpg,stim/6.jpg,stim/2.jpg,stim/latef.jpg,AB,1,2,,,,,0,19,19,8,,,,,,,,,,,,,,2,1,0.733320081352,,,,,,2017_Jan_27_1313,P9,PLC_L_D2S1,NHGY,59.9960318261,
stim/negf.jpg,stim/posf.jpg,stim/3.jpg,stim/1.jpg,stim/latef.jpg,CD,2,4,,,,,0,20,20,38,,,,,,,,,,,,,,4,1,0.783292170389,,,,,,2017_Jan_27_1313,P9,PLC_L_D2S1,NHGY,59.9960318261,
stim/posf.jpg,stim/negf.jpg,stim/4.jpg,stim/5.jpg,stim/latef.jpg,EF,2,4,,,,,0,21,21,53,,,,,,,,,,,,,,4,1,0.750044304764,,,,,,2017_Jan_27_1313,P9,PLC_L_D2S1,NHGY,59.9960318261,
stim/negf.jpg,stim/posf.jpg,stim/3.jpg,stim/1.jpg,stim/latef.jpg,CD,2,4,,,,,0,22,22,37,,,,,,,,,,,,,,4,1,1.0833347654,,,,,,2017_Jan_27_1313,P9,PLC_L_D2S1,NHGY,59.9960318261,
stim/negf.jpg,stim/posf.jpg,stim/4.jpg,stim/5.jpg,stim/latef.jpg,EF,2,4,,,,,0,23,23,59,,,,,,,,,,,,,,4,1,0.916673950294,,,,,,2017_Jan_27_1313,P9,PLC_L_D2S1,NHGY,59.9960318261,
stim/posf.jpg,stim/negf.jpg,stim/1.jpg,stim/3.jpg,stim/latef.jpg,CD,1,2,,,,,0,24,24,21,,,,,,,,,,,,,,2,1,1.00004863103,,,,,,2017_Jan_27_1313,P9,PLC_L_D2S1,NHGY,59.9960318261,
stim/posf.jpg,stim/negf.jpg,stim/5.jpg,stim/4.jpg,stim/latef.jpg,EF,1,2,,,,,0,25,25,41,,,,,,,,,,,,,,2,1,0.983326001586,,,,,,2017_Jan_27_1313,P9,PLC_L_D2S1,NHGY,59.9960318261,
stim/posf.jpg,stim/negf.jpg,stim/2.jpg,stim/6.jpg,stim/latef.jpg,AB,2,4,,,,,0,26,26,10,,,,,,,,,,,,,,4,1,0.950010290109,,,,,,2017_Jan_27_1313,P9,PLC_L_D2S1,NHGY,59.9960318261,
stim/posf.jpg,stim/negf.jpg,stim/2.jpg,stim/6.jpg,stim/latef.jpg,AB,2,4,,,,,0,27,27,11,,,,,,,,,,,,,,4,1,0.733280328418,,,,,,2017_Jan_27_1313,P9,PLC_L_D2S1,NHGY,59.9960318261,
stim/posf.jpg,stim/negf.jpg,stim/4.jpg,stim/5.jpg,stim/latef.jpg,EF,2,4,,,,,0,28,28,50,,,,,,,,,,,,,,4,1,0.749962197418,,,,,,2017_Jan_27_1313,P9,PLC_L_D2S1,NHGY,59.9960318261,
stim/negf.jpg,stim/posf.jpg,stim/1.jpg,stim/3.jpg,stim/latef.jpg,CD,1,2,,,,,0,29,29,29,,,,,,,,,,,,,,2,1,0.999992893313,,,,,,2017_Jan_27_1313,P9,PLC_L_D2S1,NHGY,59.9960318261,
stim/posf.jpg,stim/negf.jpg,stim/1.jpg,stim/3.jpg,stim/latef.jpg,CD,1,2,,,,,0,30,30,24,,,,,,,,,,,,,,2,1,0.983330130863,,,,,,2017_Jan_27_1313,P9,PLC_L_D2S1,NHGY,59.9960318261,
stim/posf.jpg,stim/negf.jpg,stim/2.jpg,stim/6.jpg,stim/latef.jpg,AB,2,4,,,,,0,31,31,12,,,,,,,,,,,,,,4,1,1.09991999489,,,,,,2017_Jan_27_1313,P9,PLC_L_D2S1,NHGY,59.9960318261,
stim/posf.jpg,stim/negf.jpg,stim/5.jpg,stim/4.jpg,stim/latef.jpg,EF,1,2,,,,,0,32,32,43,,,,,,,,,,,,,,2,1,0.749986585114,,,,,,2017_Jan_27_1313,P9,PLC_L_D2S1,NHGY,59.9960318261,
stim/posf.jpg,stim/negf.jpg,stim/3.jpg,stim/1.jpg,stim/latef.jpg,CD,2,4,,,,,0,33,33,31,,,,,,,,,,,,,,4,1,0.983274002173,,,,,,2017_Jan_27_1313,P9,PLC_L_D2S1,NHGY,59.9960318261,
stim/posf.jpg,stim/negf.jpg,stim/3.jpg,stim/1.jpg,stim/latef.jpg,CD,2,4,,,,,0,34,34,36,,,,,,,,,,,,,,4,1,1.01666913531,,,,,,2017_Jan_27_1313,P9,PLC_L_D2S1,NHGY,59.9960318261,
stim/posf.jpg,stim/negf.jpg,stim/6.jpg,stim/2.jpg,stim/latef.jpg,AB,1,2,,,,,0,35,35,5,,,,,,,,,,,,,,2,1,0.883339342789,,,,,,2017_Jan_27_1313,P9,PLC_L_D2S1,NHGY,59.9960318261,
stim/posf.jpg,stim/negf.jpg,stim/6.jpg,stim/2.jpg,stim/latef.jpg,AB,1,2,,,,,0,36,36,7,,,,,,,,,,,,,,2,1,0.849994518859,,,,,,2017_Jan_27_1313,P9,PLC_L_D2S1,NHGY,59.9960318261,
stim/negf.jpg,stim/posf.jpg,stim/4.jpg,stim/5.jpg,stim/latef.jpg,EF,2,4,,,,,0,37,37,58,,,,,,,,,,,,,,4,1,0.933334195479,,,,,,2017_Jan_27_1313,P9,PLC_L_D2S1,NHGY,59.9960318261,
stim/posf.jpg,stim/negf.jpg,stim/4.jpg,stim/5.jpg,stim/latef.jpg,EF,2,4,,,,,0,38,38,54,,,,,,,,,,,,,,4,1,0.716620591497,,,,,,2017_Jan_27_1313,P9,PLC_L_D2S1,NHGY,59.9960318261,
stim/posf.jpg,stim/negf.jpg,stim/3.jpg,stim/1.jpg,stim/latef.jpg,CD,2,4,,,,,0,39,39,32,,,,,,,,,,,,,,4,1,0.916660759465,,,,,,2017_Jan_27_1313,P9,PLC_L_D2S1,NHGY,59.9960318261,
stim/posf.jpg,stim/negf.jpg,stim/3.jpg,stim/1.jpg,stim/latef.jpg,CD,2,4,,,,,0,40,40,30,,,,,,,,,,,,,,4,1,0.866724811374,,,,,,2017_Jan_27_1313,P9,PLC_L_D2S1,NHGY,59.9960318261,
stim/negf.jpg,stim/posf.jpg,stim/5.jpg,stim/4.jpg,stim/latef.jpg,EF,1,2,,,,,0,41,41,47,,,,,,,,,,,,,,2,1,0.733335124792,,,,,,2017_Jan_27_1313,P9,PLC_L_D2S1,NHGY,59.9960318261,
stim/posf.jpg,stim/negf.jpg,stim/3.jpg,stim/1.jpg,stim/latef.jpg,CD,2,4,,,,,0,42,42,33,,,,,,,,,,,,,,4,1,0.816674434499,,,,,,2017_Jan_27_1313,P9,PLC_L_D2S1,NHGY,59.9960318261,
stim/posf.jpg,stim/negf.jpg,stim/2.jpg,stim/6.jpg,stim/latef.jpg,AB,2,4,,,,,0,43,43,14,,,,,,,,,,,,,,4,1,0.86666147675,,,,,,2017_Jan_27_1313,P9,PLC_L_D2S1,NHGY,59.9960318261,
stim/posf.jpg,stim/negf.jpg,stim/4.jpg,stim/5.jpg,stim/latef.jpg,EF,2,4,,,,,0,44,44,52,,,,,,,,,,,,,,4,1,0.833318186637,,,,,,2017_Jan_27_1313,P9,PLC_L_D2S1,NHGY,59.9960318261,
stim/posf.jpg,stim/negf.jpg,stim/5.jpg,stim/4.jpg,stim/latef.jpg,EF,1,2,,,,,0,45,45,42,,,,,,,,,,,,,,2,1,0.94999328579,,,,,,2017_Jan_27_1313,P9,PLC_L_D2S1,NHGY,59.9960318261,
stim/posf.jpg,stim/negf.jpg,stim/6.jpg,stim/2.jpg,stim/latef.jpg,AB,1,2,,,,,0,46,46,6,,,,,,,,,,,,,,2,1,0.883362966583,,,,,,2017_Jan_27_1313,P9,PLC_L_D2S1,NHGY,59.9960318261,
stim/posf.jpg,stim/negf.jpg,stim/6.jpg,stim/2.jpg,stim/latef.jpg,AB,1,2,,,,,0,47,47,0,,,,,,,,,,,,,,2,1,1.03332180765,,,,,,2017_Jan_27_1313,P9,PLC_L_D2S1,NHGY,59.9960318261,
stim/negf.jpg,stim/posf.jpg,stim/2.jpg,stim/6.jpg,stim/latef.jpg,AB,2,4,,,,,0,48,48,18,,,,,,,,,,,,,,4,1,0.833321882836,,,,,,2017_Jan_27_1313,P9,PLC_L_D2S1,NHGY,59.9960318261,
stim/negf.jpg,stim/posf.jpg,stim/5.jpg,stim/4.jpg,stim/latef.jpg,EF,1,2,,,,,0,49,49,48,,,,,,,,,,,,,,2,1,0.766655443736,,,,,,2017_Jan_27_1313,P9,PLC_L_D2S1,NHGY,59.9960318261,
stim/posf.jpg,stim/negf.jpg,stim/5.jpg,stim/4.jpg,stim/latef.jpg,EF,1,2,,,,,0,50,50,44,,,,,,,,,,,,,,2,1,0.849947132927,,,,,,2017_Jan_27_1313,P9,PLC_L_D2S1,NHGY,59.9960318261,
stim/posf.jpg,stim/negf.jpg,stim/1.jpg,stim/3.jpg,stim/latef.jpg,CD,1,2,,,,,0,51,51,20,,,,,,,,,,,,,,2,1,0.916669072153,,,,,,2017_Jan_27_1313,P9,PLC_L_D2S1,NHGY,59.9960318261,
stim/posf.jpg,stim/negf.jpg,stim/4.jpg,stim/5.jpg,stim/latef.jpg,EF,2,4,,,,,0,52,52,51,,,,,,,,,,,,,,4,1,0.733279005124,,,,,,2017_Jan_27_1313,P9,PLC_L_D2S1,NHGY,59.9960318261,
stim/negf.jpg,stim/posf.jpg,stim/1.jpg,stim/3.jpg,stim/latef.jpg,CD,1,2,,,,,0,53,53,27,,,,,,,,,,,,,,2,1,1.08336642218,,,,,,2017_Jan_27_1313,P9,PLC_L_D2S1,NHGY,59.9960318261,
stim/posf.jpg,stim/negf.jpg,stim/2.jpg,stim/6.jpg,stim/latef.jpg,AB,2,4,,,,,0,54,54,16,,,,,,,,,,,,,,4,1,0.966683816348,,,,,,2017_Jan_27_1313,P9,PLC_L_D2S1,NHGY,59.9960318261,
stim/posf.jpg,stim/negf.jpg,stim/1.jpg,stim/3.jpg,stim/latef.jpg,CD,1,2,,,,,0,55,55,23,,,,,,,,,,,,,,2,1,1.21666469326,,,,,,2017_Jan_27_1313,P9,PLC_L_D2S1,NHGY,59.9960318261,
stim/posf.jpg,stim/negf.jpg,stim/5.jpg,stim/4.jpg,stim/latef.jpg,EF,1,2,,,,,0,56,56,45,,,,,,,,,,,,,,2,1,0.983335760875,,,,,,2017_Jan_27_1313,P9,PLC_L_D2S1,NHGY,59.9960318261,
stim/negf.jpg,stim/posf.jpg,stim/4.jpg,stim/5.jpg,stim/latef.jpg,EF,2,4,,,,,0,57,57,57,,,,,,,,,,,,,,4,1,0.73333541351,,,,,,2017_Jan_27_1313,P9,PLC_L_D2S1,NHGY,59.9960318261,
stim/posf.jpg,stim/negf.jpg,stim/6.jpg,stim/2.jpg,stim/latef.jpg,AB,1,2,,,,,0,58,58,4,,,,,,,,,,,,,,2,1,0.716609529968,,,,,,2017_Jan_27_1313,P9,PLC_L_D2S1,NHGY,59.9960318261,
stim/negf.jpg,stim/posf.jpg,stim/5.jpg,stim/4.jpg,stim/latef.jpg,EF,1,2,,,,,0,59,59,49,,,,,,,,,,,,,,2,1,0.716621096754,,,,,,2017_Jan_27_1313,P9,PLC_L_D2S1,NHGY,59.9960318261,
,,,,,,,,,,,,,,,,,,,,,,,,,,,,,,,,0.99875,0.808888888889,1,0,0,2017_Jan_27_1313,P9,PLC_L_D2S1,NHGY,59.9960318261,
stim/posf.jpg,stim/negf.jpg,stim/1.jpg,stim/3.jpg,stim/latef.jpg,CD,1,2,,,,,,,,,0,0,0,26,,,,,,,,,,2,1,1.05000210975,,,,,,2017_Jan_27_1313,P9,PLC_L_D2S1,NHGY,59.9960318261,
stim/posf.jpg,stim/negf.jpg,stim/6.jpg,stim/2.jpg,stim/latef.jpg,AB,1,2,,,,,,,,,0,1,1,1,,,,,,,,,,2,1,0.849948630655,,,,,,2017_Jan_27_1313,P9,PLC_L_D2S1,NHGY,59.9960318261,
stim/negf.jpg,stim/posf.jpg,stim/3.jpg,stim/1.jpg,stim/latef.jpg,CD,2,4,,,,,,,,,0,2,2,38,,,,,,,,,,4,1,0.916668272162,,,,,,2017_Jan_27_1313,P9,PLC_L_D2S1,NHGY,59.9960318261,
stim/posf.jpg,stim/negf.jpg,stim/1.jpg,stim/3.jpg,stim/latef.jpg,CD,1,2,,,,,,,,,0,3,3,20,,,,,,,,,,2,1,0.93333113386,,,,,,2017_Jan_27_1313,P9,PLC_L_D2S1,NHGY,59.9960318261,
stim/posf.jpg,stim/negf.jpg,stim/3.jpg,stim/1.jpg,stim/latef.jpg,CD,2,4,,,,,,,,,0,4,4,34,,,,,,,,,,4,1,0.833347368263,,,,,,2017_Jan_27_1313,P9,PLC_L_D2S1,NHGY,59.9960318261,
stim/posf.jpg,stim/negf.jpg,stim/2.jpg,stim/6.jpg,stim/latef.jpg,AB,2,4,,,,,,,,,0,5,5,10,,,,,,,,,,4,1,0.783340184885,,,,,,2017_Jan_27_1313,P9,PLC_L_D2S1,NHGY,59.9960318261,
stim/posf.jpg,stim/negf.jpg,stim/6.jpg,stim/2.jpg,stim/latef.jpg,AB,1,2,,,,,,,,,0,6,6,7,,,,,,,,,,2,1,0.750002172908,,,,,,2017_Jan_27_1313,P9,PLC_L_D2S1,NHGY,59.9960318261,
stim/negf.jpg,stim/posf.jpg,stim/6.jpg,stim/2.jpg,stim/latef.jpg,AB,1,2,,,,,,,,,0,7,7,9,,,,,,,,,,2,1,0.883333553381,,,,,,2017_Jan_27_1313,P9,PLC_L_D2S1,NHGY,59.9960318261,
stim/negf.jpg,stim/posf.jpg,stim/6.jpg,stim/2.jpg,stim/latef.jpg,AB,1,2,,,,,,,,,0,8,8,8,,,,,,,,,,2,1,0.6500182419,,,,,,2017_Jan_27_1313,P9,PLC_L_D2S1,NHGY,59.9960318261,
stim/posf.jpg,stim/negf.jpg,stim/1.jpg,stim/3.jpg,stim/latef.jpg,CD,1,2,,,,,,,,,0,9,9,24,,,,,,,,,,2,1,1.23331834303,,,,,,2017_Jan_27_1313,P9,PLC_L_D2S1,NHGY,59.9960318261,
stim/posf.jpg,stim/negf.jpg,stim/3.jpg,stim/1.jpg,stim/latef.jpg,CD,2,4,,,,,,,,,0,10,10,36,,,,,,,,,,4,1,0.950021905016,,,,,,2017_Jan_27_1313,P9,PLC_L_D2S1,NHGY,59.9960318261,
stim/negf.jpg,stim/posf.jpg,stim/3.jpg,stim/1.jpg,stim/latef.jpg,CD,2,4,,,,,,,,,0,11,11,37,,,,,,,,,,4,1,0.950001742838,,,,,,2017_Jan_27_1313,P9,PLC_L_D2S1,NHGY,59.9960318261,
stim/posf.jpg,stim/negf.jpg,stim/5.jpg,stim/4.jpg,stim/latef.jpg,EF,1,2,,,,,,,,,0,12,12,44,,,,,,,,,,2,1,0.783324533934,,,,,,2017_Jan_27_1313,P9,PLC_L_D2S1,NHGY,59.9960318261,
stim/negf.jpg,stim/posf.jpg,stim/5.jpg,stim/4.jpg,stim/latef.jpg,EF,1,2,,,,,,,,,0,13,13,49,,,,,,,,,,2,1,0.750036428161,,,,,,2017_Jan_27_1313,P9,PLC_L_D2S1,NHGY,59.9960318261,
stim/posf.jpg,stim/negf.jpg,stim/2.jpg,stim/6.jpg,stim/latef.jpg,AB,2,4,,,,,,,,,0,14,14,13,,,,,,,,,,4,1,0.833270427777,,,,,,2017_Jan_27_1313,P9,PLC_L_D2S1,NHGY,59.9960318261,
stim/posf.jpg,stim/negf.jpg,stim/5.jpg,stim/4.jpg,stim/latef.jpg,EF,1,2,,,,,,,,,0,15,15,40,,,,,,,,,,2,1,0.683332389484,,,,,,2017_Jan_27_1313,P9,PLC_L_D2S1,NHGY,59.9960318261,
stim/posf.jpg,stim/negf.jpg,stim/1.jpg,stim/3.jpg,stim/latef.jpg,CD,1,2,,,,,,,,,0,16,16,25,,,,,,,,,,2,1,0.966677933708,,,,,,2017_Jan_27_1313,P9,PLC_L_D2S1,NHGY,59.9960318261,
stim/negf.jpg,stim/posf.jpg,stim/4.jpg,stim/5.jpg,stim/latef.jpg,EF,2,4,,,,,,,,,0,17,17,56,,,,,,,,,,4,1,0.833363166581,,,,,,2017_Jan_27_1313,P9,PLC_L_D2S1,NHGY,59.9960318261,
stim/posf.jpg,stim/negf.jpg,stim/3.jpg,stim/1.jpg,stim/latef.jpg,CD,2,4,,,,,,,,,0,18,18,32,,,,,,,,,,4,1,1.26665994594,,,,,,2017_Jan_27_1313,P9,PLC_L_D2S1,NHGY,59.9960318261,
stim/posf.jpg,stim/negf.jpg,stim/6.jpg,stim/2.jpg,stim/latef.jpg,AB,1,2,,,,,,,,,0,19,19,6,,,,,,,,,,2,1,0.783337947316,,,,,,2017_Jan_27_1313,P9,PLC_L_D2S1,NHGY,59.9960318261,
stim/posf.jpg,stim/negf.jpg,stim/6.jpg,stim/2.jpg,stim/latef.jpg,AB,1,2,,,,,,,,,0,20,20,0,,,,,,,,,,2,1,0.733327224129,,,,,,2017_Jan_27_1313,P9,PLC_L_D2S1,NHGY,59.9960318261,
stim/posf.jpg,stim/negf.jpg,stim/2.jpg,stim/6.jpg,stim/latef.jpg,AB,2,4,,,,,,,,,0,21,21,11,,,,,,,,,,4,1,0.783334443597,,,,,,2017_Jan_27_1313,P9,PLC_L_D2S1,NHGY,59.9960318261,
stim/posf.jpg,stim/negf.jpg,stim/4.jpg,stim/5.jpg,stim/latef.jpg,EF,2,4,,,,,,,,,0,22,22,50,,,,,,,,,,4,1,0.750006521731,,,,,,2017_Jan_27_1313,P9,PLC_L_D2S1,NHGY,59.9960318261,
stim/posf.jpg,stim/negf.jpg,stim/2.jpg,stim/6.jpg,stim/latef.jpg,AB,2,4,,,,,,,,,0,23,23,17,,,,,,,,,,4,1,0.91664941824,,,,,,2017_Jan_27_1313,P9,PLC_L_D2S1,NHGY,59.9960318261,
stim/posf.jpg,stim/negf.jpg,stim/3.jpg,stim/1.jpg,stim/latef.jpg,CD,2,4,,,,,,,,,0,24,24,35,,,,,,,,,,4,1,0.900003795446,,,,,,2017_Jan_27_1313,P9,PLC_L_D2S1,NHGY,59.9960318261,
stim/posf.jpg,stim/negf.jpg,stim/1.jpg,stim/3.jpg,stim/latef.jpg,CD,1,2,,,,,,,,,0,25,25,23,,,,,,,,,,2,1,0.949989261775,,,,,,2017_Jan_27_1313,P9,PLC_L_D2S1,NHGY,59.9960318261,
stim/posf.jpg,stim/negf.jpg,stim/2.jpg,stim/6.jpg,stim/latef.jpg,AB,2,4,,,,,,,,,0,26,26,14,,,,,,,,,,4,1,0.866661720357,,,,,,2017_Jan_27_1313,P9,PLC_L_D2S1,NHGY,59.9960318261,
stim/posf.jpg,stim/negf.jpg,stim/6.jpg,stim/2.jpg,stim/latef.jpg,AB,1,2,,,,,,,,,0,27,27,5,,,,,,,,,,2,1,1.01661414646,,,,,,2017_Jan_27_1313,P9,PLC_L_D2S1,NHGY,59.9960318261,
stim/negf.jpg,stim/posf.jpg,stim/5.jpg,stim/4.jpg,stim/latef.jpg,EF,1,2,,,,,,,,,0,28,28,48,,,,,,,,,,2,1,1.06666599399,,,,,,2017_Jan_27_1313,P9,PLC_L_D2S1,NHGY,59.9960318261,
stim/posf.jpg,stim/negf.jpg,stim/4.jpg,stim/5.jpg,stim/latef.jpg,EF,2,4,,,,,,,,,0,29,29,53,,,,,,,,,,4,1,0.616686819321,,,,,,2017_Jan_27_1313,P9,PLC_L_D2S1,NHGY,59.9960318261,
stim/posf.jpg,stim/negf.jpg,stim/1.jpg,stim/3.jpg,stim/latef.jpg,CD,1,2,,,,,,,,,0,30,30,21,,,,,,,,,,2,1,1.18333977286,,,,,,2017_Jan_27_1313,P9,PLC_L_D2S1,NHGY,59.9960318261,
stim/posf.jpg,stim/negf.jpg,stim/6.jpg,stim/2.jpg,stim/latef.jpg,AB,1,2,,,,,,,,,0,31,31,4,,,,,,,,,,2,1,0.916636137187,,,,,,2017_Jan_27_1313,P9,PLC_L_D2S1,NHGY,59.9960318261,
stim/posf.jpg,stim/negf.jpg,stim/5.jpg,stim/4.jpg,stim/latef.jpg,EF,1,2,,,,,,,,,0,32,32,42,,,,,,,,,,2,1,0.749919849024,,,,,,2017_Jan_27_1313,P9,PLC_L_D2S1,NHGY,59.9960318261,
stim/posf.jpg,stim/negf.jpg,stim/6.jpg,stim/2.jpg,stim/latef.jpg,AB,1,2,,,,,,,,,0,33,33,2,,,,,,,,,,2,1,0.700009371323,,,,,,2017_Jan_27_1313,P9,PLC_L_D2S1,NHGY,59.9960318261,
stim/negf.jpg,stim/posf.jpg,stim/1.jpg,stim/3.jpg,stim/latef.jpg,CD,1,2,,,,,,,,,0,34,34,28,,,,,,,,,,2,1,0.733302003361,,,,,,2017_Jan_27_1313,P9,PLC_L_D2S1,NHGY,59.9960318261,
stim/negf.jpg,stim/posf.jpg,stim/1.jpg,stim/3.jpg,stim/latef.jpg,CD,1,2,,,,,,,,,0,35,35,27,,,,,,,,,,2,1,0.749999721807,,,,,,2017_Jan_27_1313,P9,PLC_L_D2S1,NHGY,59.9960318261,
stim/negf.jpg,stim/posf.jpg,stim/4.jpg,stim/5.jpg,stim/latef.jpg,EF,2,4,,,,,,,,,0,36,36,59,,,,,,,,,,4,1,0.716655427194,,,,,,2017_Jan_27_1313,P9,PLC_L_D2S1,NHGY,59.9960318261,
stim/negf.jpg,stim/posf.jpg,stim/2.jpg,stim/6.jpg,stim/latef.jpg,AB,2,4,,,,,,,,,0,37,37,18,,,,,,,,,,4,1,0.699994189539,,,,,,2017_Jan_27_1313,P9,PLC_L_D2S1,NHGY,59.9960318261,
stim/negf.jpg,stim/posf.jpg,stim/2.jpg,stim/6.jpg,stim/latef.jpg,AB,2,4,,,,,,,,,0,38,38,19,,,,,,,,,,4,1,0.799979666395,,,,,,2017_Jan_27_1313,P9,PLC_L_D2S1,NHGY,59.9960318261,
stim/posf.jpg,stim/negf.jpg,stim/2.jpg,stim/6.jpg,stim/latef.jpg,AB,2,4,,,,,,,,,0,39,39,15,,,,,,,,,,4,1,0.933345873543,,,,,,2017_Jan_27_1313,P9,PLC_L_D2S1,NHGY,59.9960318261,
stim/posf.jpg,stim/negf.jpg,stim/3.jpg,stim/1.jpg,stim/latef.jpg,CD,2,4,,,,,,,,,0,40,40,33,,,,,,,,,,4,1,0.999992631662,,,,,,2017_Jan_27_1313,P9,PLC_L_D2S1,NHGY,59.9960318261,
stim/posf.jpg,stim/negf.jpg,stim/4.jpg,stim/5.jpg,stim/latef.jpg,EF,2,4,,,,,,,,,0,41,41,51,,,,,,,,,,4,1,0.650012016406,,,,,,2017_Jan_27_1313,P9,PLC_L_D2S1,NHGY,59.9960318261,
stim/posf.jpg,stim/negf.jpg,stim/4.jpg,stim/5.jpg,stim/latef.jpg,EF,2,4,,,,,,,,,0,42,42,55,,,,,,,,,,4,1,0.700105240918,,,,,,2017_Jan_27_1313,P9,PLC_L_D2S1,NHGY,59.9960318261,
stim/negf.jpg,stim/posf.jpg,stim/5.jpg,stim/4.jpg,stim/latef.jpg,EF,1,2,,,,,,,,,0,43,43,47,,,,,,,,,,2,1,0.833332372943,,,,,,2017_Jan_27_1313,P9,PLC_L_D2S1,NHGY,59.9960318261,
stim/negf.jpg,stim/posf.jpg,stim/5.jpg,stim/4.jpg,stim/latef.jpg,EF,1,2,,,,,,,,,0,44,44,46,,,,,,,,,,2,1,0.63333158799,,,,,,2017_Jan_27_1313,P9,PLC_L_D2S1,NHGY,59.9960318261,
stim/posf.jpg,stim/negf.jpg,stim/4.jpg,stim/5.jpg,stim/latef.jpg,EF,2,4,,,,,,,,,0,45,45,54,,,,,,,,,,4,1,0.633334135329,,,,,,2017_Jan_27_1313,P9,PLC_L_D2S1,NHGY,59.9960318261,
stim/posf.jpg,stim/negf.jpg,stim/2.jpg,stim/6.jpg,stim/latef.jpg,AB,2,4,,,,,,,,,0,46,46,12,,,,,,,,,,4,1,0.816658771518,,,,,,2017_Jan_27_1313,P9,PLC_L_D2S1,NHGY,59.9960318261,
stim/negf.jpg,stim/posf.jpg,stim/4.jpg,stim/5.jpg,stim/latef.jpg,EF,2,4,,,,,,,,,0,47,47,57,,,,,,,,,,4,1,0.666605817228,,,,,,2017_Jan_27_1313,P9,PLC_L_D2S1,NHGY,59.9960318261,
stim/posf.jpg,stim/negf.jpg,stim/3.jpg,stim/1.jpg,stim/latef.jpg,CD,2,4,,,,,,,,,0,48,48,30,,,,,,,,,,4,1,0.766674240516,,,,,,2017_Jan_27_1313,P9,PLC_L_D2S1,NHGY,59.9960318261,
stim/posf.jpg,stim/negf.jpg,stim/5.jpg,stim/4.jpg,stim/latef.jpg,EF,1,2,,,,,,,,,0,49,49,43,,,,,,,,,,2,1,0.716670097705,,,,,,2017_Jan_27_1313,P9,PLC_L_D2S1,NHGY,59.9960318261,
stim/posf.jpg,stim/negf.jpg,stim/2.jpg,stim/6.jpg,stim/latef.jpg,AB,2,4,,,,,,,,,0,50,50,16,,,,,,,,,,4,1,0.749997863182,,,,,,2017_Jan_27_1313,P9,PLC_L_D2S1,NHGY,59.9960318261,
stim/posf.jpg,stim/negf.jpg,stim/5.jpg,stim/4.jpg,stim/latef.jpg,EF,1,2,,,,,,,,,0,51,51,41,,,,,,,,,,2,1,0.700000556385,,,,,,2017_Jan_27_1313,P9,PLC_L_D2S1,NHGY,59.9960318261,
stim/posf.jpg,stim/negf.jpg,stim/6.jpg,stim/2.jpg,stim/latef.jpg,AB,1,2,,,,,,,,,0,52,52,3,,,,,,,,,,4,0,0.616669117266,,,,,,2017_Jan_27_1313,P9,PLC_L_D2S1,NHGY,59.9960318261,
stim/negf.jpg,stim/posf.jpg,stim/3.jpg,stim/1.jpg,stim/latef.jpg,CD,2,4,,,,,,,,,0,53,53,39,,,,,,,,,,4,1,1.0499571689,,,,,,2017_Jan_27_1313,P9,PLC_L_D2S1,NHGY,59.9960318261,
stim/negf.jpg,stim/posf.jpg,stim/4.jpg,stim/5.jpg,stim/latef.jpg,EF,2,4,,,,,,,,,0,54,54,58,,,,,,,,,,4,1,0.716725528659,,,,,,2017_Jan_27_1313,P9,PLC_L_D2S1,NHGY,59.9960318261,
stim/negf.jpg,stim/posf.jpg,stim/1.jpg,stim/3.jpg,stim/latef.jpg,CD,1,2,,,,,,,,,0,55,55,29,,,,,,,,,,2,1,0.733383070116,,,,,,2017_Jan_27_1313,P9,PLC_L_D2S1,NHGY,59.9960318261,
stim/posf.jpg,stim/negf.jpg,stim/3.jpg,stim/1.jpg,stim/latef.jpg,CD,2,4,,,,,,,,,0,56,56,31,,,,,,,,,,4,1,0.599995169979,,,,,,2017_Jan_27_1313,P9,PLC_L_D2S1,NHGY,59.9960318261,
stim/posf.jpg,stim/negf.jpg,stim/1.jpg,stim/3.jpg,stim/latef.jpg,CD,1,2,,,,,,,,,0,57,57,22,,,,,,,,,,2,1,0.866657377548,,,,,,2017_Jan_27_1313,P9,PLC_L_D2S1,NHGY,59.9960318261,
stim/posf.jpg,stim/negf.jpg,stim/4.jpg,stim/5.jpg,stim/latef.jpg,EF,2,4,,,,,,,,,0,58,58,52,,,,,,,,,,4,1,0.616633505637,,,,,,2017_Jan_27_1313,P9,PLC_L_D2S1,NHGY,59.9960318261,
stim/posf.jpg,stim/negf.jpg,stim/5.jpg,stim/4.jpg,stim/latef.jpg,EF,1,2,,,,,,,,,0,59,59,45,,,,,,,,,,2,1,0.666701563516,,,,,,2017_Jan_27_1313,P9,PLC_L_D2S1,NHGY,59.9960318261,
,,,,,,,,,,,,,,,,,,,,,,,,,,,,,,,,0.97625,0.702222222222,1,0,0,2017_Jan_27_1313,P9,PLC_L_D2S1,NHGY,59.9960318261,
stim/posf.jpg,stim/negf.jpg,stim/2.jpg,stim/6.jpg,stim/latef.jpg,AB,2,4,,,,,,,,,,,,,0,0,0,11,,,,,,4,1,0.900045930309,,,,,,2017_Jan_27_1313,P9,PLC_L_D2S1,NHGY,59.9960318261,
stim/negf.jpg,stim/posf.jpg,stim/5.jpg,stim/4.jpg,stim/latef.jpg,EF,1,2,,,,,,,,,,,,,0,1,1,48,,,,,,2,1,0.783313749093,,,,,,2017_Jan_27_1313,P9,PLC_L_D2S1,NHGY,59.9960318261,
stim/posf.jpg,stim/negf.jpg,stim/3.jpg,stim/1.jpg,stim/latef.jpg,CD,2,4,,,,,,,,,,,,,0,2,2,31,,,,,,4,1,0.699926701579,,,,,,2017_Jan_27_1313,P9,PLC_L_D2S1,NHGY,59.9960318261,
stim/posf.jpg,stim/negf.jpg,stim/6.jpg,stim/2.jpg,stim/latef.jpg,AB,1,2,,,,,,,,,,,,,0,3,3,7,,,,,,2,1,0.699988974561,,,,,,2017_Jan_27_1313,P9,PLC_L_D2S1,NHGY,59.9960318261,
stim/posf.jpg,stim/negf.jpg,stim/5.jpg,stim/4.jpg,stim/latef.jpg,EF,1,2,,,,,,,,,,,,,0,4,4,45,,,,,,2,1,0.883346789322,,,,,,2017_Jan_27_1313,P9,PLC_L_D2S1,NHGY,59.9960318261,
stim/posf.jpg,stim/negf.jpg,stim/4.jpg,stim/5.jpg,stim/latef.jpg,EF,2,4,,,,,,,,,,,,,0,5,5,52,,,,,,4,1,0.733335395465,,,,,,2017_Jan_27_1313,P9,PLC_L_D2S1,NHGY,59.9960318261,
stim/posf.jpg,stim/negf.jpg,stim/3.jpg,stim/1.jpg,stim/latef.jpg,CD,2,4,,,,,,,,,,,,,0,6,6,34,,,,,,4,1,0.833338466108,,,,,,2017_Jan_27_1313,P9,PLC_L_D2S1,NHGY,59.9960318261,
stim/posf.jpg,stim/negf.jpg,stim/5.jpg,stim/4.jpg,stim/latef.jpg,EF,1,2,,,,,,,,,,,,,0,7,7,40,,,,,,2,1,0.749997995511,,,,,,2017_Jan_27_1313,P9,PLC_L_D2S1,NHGY,59.9960318261,
stim/posf.jpg,stim/negf.jpg,stim/4.jpg,stim/5.jpg,stim/latef.jpg,EF,2,4,,,,,,,,,,,,,0,8,8,55,,,,,,4,1,0.633378357387,,,,,,2017_Jan_27_1313,P9,PLC_L_D2S1,NHGY,59.9960318261,
stim/negf.jpg,stim/posf.jpg,stim/1.jpg,stim/3.jpg,stim/latef.jpg,CD,1,2,,,,,,,,,,,,,0,9,9,29,,,,,,2,1,0.799989296361,,,,,,2017_Jan_27_1313,P9,PLC_L_D2S1,NHGY,59.9960318261,
stim/posf.jpg,stim/negf.jpg,stim/6.jpg,stim/2.jpg,stim/latef.jpg,AB,1,2,,,,,,,,,,,,,0,10,10,0,,,,,,2,1,0.833332760908,,,,,,2017_Jan_27_1313,P9,PLC_L_D2S1,NHGY,59.9960318261,
stim/posf.jpg,stim/negf.jpg,stim/2.jpg,stim/6.jpg,stim/latef.jpg,AB,2,4,,,,,,,,,,,,,0,11,11,13,,,,,,4,1,0.883315938542,,,,,,2017_Jan_27_1313,P9,PLC_L_D2S1,NHGY,59.9960318261,
stim/posf.jpg,stim/negf.jpg,stim/4.jpg,stim/5.jpg,stim/latef.jpg,EF,2,4,,,,,,,,,,,,,0,12,12,53,,,,,,4,1,0.666672836021,,,,,,2017_Jan_27_1313,P9,PLC_L_D2S1,NHGY,59.9960318261,
stim/posf.jpg,stim/negf.jpg,stim/5.jpg,stim/4.jpg,stim/latef.jpg,EF,1,2,,,,,,,,,,,,,0,13,13,43,,,,,,2,1,0.749948444191,,,,,,2017_Jan_27_1313,P9,PLC_L_D2S1,NHGY,59.9960318261,
stim/negf.jpg,stim/posf.jpg,stim/4.jpg,stim/5.jpg,stim/latef.jpg,EF,2,4,,,,,,,,,,,,,0,14,14,59,,,,,,4,1,0.550028837269,,,,,,2017_Jan_27_1313,P9,PLC_L_D2S1,NHGY,59.9960318261,
stim/negf.jpg,stim/posf.jpg,stim/4.jpg,stim/5.jpg,stim/latef.jpg,EF,2,4,,,,,,,,,,,,,0,15,15,58,,,,,,4,1,0.583313725033,,,,,,2017_Jan_27_1313,P9,PLC_L_D2S1,NHGY,59.9960318261,
stim/negf.jpg,stim/posf.jpg,stim/3.jpg,stim/1.jpg,stim/latef.jpg,CD,2,4,,,,,,,,,,,,,0,16,16,38,,,,,,4,1,0.783335941324,,,,,,2017_Jan_27_1313,P9,PLC_L_D2S1,NHGY,59.9960318261,
stim/posf.jpg,stim/negf.jpg,stim/3.jpg,stim/1.jpg,stim/latef.jpg,CD,2,4,,,,,,,,,,,,,0,17,17,32,,,,,,4,1,0.816663763942,,,,,,2017_Jan_27_1313,P9,PLC_L_D2S1,NHGY,59.9960318261,
stim/posf.jpg,stim/negf.jpg,stim/2.jpg,stim/6.jpg,stim/latef.jpg,AB,2,4,,,,,,,,,,,,,0,18,18,14,,,,,,4,1,0.983341457051,,,,,,2017_Jan_27_1313,P9,PLC_L_D2S1,NHGY,59.9960318261,
stim/posf.jpg,stim/negf.jpg,stim/2.jpg,stim/6.jpg,stim/latef.jpg,AB,2,4,,,,,,,,,,,,,0,19,19,10,,,,,,4,1,0.683324040706,,,,,,2017_Jan_27_1313,P9,PLC_L_D2S1,NHGY,59.9960318261,
stim/posf.jpg,stim/negf.jpg,stim/2.jpg,stim/6.jpg,stim/latef.jpg,AB,2,4,,,,,,,,,,,,,0,20,20,15,,,,,,4,1,0.766638604828,,,,,,2017_Jan_27_1313,P9,PLC_L_D2S1,NHGY,59.9960318261,
stim/negf.jpg,stim/posf.jpg,stim/1.jpg,stim/3.jpg,stim/latef.jpg,CD,1,2,,,,,,,,,,,,,0,21,21,28,,,,,,2,1,0.883320579091,,,,,,2017_Jan_27_1313,P9,PLC_L_D2S1,NHGY,59.9960318261,
stim/negf.jpg,stim/posf.jpg,stim/4.jpg,stim/5.jpg,stim/latef.jpg,EF,2,4,,,,,,,,,,,,,0,22,22,56,,,,,,4,1,0.633324108375,,,,,,2017_Jan_27_1313,P9,PLC_L_D2S1,NHGY,59.9960318261,
stim/posf.jpg,stim/negf.jpg,stim/3.jpg,stim/1.jpg,stim/latef.jpg,CD,2,4,,,,,,,,,,,,,0,23,23,30,,,,,,4,1,0.850013622403,,,,,,2017_Jan_27_1313,P9,PLC_L_D2S1,NHGY,59.9960318261,
stim/negf.jpg,stim/posf.jpg,stim/6.jpg,stim/2.jpg,stim/latef.jpg,AB,1,2,,,,,,,,,,,,,0,24,24,8,,,,,,2,1,0.749996320342,,,,,,2017_Jan_27_1313,P9,PLC_L_D2S1,NHGY,59.9960318261,
stim/negf.jpg,stim/posf.jpg,stim/2.jpg,stim/6.jpg,stim/latef.jpg,AB,2,4,,,,,,,,,,,,,0,25,25,18,,,,,,4,1,0.899996980485,,,,,,2017_Jan_27_1313,P9,PLC_L_D2S1,NHGY,59.9960318261,
stim/posf.jpg,stim/negf.jpg,stim/6.jpg,stim/2.jpg,stim/latef.jpg,AB,1,2,,,,,,,,,,,,,0,26,26,6,,,,,,2,1,0.749971770243,,,,,,2017_Jan_27_1313,P9,PLC_L_D2S1,NHGY,59.9960318261,
stim/negf.jpg,stim/posf.jpg,stim/1.jpg,stim/3.jpg,stim/latef.jpg,CD,1,2,,,,,,,,,,,,,0,27,27,27,,,,,,2,1,0.816660735405,,,,,,2017_Jan_27_1313,P9,PLC_L_D2S1,NHGY,59.9960318261,
stim/posf.jpg,stim/negf.jpg,stim/6.jpg,stim/2.jpg,stim/latef.jpg,AB,1,2,,,,,,,,,,,,,0,28,28,5,,,,,,2,1,0.916632158284,,,,,,2017_Jan_27_1313,P9,PLC_L_D2S1,NHGY,59.9960318261,
stim/negf.jpg,stim/posf.jpg,stim/3.jpg,stim/1.jpg,stim/latef.jpg,CD,2,4,,,,,,,,,,,,,0,29,29,39,,,,,,4,1,0.783336097713,,,,,,2017_Jan_27_1313,P9,PLC_L_D2S1,NHGY,59.9960318261,
stim/negf.jpg,stim/posf.jpg,stim/2.jpg,stim/6.jpg,stim/latef.jpg,AB,2,4,,,,,,,,,,,,,0,30,30,19,,,,,,4,1,0.800000225562,,,,,,2017_Jan_27_1313,P9,PLC_L_D2S1,NHGY,59.9960318261,
stim/posf.jpg,stim/negf.jpg,stim/1.jpg,stim/3.jpg,stim/latef.jpg,CD,1,2,,,,,,,,,,,,,0,31,31,25,,,,,,2,1,0.899992394071,,,,,,2017_Jan_27_1313,P9,PLC_L_D2S1,NHGY,59.9960318261,
stim/posf.jpg,stim/negf.jpg,stim/6.jpg,stim/2.jpg,stim/latef.jpg,AB,1,2,,,,,,,,,,,,,0,32,32,2,,,,,,2,1,0.833269967632,,,,,,2017_Jan_27_1313,P9,PLC_L_D2S1,NHGY,59.9960318261,
stim/posf.jpg,stim/negf.jpg,stim/4.jpg,stim/5.jpg,stim/latef.jpg,EF,2,4,,,,,,,,,,,,,0,33,33,54,,,,,,4,1,0.616451552802,,,,,,2017_Jan_27_1313,P9,PLC_L_D2S1,NHGY,59.9960318261,
stim/posf.jpg,stim/negf.jpg,stim/1.jpg,stim/3.jpg,stim/latef.jpg,CD,1,2,,,,,,,,,,,,,0,34,34,22,,,,,,2,1,0.800000748864,,,,,,2017_Jan_27_1313,P9,PLC_L_D2S1,NHGY,59.9960318261,
stim/negf.jpg,stim/posf.jpg,stim/5.jpg,stim/4.jpg,stim/latef.jpg,EF,1,2,,,,,,,,,,,,,0,35,35,46,,,,,,2,1,0.599970472513,,,,,,2017_Jan_27_1313,P9,PLC_L_D2S1,NHGY,59.9960318261,
stim/posf.jpg,stim/negf.jpg,stim/6.jpg,stim/2.jpg,stim/latef.jpg,AB,1,2,,,,,,,,,,,,,0,36,36,1,,,,,,2,1,0.716652780608,,,,,,2017_Jan_27_1313,P9,PLC_L_D2S1,NHGY,59.9960318261,
stim/posf.jpg,stim/negf.jpg,stim/3.jpg,stim/1.jpg,stim/latef.jpg,CD,2,4,,,,,,,,,,,,,0,37,37,36,,,,,,4,1,0.966659939925,,,,,,2017_Jan_27_1313,P9,PLC_L_D2S1,NHGY,59.9960318261,
stim/posf.jpg,stim/negf.jpg,stim/1.jpg,stim/3.jpg,stim/latef.jpg,CD,1,2,,,,,,,,,,,,,0,38,38,23,,,,,,2,1,0.749985231746,,,,,,2017_Jan_27_1313,P9,PLC_L_D2S1,NHGY,59.9960318261,
stim/posf.jpg,stim/negf.jpg,stim/3.jpg,stim/1.jpg,stim/latef.jpg,CD,2,4,,,,,,,,,,,,,0,39,39,33,,,,,,4,1,0.783267966151,,,,,,2017_Jan_27_1313,P9,PLC_L_D2S1,NHGY,59.9960318261,
stim/posf.jpg,stim/negf.jpg,stim/6.jpg,stim/2.jpg,stim/latef.jpg,AB,1,2,,,,,,,,,,,,,0,40,40,3,,,,,,2,1,0.633315323511,,,,,,2017_Jan_27_1313,P9,PLC_L_D2S1,NHGY,59.9960318261,
stim/negf.jpg,stim/posf.jpg,stim/3.jpg,stim/1.jpg,stim/latef.jpg,CD,2,4,,,,,,,,,,,,,0,41,41,37,,,,,,4,1,0.699937053342,,,,,,2017_Jan_27_1313,P9,PLC_L_D2S1,NHGY,59.9960318261,
stim/posf.jpg,stim/negf.jpg,stim/4.jpg,stim/5.jpg,stim/latef.jpg,EF,2,4,,,,,,,,,,,,,0,42,42,51,,,,,,4,1,0.599993236166,,,,,,2017_Jan_27_1313,P9,PLC_L_D2S1,NHGY,59.9960318261,
stim/negf.jpg,stim/posf.jpg,stim/5.jpg,stim/4.jpg,stim/latef.jpg,EF,1,2,,,,,,,,,,,,,0,43,43,47,,,,,,2,1,0.633350074999,,,,,,2017_Jan_27_1313,P9,PLC_L_D2S1,NHGY,59.9960318261,
stim/posf.jpg,stim/negf.jpg,stim/5.jpg,stim/4.jpg,stim/latef.jpg,EF,1,2,,,,,,,,,,,,,0,44,44,42,,,,,,2,1,0.600029783122,,,,,,2017_Jan_27_1313,P9,PLC_L_D2S1,NHGY,59.9960318261,
stim/negf.jpg,stim/posf.jpg,stim/4.jpg,stim/5.jpg,stim/latef.jpg,EF,2,4,,,,,,,,,,,,,0,45,45,57,,,,,,4,1,0.56665466179,,,,,,2017_Jan_27_1313,P9,PLC_L_D2S1,NHGY,59.9960318261,
stim/negf.jpg,stim/posf.jpg,stim/6.jpg,stim/2.jpg,stim/latef.jpg,AB,1,2,,,,,,,,,,,,,0,46,46,9,,,,,,2,1,0.816673216467,,,,,,2017_Jan_27_1313,P9,PLC_L_D2S1,NHGY,59.9960318261,
stim/posf.jpg,stim/negf.jpg,stim/1.jpg,stim/3.jpg,stim/latef.jpg,CD,1,2,,,,,,,,,,,,,0,47,47,20,,,,,,4,0,0.649959689177,,,,,,2017_Jan_27_1313,P9,PLC_L_D2S1,NHGY,59.9960318261,
stim/posf.jpg,stim/negf.jpg,stim/3.jpg,stim/1.jpg,stim/latef.jpg,CD,2,4,,,,,,,,,,,,,0,48,48,35,,,,,,4,1,0.833338490168,,,,,,2017_Jan_27_1313,P9,PLC_L_D2S1,NHGY,59.9960318261,
stim/posf.jpg,stim/negf.jpg,stim/2.jpg,stim/6.jpg,stim/latef.jpg,AB,2,4,,,,,,,,,,,,,0,49,49,17,,,,,,4,1,0.916682244937,,,,,,2017_Jan_27_1313,P9,PLC_L_D2S1,NHGY,59.9960318261,
stim/posf.jpg,stim/negf.jpg,stim/4.jpg,stim/5.jpg,stim/latef.jpg,EF,2,4,,,,,,,,,,,,,0,50,50,50,,,,,,4,1,0.716729086514,,,,,,2017_Jan_27_1313,P9,PLC_L_D2S1,NHGY,59.9960318261,
stim/posf.jpg,stim/negf.jpg,stim/1.jpg,stim/3.jpg,stim/latef.jpg,CD,1,2,,,,,,,,,,,,,0,51,51,21,,,,,,2,1,1.0333825017,,,,,,2017_Jan_27_1313,P9,PLC_L_D2S1,NHGY,59.9960318261,
stim/negf.jpg,stim/posf.jpg,stim/5.jpg,stim/4.jpg,stim/latef.jpg,EF,1,2,,,,,,,,,,,,,0,52,52,49,,,,,,2,1,0.650046259629,,,,,,2017_Jan_27_1313,P9,PLC_L_D2S1,NHGY,59.9960318261,
stim/posf.jpg,stim/negf.jpg,stim/1.jpg,stim/3.jpg,stim/latef.jpg,CD,1,2,,,,,,,,,,,,,0,53,53,26,,,,,,2,1,0.949999457149,,,,,,2017_Jan_27_1313,P9,PLC_L_D2S1,NHGY,59.9960318261,
stim/posf.jpg,stim/negf.jpg,stim/1.jpg,stim/3.jpg,stim/latef.jpg,CD,1,2,,,,,,,,,,,,,0,54,54,24,,,,,,2,1,0.649971761221,,,,,,2017_Jan_27_1313,P9,PLC_L_D2S1,NHGY,59.9960318261,
stim/posf.jpg,stim/negf.jpg,stim/5.jpg,stim/4.jpg,stim/latef.jpg,EF,1,2,,,,,,,,,,,,,0,55,55,44,,,,,,2,1,0.666653293384,,,,,,2017_Jan_27_1313,P9,PLC_L_D2S1,NHGY,59.9960318261,
stim/posf.jpg,stim/negf.jpg,stim/2.jpg,stim/6.jpg,stim/latef.jpg,AB,2,4,,,,,,,,,,,,,0,56,56,16,,,,,,4,1,0.666647215257,,,,,,2017_Jan_27_1313,P9,PLC_L_D2S1,NHGY,59.9960318261,
stim/posf.jpg,stim/negf.jpg,stim/2.jpg,stim/6.jpg,stim/latef.jpg,AB,2,4,,,,,,,,,,,,,0,57,57,12,,,,,,4,1,0.799997612057,,,,,,2017_Jan_27_1313,P9,PLC_L_D2S1,NHGY,59.9960318261,
stim/posf.jpg,stim/negf.jpg,stim/5.jpg,stim/4.jpg,stim/latef.jpg,EF,1,2,,,,,,,,,,,,,0,58,58,41,,,,,,2,1,0.700020613302,,,,,,2017_Jan_27_1313,P9,PLC_L_D2S1,NHGY,59.9960318261,
stim/posf.jpg,stim/negf.jpg,stim/6.jpg,stim/2.jpg,stim/latef.jpg,AB,1,2,,,,,,,,,,,,,0,59,59,4,,,,,,2,1,0.76665207836,,,,,,2017_Jan_27_1313,P9,PLC_L_D2S1,NHGY,59.9960318261,
