symbol2,symbol1,decisionID,correct,block_01.thisRepN,block_01.thisTrialN,block_01.thisN,block_01.thisIndex,mouse.x,mouse.y,mouse.leftButton,mouse.midButton,mouse.rightButton,buttonBox_2.keys,buttonBox_2.corr,buttonBox_2.rt,date,Participant,expName,Group,frameRate,
,,,,,,,,0.9984375,1.0,1,0,0,,,,2015_Dez_01_1605,P13,PLC_T_D1S1,NHG,60.0117816689,
stim/5.jpg,stim/1.jpg,8,4,0,0,0,8,,,,,,2,0,1.23288519002,2015_Dez_01_1605,P13,PLC_T_D1S1,NHG,60.0117816689,
stim/3.jpg,stim/4.jpg,2,4,0,1,1,10,,,,,,4,1,1.14959390383,2015_Dez_01_1605,P13,PLC_T_D1S1,NHG,60.0117816689,
stim/2.jpg,stim/4.jpg,10,2,0,2,2,12,,,,,,4,0,1.2829148754,2015_Dez_01_1605,P13,PLC_T_D1S1,NHG,60.0117816689,
stim/2.jpg,stim/5.jpg,13,2,0,3,3,23,,,,,,2,1,1.38284165818,2015_Dez_01_1605,P13,PLC_T_D1S1,NHG,60.0117816689,
stim/1.jpg,stim/4.jpg,6,2,0,4,4,11,,,,,,4,0,1.46619641433,2015_Dez_01_1605,P13,PLC_T_D1S1,NHG,60.0117816689,
stim/1.jpg,stim/3.jpg,1,2,0,5,5,0,,,,,,2,1,1.13294622392,2015_Dez_01_1605,P13,PLC_T_D1S1,NHG,60.0117816689,
stim/5.jpg,stim/3.jpg,4,2,0,6,6,3,,,,,,2,1,1.23295887039,2015_Dez_01_1605,P13,PLC_T_D1S1,NHG,60.0117816689,
stim/4.jpg,stim/5.jpg,11,4,0,7,7,22,,,,,,4,1,1.26627900888,2015_Dez_01_1605,P13,PLC_T_D1S1,NHG,60.0117816689,
stim/2.jpg,stim/6.jpg,14,2,0,8,8,28,,,,,,2,1,1.38289979286,2015_Dez_01_1605,P13,PLC_T_D1S1,NHG,60.0117816689,
stim/1.jpg,stim/6.jpg,9,2,0,9,9,26,,,,,,4,0,1.29960125863,2015_Dez_01_1605,P13,PLC_T_D1S1,NHG,60.0117816689,
stim/4.jpg,stim/1.jpg,6,4,0,10,10,6,,,,,,2,0,1.31624692654,2015_Dez_01_1605,P13,PLC_T_D1S1,NHG,60.0117816689,
stim/4.jpg,stim/2.jpg,10,4,0,11,11,17,,,,,,4,1,1.28291801521,2015_Dez_01_1605,P13,PLC_T_D1S1,NHG,60.0117816689,
stim/4.jpg,stim/6.jpg,12,4,0,12,12,27,,,,,,4,1,1.14961263745,2015_Dez_01_1605,P13,PLC_T_D1S1,NHG,60.0117816689,
stim/5.jpg,stim/2.jpg,13,4,0,13,13,18,,,,,,2,0,1.36619498577,2015_Dez_01_1605,P13,PLC_T_D1S1,NHG,60.0117816689,
stim/3.jpg,stim/5.jpg,4,4,0,14,14,20,,,,,,4,1,1.11628526596,2015_Dez_01_1605,P13,PLC_T_D1S1,NHG,60.0117816689,
stim/6.jpg,stim/3.jpg,5,2,0,15,15,4,,,,,,2,1,1.54947714725,2015_Dez_01_1605,P13,PLC_T_D1S1,NHG,60.0117816689,
stim/3.jpg,stim/2.jpg,3,4,0,16,16,15,,,,,,4,1,1.28292076405,2015_Dez_01_1605,P13,PLC_T_D1S1,NHG,60.0117816689,
stim/6.jpg,stim/5.jpg,15,2,0,17,17,24,,,,,,4,0,1.38285428961,2015_Dez_01_1605,P13,PLC_T_D1S1,NHG,60.0117816689,
stim/3.jpg,stim/6.jpg,5,4,0,18,18,25,,,,,,4,1,1.14961832761,2015_Dez_01_1605,P13,PLC_T_D1S1,NHG,60.0117816689,
stim/2.jpg,stim/3.jpg,3,2,0,19,19,2,,,,,,2,1,1.33289651921,2015_Dez_01_1605,P13,PLC_T_D1S1,NHG,60.0117816689,
stim/1.jpg,stim/5.jpg,8,2,0,20,20,21,,,,,,2,1,1.53278098367,2015_Dez_01_1605,P13,PLC_T_D1S1,NHG,60.0117816689,
stim/1.jpg,stim/2.jpg,7,2,0,21,21,16,,,,,,4,0,1.63277982579,2015_Dez_01_1605,P13,PLC_T_D1S1,NHG,60.0117816689,
stim/4.jpg,stim/3.jpg,2,2,0,22,22,1,,,,,,2,1,1.41624683932,2015_Dez_01_1605,P13,PLC_T_D1S1,NHG,60.0117816689,
stim/3.jpg,stim/1.jpg,1,4,0,23,23,5,,,,,,4,1,1.06630500859,2015_Dez_01_1605,P13,PLC_T_D1S1,NHG,60.0117816689,
stim/2.jpg,stim/1.jpg,7,4,0,24,24,7,,,,,,4,1,1.34946078954,2015_Dez_01_1605,P13,PLC_T_D1S1,NHG,60.0117816689,
stim/5.jpg,stim/4.jpg,11,2,0,25,25,13,,,,,,2,1,1.34955127875,2015_Dez_01_1605,P13,PLC_T_D1S1,NHG,60.0117816689,
stim/5.jpg,stim/6.jpg,15,4,0,26,26,29,,,,,,4,1,1.2329346872,2015_Dez_01_1605,P13,PLC_T_D1S1,NHG,60.0117816689,
stim/6.jpg,stim/4.jpg,12,2,0,27,27,14,,,,,,2,1,1.29956314478,2015_Dez_01_1605,P13,PLC_T_D1S1,NHG,60.0117816689,
stim/6.jpg,stim/1.jpg,9,4,0,28,28,9,,,,,,4,1,1.38283201919,2015_Dez_01_1605,P13,PLC_T_D1S1,NHG,60.0117816689,
stim/6.jpg,stim/2.jpg,14,4,0,29,29,19,,,,,,4,1,1.51615829596,2015_Dez_01_1605,P13,PLC_T_D1S1,NHG,60.0117816689,
stim/5.jpg,stim/6.jpg,15,4,1,0,30,29,,,,,,4,1,1.48286307448,2015_Dez_01_1605,P13,PLC_T_D1S1,NHG,60.0117816689,
stim/3.jpg,stim/4.jpg,2,4,1,1,31,10,,,,,,4,1,1.13295877415,2015_Dez_01_1605,P13,PLC_T_D1S1,NHG,60.0117816689,
stim/1.jpg,stim/6.jpg,9,2,1,2,32,26,,,,,,2,1,1.21627936527,2015_Dez_01_1605,P13,PLC_T_D1S1,NHG,60.0117816689,
stim/1.jpg,stim/4.jpg,6,2,1,3,33,11,,,,,,2,1,1.28295495314,2015_Dez_01_1605,P13,PLC_T_D1S1,NHG,60.0117816689,
stim/6.jpg,stim/2.jpg,14,4,1,4,34,19,,,,,,4,1,0.983008390132,2015_Dez_01_1605,P13,PLC_T_D1S1,NHG,60.0117816689,
stim/2.jpg,stim/1.jpg,7,4,1,5,35,7,,,,,,2,0,1.19958845577,2015_Dez_01_1605,P13,PLC_T_D1S1,NHG,60.0117816689,
stim/3.jpg,stim/6.jpg,5,4,1,6,36,25,,,,,,4,1,0.766409467562,2015_Dez_01_1605,P13,PLC_T_D1S1,NHG,60.0117816689,
stim/3.jpg,stim/5.jpg,4,4,1,7,37,20,,,,,,4,1,0.916375490502,2015_Dez_01_1605,P13,PLC_T_D1S1,NHG,60.0117816689,
stim/6.jpg,stim/4.jpg,12,2,1,8,38,14,,,,,,4,0,1.14960625557,2015_Dez_01_1605,P13,PLC_T_D1S1,NHG,60.0117816689,
stim/3.jpg,stim/1.jpg,1,4,1,9,39,5,,,,,,4,1,0.783042440875,2015_Dez_01_1605,P13,PLC_T_D1S1,NHG,60.0117816689,
stim/5.jpg,stim/4.jpg,11,2,1,10,40,13,,,,,,4,0,1.13295719221,2015_Dez_01_1605,P13,PLC_T_D1S1,NHG,60.0117816689,
stim/1.jpg,stim/2.jpg,7,2,1,11,41,16,,,,,,4,0,1.21627147965,2015_Dez_01_1605,P13,PLC_T_D1S1,NHG,60.0117816689,
stim/1.jpg,stim/5.jpg,8,2,1,12,42,21,,,,,,2,1,1.14964759646,2015_Dez_01_1605,P13,PLC_T_D1S1,NHG,60.0117816689,
stim/2.jpg,stim/5.jpg,13,2,1,13,43,23,,,,,,4,0,0.983017965962,2015_Dez_01_1605,P13,PLC_T_D1S1,NHG,60.0117816689,
stim/2.jpg,stim/6.jpg,14,2,1,14,44,28,,,,,,4,0,1.21625735349,2015_Dez_01_1605,P13,PLC_T_D1S1,NHG,60.0117816689,
stim/4.jpg,stim/5.jpg,11,4,1,15,45,22,,,,,,2,0,1.1995770965,2015_Dez_01_1605,P13,PLC_T_D1S1,NHG,60.0117816689,
stim/5.jpg,stim/2.jpg,13,4,1,16,46,18,,,,,,4,1,0.933028827494,2015_Dez_01_1605,P13,PLC_T_D1S1,NHG,60.0117816689,
stim/4.jpg,stim/2.jpg,10,4,1,17,47,17,,,,,,2,0,0.966314208486,2015_Dez_01_1605,P13,PLC_T_D1S1,NHG,60.0117816689,
stim/2.jpg,stim/3.jpg,3,2,1,18,48,2,,,,,,2,1,0.932999769177,2015_Dez_01_1605,P13,PLC_T_D1S1,NHG,60.0117816689,
stim/5.jpg,stim/1.jpg,8,4,1,19,49,8,,,,,,4,1,1.04968900652,2015_Dez_01_1605,P13,PLC_T_D1S1,NHG,60.0117816689,
stim/1.jpg,stim/3.jpg,1,2,1,20,50,0,,,,,,2,1,1.18294263448,2015_Dez_01_1605,P13,PLC_T_D1S1,NHG,60.0117816689,
stim/4.jpg,stim/6.jpg,12,4,1,21,51,27,,,,,,4,1,1.14964714233,2015_Dez_01_1605,P13,PLC_T_D1S1,NHG,60.0117816689,
stim/6.jpg,stim/5.jpg,15,2,1,22,52,24,,,,,,2,1,1.29951630019,2015_Dez_01_1605,P13,PLC_T_D1S1,NHG,60.0117816689,
stim/6.jpg,stim/1.jpg,9,4,1,23,53,9,,,,,,2,0,1.39950752134,2015_Dez_01_1605,P13,PLC_T_D1S1,NHG,60.0117816689,
stim/2.jpg,stim/4.jpg,10,2,1,24,54,12,,,,,,2,1,1.33287897956,2015_Dez_01_1605,P13,PLC_T_D1S1,NHG,60.0117816689,
stim/3.jpg,stim/2.jpg,3,4,1,25,55,15,,,,,,4,1,0.749742133736,2015_Dez_01_1605,P13,PLC_T_D1S1,NHG,60.0117816689,
stim/6.jpg,stim/3.jpg,5,2,1,26,56,4,,,,,,2,1,0.883033256016,2015_Dez_01_1605,P13,PLC_T_D1S1,NHG,60.0117816689,
stim/4.jpg,stim/1.jpg,6,4,1,27,57,6,,,,,,4,1,0.999670966117,2015_Dez_01_1605,P13,PLC_T_D1S1,NHG,60.0117816689,
stim/4.jpg,stim/3.jpg,2,2,1,28,58,1,,,,,,2,1,0.749751108071,2015_Dez_01_1605,P13,PLC_T_D1S1,NHG,60.0117816689,
stim/5.jpg,stim/3.jpg,4,2,1,29,59,3,,,,,,2,1,1.03294337583,2015_Dez_01_1605,P13,PLC_T_D1S1,NHG,60.0117816689,
stim/2.jpg,stim/3.jpg,3,2,2,0,60,2,,,,,,2,1,0.91637503938,2015_Dez_01_1605,P13,PLC_T_D1S1,NHG,60.0117816689,
stim/5.jpg,stim/6.jpg,15,4,2,1,61,29,,,,,,4,1,0.982978453627,2015_Dez_01_1605,P13,PLC_T_D1S1,NHG,60.0117816689,
stim/3.jpg,stim/1.jpg,1,4,2,2,62,5,,,,,,4,1,0.983002185691,2015_Dez_01_1605,P13,PLC_T_D1S1,NHG,60.0117816689,
stim/1.jpg,stim/6.jpg,9,2,2,3,63,26,,,,,,2,1,1.16630173645,2015_Dez_01_1605,P13,PLC_T_D1S1,NHG,60.0117816689,
stim/1.jpg,stim/5.jpg,8,2,2,4,64,21,,,,,,2,1,1.36616111548,2015_Dez_01_1605,P13,PLC_T_D1S1,NHG,60.0117816689,
stim/6.jpg,stim/1.jpg,9,4,2,5,65,9,,,,,,2,0,1.39952690759,2015_Dez_01_1605,P13,PLC_T_D1S1,NHG,60.0117816689,
stim/4.jpg,stim/6.jpg,12,4,2,6,66,27,,,,,,4,1,1.34954402168,2015_Dez_01_1605,P13,PLC_T_D1S1,NHG,60.0117816689,
stim/5.jpg,stim/1.jpg,8,4,2,7,67,8,,,,,,4,1,0.982998630843,2015_Dez_01_1605,P13,PLC_T_D1S1,NHG,60.0117816689,
stim/6.jpg,stim/4.jpg,12,2,2,8,68,14,,,,,,2,1,1.31620565783,2015_Dez_01_1605,P13,PLC_T_D1S1,NHG,60.0117816689,
stim/5.jpg,stim/2.jpg,13,4,2,9,69,18,,,,,,4,1,1.06632543543,2015_Dez_01_1605,P13,PLC_T_D1S1,NHG,60.0117816689,
stim/1.jpg,stim/3.jpg,1,2,2,10,70,0,,,,,,2,1,1.03296397108,2015_Dez_01_1605,P13,PLC_T_D1S1,NHG,60.0117816689,
stim/6.jpg,stim/5.jpg,15,2,2,11,71,24,,,,,,2,1,0.899744093111,2015_Dez_01_1605,P13,PLC_T_D1S1,NHG,60.0117816689,
stim/3.jpg,stim/2.jpg,3,4,2,12,72,15,,,,,,4,1,0.833074995395,2015_Dez_01_1605,P13,PLC_T_D1S1,NHG,60.0117816689,
stim/3.jpg,stim/4.jpg,2,4,2,13,73,10,,,,,,4,1,1.13294875622,2015_Dez_01_1605,P13,PLC_T_D1S1,NHG,60.0117816689,
stim/3.jpg,stim/5.jpg,4,4,2,14,74,20,,,,,,4,1,1.08297247475,2015_Dez_01_1605,P13,PLC_T_D1S1,NHG,60.0117816689,
stim/5.jpg,stim/3.jpg,4,2,2,15,75,3,,,,,,2,1,1.21625166934,2015_Dez_01_1605,P13,PLC_T_D1S1,NHG,60.0117816689,
stim/2.jpg,stim/4.jpg,10,2,2,16,76,12,,,,,,4,0,1.13296509889,2015_Dez_01_1605,P13,PLC_T_D1S1,NHG,60.0117816689,
stim/4.jpg,stim/1.jpg,6,4,2,17,77,6,,,,,,2,0,1.06631436788,2015_Dez_01_1605,P13,PLC_T_D1S1,NHG,60.0117816689,
stim/6.jpg,stim/3.jpg,5,2,2,18,78,4,,,,,,2,1,0.916338275883,2015_Dez_01_1605,P13,PLC_T_D1S1,NHG,60.0117816689,
stim/6.jpg,stim/2.jpg,14,4,2,19,79,19,,,,,,4,1,1.58284270177,2015_Dez_01_1605,P13,PLC_T_D1S1,NHG,60.0117816689,
stim/4.jpg,stim/3.jpg,2,2,2,20,80,1,,,,,,2,1,1.13292321966,2015_Dez_01_1605,P13,PLC_T_D1S1,NHG,60.0117816689,
stim/1.jpg,stim/4.jpg,6,2,2,21,81,11,,,,,,2,1,1.11629848686,2015_Dez_01_1605,P13,PLC_T_D1S1,NHG,60.0117816689,
stim/1.jpg,stim/2.jpg,7,2,2,22,82,16,,,,,,4,0,0.966378490468,2015_Dez_01_1605,P13,PLC_T_D1S1,NHG,60.0117816689,
stim/2.jpg,stim/1.jpg,7,4,2,23,83,7,,,,,,4,1,1.19963053951,2015_Dez_01_1605,P13,PLC_T_D1S1,NHG,60.0117816689,
stim/2.jpg,stim/6.jpg,14,2,2,24,84,28,,,,,,2,1,1.09959961955,2015_Dez_01_1605,P13,PLC_T_D1S1,NHG,60.0117816689,
stim/5.jpg,stim/4.jpg,11,2,2,25,85,13,,,,,,4,0,1.01628723886,2015_Dez_01_1605,P13,PLC_T_D1S1,NHG,60.0117816689,
stim/3.jpg,stim/6.jpg,5,4,2,26,86,25,,,,,,4,1,0.766423073423,2015_Dez_01_1605,P13,PLC_T_D1S1,NHG,60.0117816689,
stim/4.jpg,stim/2.jpg,10,4,2,27,87,17,,,,,,4,1,1.19963704469,2015_Dez_01_1605,P13,PLC_T_D1S1,NHG,60.0117816689,
stim/4.jpg,stim/5.jpg,11,4,2,28,88,22,,,,,,2,0,0.949678973546,2015_Dez_01_1605,P13,PLC_T_D1S1,NHG,60.0117816689,
stim/2.jpg,stim/5.jpg,13,2,2,29,89,23,,,,,,2,1,1.06631315286,2015_Dez_01_1605,P13,PLC_T_D1S1,NHG,60.0117816689,
stim/4.jpg,stim/5.jpg,11,4,3,0,90,22,,,,,,2,0,1.13300447589,2015_Dez_01_1605,P13,PLC_T_D1S1,NHG,60.0117816689,
stim/3.jpg,stim/6.jpg,5,4,3,1,91,25,,,,,,4,1,0.816405983391,2015_Dez_01_1605,P13,PLC_T_D1S1,NHG,60.0117816689,
stim/6.jpg,stim/5.jpg,15,2,3,2,92,24,,,,,,2,1,1.03295713206,2015_Dez_01_1605,P13,PLC_T_D1S1,NHG,60.0117816689,
stim/2.jpg,stim/6.jpg,14,2,3,3,93,28,,,,,,2,1,1.24959105273,2015_Dez_01_1605,P13,PLC_T_D1S1,NHG,60.0117816689,
stim/4.jpg,stim/3.jpg,2,2,3,4,94,1,,,,,,2,1,1.33289155686,2015_Dez_01_1605,P13,PLC_T_D1S1,NHG,60.0117816689,
stim/4.jpg,stim/2.jpg,10,4,3,5,95,17,,,,,,4,1,1.482844401,2015_Dez_01_1605,P13,PLC_T_D1S1,NHG,60.0117816689,
stim/2.jpg,stim/4.jpg,10,2,3,6,96,12,,,,,,2,1,1.33289895828,2015_Dez_01_1605,P13,PLC_T_D1S1,NHG,60.0117816689,
stim/1.jpg,stim/5.jpg,8,2,3,7,97,21,,,,,,2,1,1.19960398041,2015_Dez_01_1605,P13,PLC_T_D1S1,NHG,60.0117816689,
stim/3.jpg,stim/1.jpg,1,4,3,8,98,5,,,,,,4,1,0.816389676809,2015_Dez_01_1605,P13,PLC_T_D1S1,NHG,60.0117816689,
stim/6.jpg,stim/3.jpg,5,2,3,9,99,4,,,,,,2,1,1.23291258219,2015_Dez_01_1605,P13,PLC_T_D1S1,NHG,60.0117816689,
stim/6.jpg,stim/2.jpg,14,4,3,10,100,19,,,,,,4,1,1.46618369868,2015_Dez_01_1605,P13,PLC_T_D1S1,NHG,60.0117816689,
stim/4.jpg,stim/1.jpg,6,4,3,11,101,6,,,,,,None,0,,2015_Dez_01_1605,P13,PLC_T_D1S1,NHG,60.0117816689,
stim/2.jpg,stim/1.jpg,7,4,3,12,102,7,,,,,,2,0,0.849713006244,2015_Dez_01_1605,P13,PLC_T_D1S1,NHG,60.0117816689,
stim/5.jpg,stim/6.jpg,15,4,3,13,103,29,,,,,,4,1,0.916362404934,2015_Dez_01_1605,P13,PLC_T_D1S1,NHG,60.0117816689,
stim/6.jpg,stim/4.jpg,12,2,3,14,104,14,,,,,,4,0,1.34951331226,2015_Dez_01_1605,P13,PLC_T_D1S1,NHG,60.0117816689,
stim/5.jpg,stim/1.jpg,8,4,3,15,105,8,,,,,,4,1,0.933053374585,2015_Dez_01_1605,P13,PLC_T_D1S1,NHG,60.0117816689,
stim/2.jpg,stim/5.jpg,13,2,3,16,106,23,,,,,,2,1,1.09962869892,2015_Dez_01_1605,P13,PLC_T_D1S1,NHG,60.0117816689,
stim/4.jpg,stim/6.jpg,12,4,3,17,107,27,,,,,,2,0,1.34956200945,2015_Dez_01_1605,P13,PLC_T_D1S1,NHG,60.0117816689,
stim/1.jpg,stim/2.jpg,7,2,3,18,108,16,,,,,,4,0,1.29956218238,2015_Dez_01_1605,P13,PLC_T_D1S1,NHG,60.0117816689,
stim/1.jpg,stim/4.jpg,6,2,3,19,109,11,,,,,,4,0,1.24964177697,2015_Dez_01_1605,P13,PLC_T_D1S1,NHG,60.0117816689,
stim/3.jpg,stim/2.jpg,3,4,3,20,110,15,,,,,,4,1,0.933008184118,2015_Dez_01_1605,P13,PLC_T_D1S1,NHG,60.0117816689,
stim/3.jpg,stim/4.jpg,2,4,3,21,111,10,,,,,,4,1,1.08296134404,2015_Dez_01_1605,P13,PLC_T_D1S1,NHG,60.0117816689,
stim/1.jpg,stim/6.jpg,9,2,3,22,112,26,,,,,,2,1,0.983003761612,2015_Dez_01_1605,P13,PLC_T_D1S1,NHG,60.0117816689,
stim/1.jpg,stim/3.jpg,1,2,3,23,113,0,,,,,,2,1,1.1495298444,2015_Dez_01_1605,P13,PLC_T_D1S1,NHG,60.0117816689,
stim/6.jpg,stim/1.jpg,9,4,3,24,114,9,,,,,,4,1,1.14960440897,2015_Dez_01_1605,P13,PLC_T_D1S1,NHG,60.0117816689,
stim/3.jpg,stim/5.jpg,4,4,3,25,115,20,,,,,,4,1,0.816399848121,2015_Dez_01_1605,P13,PLC_T_D1S1,NHG,60.0117816689,
stim/5.jpg,stim/4.jpg,11,2,3,26,116,13,,,,,,4,0,0.833064598519,2015_Dez_01_1605,P13,PLC_T_D1S1,NHG,60.0117816689,
stim/5.jpg,stim/2.jpg,13,4,3,27,117,18,,,,,,4,1,0.966312022045,2015_Dez_01_1605,P13,PLC_T_D1S1,NHG,60.0117816689,
stim/5.jpg,stim/3.jpg,4,2,3,28,118,3,,,,,,2,1,1.1829237144,2015_Dez_01_1605,P13,PLC_T_D1S1,NHG,60.0117816689,
stim/2.jpg,stim/3.jpg,3,2,3,29,119,2,,,,,,2,1,1.09963065078,2015_Dez_01_1605,P13,PLC_T_D1S1,NHG,60.0117816689,
stim/5.jpg,stim/3.jpg,4,2,4,0,120,3,,,,,,2,1,1.14961196979,2015_Dez_01_1605,P13,PLC_T_D1S1,NHG,60.0117816689,
stim/6.jpg,stim/5.jpg,15,2,4,1,121,24,,,,,,2,1,1.18293542554,2015_Dez_01_1605,P13,PLC_T_D1S1,NHG,60.0117816689,
stim/5.jpg,stim/2.jpg,13,4,4,2,122,18,,,,,,4,1,0.916349012605,2015_Dez_01_1605,P13,PLC_T_D1S1,NHG,60.0117816689,
stim/6.jpg,stim/2.jpg,14,4,4,3,123,19,,,,,,4,1,1.16629539967,2015_Dez_01_1605,P13,PLC_T_D1S1,NHG,60.0117816689,
stim/4.jpg,stim/2.jpg,10,4,4,4,124,17,,,,,,4,1,1.18295282083,2015_Dez_01_1605,P13,PLC_T_D1S1,NHG,60.0117816689,
stim/5.jpg,stim/6.jpg,15,4,4,5,125,29,,,,,,4,1,1.09966303538,2015_Dez_01_1605,P13,PLC_T_D1S1,NHG,60.0117816689,
stim/4.jpg,stim/6.jpg,12,4,4,6,126,27,,,,,,2,0,0.999696051549,2015_Dez_01_1605,P13,PLC_T_D1S1,NHG,60.0117816689,
stim/4.jpg,stim/3.jpg,2,2,4,7,127,1,,,,,,2,1,0.899775316819,2015_Dez_01_1605,P13,PLC_T_D1S1,NHG,60.0117816689,
stim/5.jpg,stim/4.jpg,11,2,4,8,128,13,,,,,,4,0,0.866396550415,2015_Dez_01_1605,P13,PLC_T_D1S1,NHG,60.0117816689,
stim/4.jpg,stim/5.jpg,11,4,4,9,129,22,,,,,,2,0,0.783011394609,2015_Dez_01_1605,P13,PLC_T_D1S1,NHG,60.0117816689,
stim/3.jpg,stim/4.jpg,2,4,4,10,130,10,,,,,,4,1,1.11628678173,2015_Dez_01_1605,P13,PLC_T_D1S1,NHG,60.0117816689,
stim/2.jpg,stim/4.jpg,10,2,4,11,131,12,,,,,,4,0,1.5494898238,2015_Dez_01_1605,P13,PLC_T_D1S1,NHG,60.0117816689,
stim/2.jpg,stim/6.jpg,14,2,4,12,132,28,,,,,,2,1,1.19960287365,2015_Dez_01_1605,P13,PLC_T_D1S1,NHG,60.0117816689,
stim/6.jpg,stim/3.jpg,5,2,4,13,133,4,,,,,,2,1,0.999668352611,2015_Dez_01_1605,P13,PLC_T_D1S1,NHG,60.0117816689,
stim/5.jpg,stim/1.jpg,8,4,4,14,134,8,,,,,,4,1,0.799775289752,2015_Dez_01_1605,P13,PLC_T_D1S1,NHG,60.0117816689,
stim/1.jpg,stim/2.jpg,7,2,4,15,135,16,,,,,,4,0,1.49950359357,2015_Dez_01_1605,P13,PLC_T_D1S1,NHG,60.0117816689,
stim/1.jpg,stim/6.jpg,9,2,4,16,136,26,,,,,,2,1,1.63280567212,2015_Dez_01_1605,P13,PLC_T_D1S1,NHG,60.0117816689,
stim/3.jpg,stim/5.jpg,4,4,4,17,137,20,,,,,,4,1,0.766418351672,2015_Dez_01_1605,P13,PLC_T_D1S1,NHG,60.0117816689,
stim/2.jpg,stim/3.jpg,3,2,4,18,138,2,,,,,,2,1,0.8663815972,2015_Dez_01_1605,P13,PLC_T_D1S1,NHG,60.0117816689,
stim/1.jpg,stim/3.jpg,1,2,4,19,139,0,,,,,,2,1,0.799696635,2015_Dez_01_1605,P13,PLC_T_D1S1,NHG,60.0117816689,
stim/2.jpg,stim/5.jpg,13,2,4,20,140,23,,,,,,2,1,0.866371098071,2015_Dez_01_1605,P13,PLC_T_D1S1,NHG,60.0117816689,
stim/3.jpg,stim/1.jpg,1,4,4,21,141,5,,,,,,4,1,0.932955905009,2015_Dez_01_1605,P13,PLC_T_D1S1,NHG,60.0117816689,
stim/6.jpg,stim/4.jpg,12,2,4,22,142,14,,,,,,4,0,1.23293716537,2015_Dez_01_1605,P13,PLC_T_D1S1,NHG,60.0117816689,
stim/2.jpg,stim/1.jpg,7,4,4,23,143,7,,,,,,2,0,1.46617742507,2015_Dez_01_1605,P13,PLC_T_D1S1,NHG,60.0117816689,
stim/3.jpg,stim/6.jpg,5,4,4,24,144,25,,,,,,4,1,0.799740514205,2015_Dez_01_1605,P13,PLC_T_D1S1,NHG,60.0117816689,
stim/6.jpg,stim/1.jpg,9,4,4,25,145,9,,,,,,2,0,1.64943853716,2015_Dez_01_1605,P13,PLC_T_D1S1,NHG,60.0117816689,
stim/3.jpg,stim/2.jpg,3,4,4,26,146,15,,,,,,4,1,0.999673597666,2015_Dez_01_1605,P13,PLC_T_D1S1,NHG,60.0117816689,
stim/4.jpg,stim/1.jpg,6,4,4,27,147,6,,,,,,2,0,1.41618007316,2015_Dez_01_1605,P13,PLC_T_D1S1,NHG,60.0117816689,
stim/1.jpg,stim/4.jpg,6,2,4,28,148,11,,,,,,4,0,0.866368583813,2015_Dez_01_1605,P13,PLC_T_D1S1,NHG,60.0117816689,
stim/1.jpg,stim/5.jpg,8,2,4,29,149,21,,,,,,2,1,0.949720750517,2015_Dez_01_1605,P13,PLC_T_D1S1,NHG,60.0117816689,
stim/3.jpg,stim/6.jpg,5,4,5,0,150,25,,,,,,4,1,0.982989494103,2015_Dez_01_1605,P13,PLC_T_D1S1,NHG,60.0117816689,
stim/4.jpg,stim/3.jpg,2,2,5,1,151,1,,,,,,2,1,0.799772760458,2015_Dez_01_1605,P13,PLC_T_D1S1,NHG,60.0117816689,
stim/2.jpg,stim/1.jpg,7,4,5,2,152,7,,,,,,2,0,1.01632359034,2015_Dez_01_1605,P13,PLC_T_D1S1,NHG,60.0117816689,
stim/1.jpg,stim/2.jpg,7,2,5,3,153,16,,,,,,4,0,1.2496325079,2015_Dez_01_1605,P13,PLC_T_D1S1,NHG,60.0117816689,
stim/4.jpg,stim/1.jpg,6,4,5,4,154,6,,,,,,2,0,1.23289256738,2015_Dez_01_1605,P13,PLC_T_D1S1,NHG,60.0117816689,
stim/6.jpg,stim/1.jpg,9,4,5,5,155,9,,,,,,2,0,1.03299156175,2015_Dez_01_1605,P13,PLC_T_D1S1,NHG,60.0117816689,
stim/2.jpg,stim/4.jpg,10,2,5,6,156,12,,,,,,4,0,1.31623761837,2015_Dez_01_1605,P13,PLC_T_D1S1,NHG,60.0117816689,
stim/4.jpg,stim/5.jpg,11,4,5,7,157,22,,,,,,2,0,1.1829279369,2015_Dez_01_1605,P13,PLC_T_D1S1,NHG,60.0117816689,
stim/3.jpg,stim/1.jpg,1,4,5,8,158,5,,,,,,4,1,1.08296750939,2015_Dez_01_1605,P13,PLC_T_D1S1,NHG,60.0117816689,
stim/6.jpg,stim/3.jpg,5,2,5,9,159,4,,,,,,2,1,1.01633017673,2015_Dez_01_1605,P13,PLC_T_D1S1,NHG,60.0117816689,
stim/6.jpg,stim/2.jpg,14,4,5,10,160,19,,,,,,4,1,1.23293326166,2015_Dez_01_1605,P13,PLC_T_D1S1,NHG,60.0117816689,
stim/6.jpg,stim/4.jpg,12,2,5,11,161,14,,,,,,2,1,1.63278142277,2015_Dez_01_1605,P13,PLC_T_D1S1,NHG,60.0117816689,
stim/5.jpg,stim/6.jpg,15,4,5,12,162,29,,,,,,4,1,0.783083622364,2015_Dez_01_1605,P13,PLC_T_D1S1,NHG,60.0117816689,
stim/2.jpg,stim/5.jpg,13,2,5,13,163,23,,,,,,2,1,1.14966345492,2015_Dez_01_1605,P13,PLC_T_D1S1,NHG,60.0117816689,
stim/5.jpg,stim/3.jpg,4,2,5,14,164,3,,,,,,2,1,1.03300134209,2015_Dez_01_1605,P13,PLC_T_D1S1,NHG,60.0117816689,
stim/2.jpg,stim/6.jpg,14,2,5,15,165,28,,,,,,2,1,1.09962652752,2015_Dez_01_1605,P13,PLC_T_D1S1,NHG,60.0117816689,
stim/5.jpg,stim/2.jpg,13,4,5,16,166,18,,,,,,4,1,0.966331333106,2015_Dez_01_1605,P13,PLC_T_D1S1,NHG,60.0117816689,
stim/2.jpg,stim/3.jpg,3,2,5,17,167,2,,,,,,2,1,0.816389282829,2015_Dez_01_1605,P13,PLC_T_D1S1,NHG,60.0117816689,
stim/1.jpg,stim/5.jpg,8,2,5,18,168,21,,,,,,2,1,0.933025062122,2015_Dez_01_1605,P13,PLC_T_D1S1,NHG,60.0117816689,
stim/4.jpg,stim/2.jpg,10,4,5,19,169,17,,,,,,4,1,0.849686290756,2015_Dez_01_1605,P13,PLC_T_D1S1,NHG,60.0117816689,
stim/1.jpg,stim/6.jpg,9,2,5,20,170,26,,,,,,4,0,1.16629292151,2015_Dez_01_1605,P13,PLC_T_D1S1,NHG,60.0117816689,
stim/5.jpg,stim/4.jpg,11,2,5,21,171,13,,,,,,4,0,0.849719006177,2015_Dez_01_1605,P13,PLC_T_D1S1,NHG,60.0117816689,
stim/1.jpg,stim/4.jpg,6,2,5,22,172,11,,,,,,4,0,1.31621752236,2015_Dez_01_1605,P13,PLC_T_D1S1,NHG,60.0117816689,
stim/3.jpg,stim/4.jpg,2,4,5,23,173,10,,,,,,4,1,0.982988676067,2015_Dez_01_1605,P13,PLC_T_D1S1,NHG,60.0117816689,
stim/3.jpg,stim/5.jpg,4,4,5,24,174,20,,,,,,4,1,0.583139080385,2015_Dez_01_1605,P13,PLC_T_D1S1,NHG,60.0117816689,
stim/5.jpg,stim/1.jpg,8,4,5,25,175,8,,,,,,4,1,1.01632803239,2015_Dez_01_1605,P13,PLC_T_D1S1,NHG,60.0117816689,
stim/1.jpg,stim/3.jpg,1,2,5,26,176,0,,,,,,2,1,0.966297456795,2015_Dez_01_1605,P13,PLC_T_D1S1,NHG,60.0117816689,
stim/3.jpg,stim/2.jpg,3,4,5,27,177,15,,,,,,4,1,0.966340406687,2015_Dez_01_1605,P13,PLC_T_D1S1,NHG,60.0117816689,
stim/6.jpg,stim/5.jpg,15,2,5,28,178,24,,,,,,2,1,0.883044747616,2015_Dez_01_1605,P13,PLC_T_D1S1,NHG,60.0117816689,
stim/4.jpg,stim/6.jpg,12,4,5,29,179,27,,,,,,4,1,1.04967900963,2015_Dez_01_1605,P13,PLC_T_D1S1,NHG,60.0117816689,
