symbol2,symbol1,decisionID,correct,block_01.thisRepN,block_01.thisTrialN,block_01.thisN,block_01.thisIndex,mouse.x,mouse.y,mouse.leftButton,mouse.midButton,mouse.rightButton,buttonBox_2.keys,buttonBox_2.corr,buttonBox_2.rt,date,Participant,expName,Group,frameRate,
,,,,,,,,0.9984375,1.0,1,0,0,,,,2015_Dez_03_1644,P15,PLC_T_D1S1,NHG,60.0243633899,
stim/4.jpg,stim/3.jpg,11,2,0,0,0,13,,,,,,4,0,1.36624862369,2015_Dez_03_1644,P15,PLC_T_D1S1,NHG,60.0243633899,
stim/2.jpg,stim/5.jpg,7,2,0,1,1,16,,,,,,2,1,1.66612752686,2015_Dez_03_1644,P15,PLC_T_D1S1,NHG,60.0243633899,
stim/3.jpg,stim/2.jpg,6,4,0,2,2,6,,,,,,4,1,1.23293874482,2015_Dez_03_1644,P15,PLC_T_D1S1,NHG,60.0243633899,
stim/5.jpg,stim/4.jpg,13,2,0,3,3,23,,,,,,2,1,1.04962452914,2015_Dez_03_1644,P15,PLC_T_D1S1,NHG,60.0243633899,
stim/2.jpg,stim/1.jpg,1,2,0,4,4,0,,,,,,2,1,0.949691752694,2015_Dez_03_1644,P15,PLC_T_D1S1,NHG,60.0243633899,
stim/3.jpg,stim/1.jpg,2,2,0,5,5,1,,,,,,4,0,1.01626194991,2015_Dez_03_1644,P15,PLC_T_D1S1,NHG,60.0243633899,
stim/4.jpg,stim/6.jpg,15,4,0,6,6,29,,,,,,4,1,0.999678194901,2015_Dez_03_1644,P15,PLC_T_D1S1,NHG,60.0243633899,
stim/5.jpg,stim/3.jpg,10,2,0,7,7,12,,,,,,2,1,0.983007366862,2015_Dez_03_1644,P15,PLC_T_D1S1,NHG,60.0243633899,
stim/4.jpg,stim/2.jpg,8,4,0,8,8,8,,,,,,4,1,1.13296848595,2015_Dez_03_1644,P15,PLC_T_D1S1,NHG,60.0243633899,
stim/1.jpg,stim/4.jpg,4,4,0,9,9,20,,,,,,2,0,1.43285994241,2015_Dez_03_1644,P15,PLC_T_D1S1,NHG,60.0243633899,
stim/1.jpg,stim/5.jpg,3,4,0,10,10,15,,,,,,4,1,1.48285025526,2015_Dez_03_1644,P15,PLC_T_D1S1,NHG,60.0243633899,
stim/5.jpg,stim/6.jpg,14,2,0,11,11,28,,,,,,None,0,,2015_Dez_03_1644,P15,PLC_T_D1S1,NHG,60.0243633899,
stim/3.jpg,stim/4.jpg,11,4,0,12,12,22,,,,,,4,1,1.18290761423,2015_Dez_03_1644,P15,PLC_T_D1S1,NHG,60.0243633899,
stim/4.jpg,stim/1.jpg,4,2,0,13,13,3,,,,,,4,0,1.31623941173,2015_Dez_03_1644,P15,PLC_T_D1S1,NHG,60.0243633899,
stim/4.jpg,stim/5.jpg,13,4,0,14,14,18,,,,,,4,1,1.16628435275,2015_Dez_03_1644,P15,PLC_T_D1S1,NHG,60.0243633899,
stim/2.jpg,stim/4.jpg,8,2,0,15,15,21,,,,,,2,1,1.01641804798,2015_Dez_03_1644,P15,PLC_T_D1S1,NHG,60.0243633899,
stim/1.jpg,stim/6.jpg,5,4,0,16,16,25,,,,,,4,1,1.06630150751,2015_Dez_03_1644,P15,PLC_T_D1S1,NHG,60.0243633899,
stim/6.jpg,stim/4.jpg,15,2,0,17,17,24,,,,,,2,1,0.849718405125,2015_Dez_03_1644,P15,PLC_T_D1S1,NHG,60.0243633899,
stim/2.jpg,stim/3.jpg,6,2,0,18,18,11,,,,,,2,1,0.899729223089,2015_Dez_03_1644,P15,PLC_T_D1S1,NHG,60.0243633899,
stim/1.jpg,stim/3.jpg,2,4,0,19,19,10,,,,,,2,0,0.78299661807,2015_Dez_03_1644,P15,PLC_T_D1S1,NHG,60.0243633899,
stim/6.jpg,stim/3.jpg,12,2,0,20,20,14,,,,,,2,1,0.699764443876,2015_Dez_03_1644,P15,PLC_T_D1S1,NHG,60.0243633899,
stim/3.jpg,stim/5.jpg,10,4,0,21,21,17,,,,,,4,1,0.799741619988,2015_Dez_03_1644,P15,PLC_T_D1S1,NHG,60.0243633899,
stim/5.jpg,stim/2.jpg,7,4,0,22,22,7,,,,,,4,1,0.999661737882,2015_Dez_03_1644,P15,PLC_T_D1S1,NHG,60.0243633899,
stim/6.jpg,stim/1.jpg,5,2,0,23,23,4,,,,,,2,1,0.983015851009,2015_Dez_03_1644,P15,PLC_T_D1S1,NHG,60.0243633899,
stim/3.jpg,stim/6.jpg,12,4,0,24,24,27,,,,,,4,1,0.733107742047,2015_Dez_03_1644,P15,PLC_T_D1S1,NHG,60.0243633899,
stim/1.jpg,stim/2.jpg,1,4,0,25,25,5,,,,,,4,1,1.06631035255,2015_Dez_03_1644,P15,PLC_T_D1S1,NHG,60.0243633899,
stim/2.jpg,stim/6.jpg,9,2,0,26,26,26,,,,,,4,0,1.28290172856,2015_Dez_03_1644,P15,PLC_T_D1S1,NHG,60.0243633899,
stim/6.jpg,stim/5.jpg,14,4,0,27,27,19,,,,,,4,1,1.29959239103,2015_Dez_03_1644,P15,PLC_T_D1S1,NHG,60.0243633899,
stim/5.jpg,stim/1.jpg,3,2,0,28,28,2,,,,,,2,1,1.56614902444,2015_Dez_03_1644,P15,PLC_T_D1S1,NHG,60.0243633899,
stim/6.jpg,stim/2.jpg,9,4,0,29,29,9,,,,,,4,1,1.63278679709,2015_Dez_03_1644,P15,PLC_T_D1S1,NHG,60.0243633899,
stim/3.jpg,stim/5.jpg,10,4,1,0,30,17,,,,,,4,1,1.13293631477,2015_Dez_03_1644,P15,PLC_T_D1S1,NHG,60.0243633899,
stim/1.jpg,stim/6.jpg,5,4,1,1,31,25,,,,,,4,1,1.21628830159,2015_Dez_03_1644,P15,PLC_T_D1S1,NHG,60.0243633899,
stim/4.jpg,stim/1.jpg,4,2,1,2,32,3,,,,,,4,0,1.06631809385,2015_Dez_03_1644,P15,PLC_T_D1S1,NHG,60.0243633899,
stim/2.jpg,stim/1.jpg,1,2,1,3,33,0,,,,,,2,1,1.04960019248,2015_Dez_03_1644,P15,PLC_T_D1S1,NHG,60.0243633899,
stim/3.jpg,stim/1.jpg,2,2,1,4,34,1,,,,,,4,0,1.29956656266,2015_Dez_03_1644,P15,PLC_T_D1S1,NHG,60.0243633899,
stim/4.jpg,stim/5.jpg,13,4,1,5,35,18,,,,,,4,1,1.04966180405,2015_Dez_03_1644,P15,PLC_T_D1S1,NHG,60.0243633899,
stim/6.jpg,stim/4.jpg,15,2,1,6,36,24,,,,,,2,1,0.982992783513,2015_Dez_03_1644,P15,PLC_T_D1S1,NHG,60.0243633899,
stim/2.jpg,stim/5.jpg,7,2,1,7,37,16,,,,,,2,1,0.949683199375,2015_Dez_03_1644,P15,PLC_T_D1S1,NHG,60.0243633899,
stim/3.jpg,stim/4.jpg,11,4,1,8,38,22,,,,,,4,1,1.21627799189,2015_Dez_03_1644,P15,PLC_T_D1S1,NHG,60.0243633899,
stim/2.jpg,stim/3.jpg,6,2,1,9,39,11,,,,,,2,1,0.999671734799,2015_Dez_03_1644,P15,PLC_T_D1S1,NHG,60.0243633899,
stim/2.jpg,stim/4.jpg,8,2,1,10,40,21,,,,,,2,1,1.14962391561,2015_Dez_03_1644,P15,PLC_T_D1S1,NHG,60.0243633899,
stim/5.jpg,stim/1.jpg,3,2,1,11,41,2,,,,,,2,1,1.13298769784,2015_Dez_03_1644,P15,PLC_T_D1S1,NHG,60.0243633899,
stim/6.jpg,stim/5.jpg,14,4,1,12,42,19,,,,,,None,0,,2015_Dez_03_1644,P15,PLC_T_D1S1,NHG,60.0243633899,
stim/5.jpg,stim/3.jpg,10,2,1,13,43,12,,,,,,2,1,0.749780738491,2015_Dez_03_1644,P15,PLC_T_D1S1,NHG,60.0243633899,
stim/3.jpg,stim/2.jpg,6,4,1,14,44,6,,,,,,4,1,0.666432114044,2015_Dez_03_1644,P15,PLC_T_D1S1,NHG,60.0243633899,
stim/4.jpg,stim/3.jpg,11,2,1,15,45,13,,,,,,2,1,0.833060214584,2015_Dez_03_1644,P15,PLC_T_D1S1,NHG,60.0243633899,
stim/2.jpg,stim/6.jpg,9,2,1,16,46,26,,,,,,4,0,1.39952940805,2015_Dez_03_1644,P15,PLC_T_D1S1,NHG,60.0243633899,
stim/6.jpg,stim/3.jpg,12,2,1,17,47,14,,,,,,2,1,0.916290791798,2015_Dez_03_1644,P15,PLC_T_D1S1,NHG,60.0243633899,
stim/5.jpg,stim/2.jpg,7,4,1,18,48,7,,,,,,2,0,1.01632467726,2015_Dez_03_1644,P15,PLC_T_D1S1,NHG,60.0243633899,
stim/1.jpg,stim/2.jpg,1,4,1,19,49,5,,,,,,4,1,0.933004771393,2015_Dez_03_1644,P15,PLC_T_D1S1,NHG,60.0243633899,
stim/1.jpg,stim/5.jpg,3,4,1,20,50,15,,,,,,4,1,1.11631455403,2015_Dez_03_1644,P15,PLC_T_D1S1,NHG,60.0243633899,
stim/6.jpg,stim/2.jpg,9,4,1,21,51,9,,,,,,4,1,1.44951540816,2015_Dez_03_1644,P15,PLC_T_D1S1,NHG,60.0243633899,
stim/4.jpg,stim/2.jpg,8,4,1,22,52,8,,,,,,4,1,1.09963367193,2015_Dez_03_1644,P15,PLC_T_D1S1,NHG,60.0243633899,
stim/1.jpg,stim/4.jpg,4,4,1,23,53,20,,,,,,4,1,1.38288346403,2015_Dez_03_1644,P15,PLC_T_D1S1,NHG,60.0243633899,
stim/4.jpg,stim/6.jpg,15,4,1,24,54,29,,,,,,4,1,0.833042115472,2015_Dez_03_1644,P15,PLC_T_D1S1,NHG,60.0243633899,
stim/6.jpg,stim/1.jpg,5,2,1,25,55,4,,,,,,2,1,1.01631147435,2015_Dez_03_1644,P15,PLC_T_D1S1,NHG,60.0243633899,
stim/5.jpg,stim/6.jpg,14,2,1,26,56,28,,,,,,2,1,0.983040596688,2015_Dez_03_1644,P15,PLC_T_D1S1,NHG,60.0243633899,
stim/5.jpg,stim/4.jpg,13,2,1,27,57,23,,,,,,2,1,0.849730167442,2015_Dez_03_1644,P15,PLC_T_D1S1,NHG,60.0243633899,
stim/3.jpg,stim/6.jpg,12,4,1,28,58,27,,,,,,4,1,0.683042115474,2015_Dez_03_1644,P15,PLC_T_D1S1,NHG,60.0243633899,
stim/1.jpg,stim/3.jpg,2,4,1,29,59,10,,,,,,2,0,0.549793024112,2015_Dez_03_1644,P15,PLC_T_D1S1,NHG,60.0243633899,
stim/5.jpg,stim/6.jpg,14,2,2,0,60,28,,,,,,4,0,0.866395615071,2015_Dez_03_1644,P15,PLC_T_D1S1,NHG,60.0243633899,
stim/1.jpg,stim/6.jpg,5,4,2,1,61,25,,,,,,4,1,1.06632713138,2015_Dez_03_1644,P15,PLC_T_D1S1,NHG,60.0243633899,
stim/4.jpg,stim/3.jpg,11,2,2,2,62,13,,,,,,2,1,0.76638466177,2015_Dez_03_1644,P15,PLC_T_D1S1,NHG,60.0243633899,
stim/4.jpg,stim/2.jpg,8,4,2,3,63,8,,,,,,4,1,1.08300551424,2015_Dez_03_1644,P15,PLC_T_D1S1,NHG,60.0243633899,
stim/3.jpg,stim/4.jpg,11,4,2,4,64,22,,,,,,4,1,1.09962664942,2015_Dez_03_1644,P15,PLC_T_D1S1,NHG,60.0243633899,
stim/3.jpg,stim/6.jpg,12,4,2,5,65,27,,,,,,4,1,0.799725123871,2015_Dez_03_1644,P15,PLC_T_D1S1,NHG,60.0243633899,
stim/4.jpg,stim/1.jpg,4,2,2,6,66,3,,,,,,4,0,1.11633971173,2015_Dez_03_1644,P15,PLC_T_D1S1,NHG,60.0243633899,
stim/5.jpg,stim/1.jpg,3,2,2,7,67,2,,,,,,2,1,1.03301346907,2015_Dez_03_1644,P15,PLC_T_D1S1,NHG,60.0243633899,
stim/4.jpg,stim/5.jpg,13,4,2,8,68,18,,,,,,4,1,1.29959476996,2015_Dez_03_1644,P15,PLC_T_D1S1,NHG,60.0243633899,
stim/6.jpg,stim/2.jpg,9,4,2,9,69,9,,,,,,2,0,1.28288538282,2015_Dez_03_1644,P15,PLC_T_D1S1,NHG,60.0243633899,
stim/4.jpg,stim/6.jpg,15,4,2,10,70,29,,,,,,4,1,0.699684576808,2015_Dez_03_1644,P15,PLC_T_D1S1,NHG,60.0243633899,
stim/1.jpg,stim/4.jpg,4,4,2,11,71,20,,,,,,2,0,0.666428634371,2015_Dez_03_1644,P15,PLC_T_D1S1,NHG,60.0243633899,
stim/3.jpg,stim/2.jpg,6,4,2,12,72,6,,,,,,4,1,0.866379503913,2015_Dez_03_1644,P15,PLC_T_D1S1,NHG,60.0243633899,
stim/2.jpg,stim/1.jpg,1,2,2,13,73,0,,,,,,2,1,1.04964930189,2015_Dez_03_1644,P15,PLC_T_D1S1,NHG,60.0243633899,
stim/2.jpg,stim/6.jpg,9,2,2,14,74,26,,,,,,4,0,1.08297972797,2015_Dez_03_1644,P15,PLC_T_D1S1,NHG,60.0243633899,
stim/5.jpg,stim/4.jpg,13,2,2,15,75,23,,,,,,2,1,1.19961060443,2015_Dez_03_1644,P15,PLC_T_D1S1,NHG,60.0243633899,
stim/3.jpg,stim/1.jpg,2,2,2,16,76,1,,,,,,4,0,0.583131441117,2015_Dez_03_1644,P15,PLC_T_D1S1,NHG,60.0243633899,
stim/2.jpg,stim/4.jpg,8,2,2,17,77,21,,,,,,2,1,0.76633483658,2015_Dez_03_1644,P15,PLC_T_D1S1,NHG,60.0243633899,
stim/6.jpg,stim/4.jpg,15,2,2,18,78,24,,,,,,2,1,0.683171314501,2015_Dez_03_1644,P15,PLC_T_D1S1,NHG,60.0243633899,
stim/1.jpg,stim/5.jpg,3,4,2,19,79,15,,,,,,4,1,1.21627722198,2015_Dez_03_1644,P15,PLC_T_D1S1,NHG,60.0243633899,
stim/3.jpg,stim/5.jpg,10,4,2,20,80,17,,,,,,4,1,1.366205415,2015_Dez_03_1644,P15,PLC_T_D1S1,NHG,60.0243633899,
stim/1.jpg,stim/3.jpg,2,4,2,21,81,10,,,,,,2,0,0.633179729476,2015_Dez_03_1644,P15,PLC_T_D1S1,NHG,60.0243633899,
stim/6.jpg,stim/3.jpg,12,2,2,22,82,14,,,,,,2,1,0.916366989722,2015_Dez_03_1644,P15,PLC_T_D1S1,NHG,60.0243633899,
stim/6.jpg,stim/5.jpg,14,4,2,23,83,19,,,,,,4,1,1.26626666867,2015_Dez_03_1644,P15,PLC_T_D1S1,NHG,60.0243633899,
stim/2.jpg,stim/3.jpg,6,2,2,24,84,11,,,,,,2,1,0.649809556319,2015_Dez_03_1644,P15,PLC_T_D1S1,NHG,60.0243633899,
stim/1.jpg,stim/2.jpg,1,4,2,25,85,5,,,,,,4,1,0.916362556673,2015_Dez_03_1644,P15,PLC_T_D1S1,NHG,60.0243633899,
stim/2.jpg,stim/5.jpg,7,2,2,26,86,16,,,,,,2,1,1.14961257434,2015_Dez_03_1644,P15,PLC_T_D1S1,NHG,60.0243633899,
stim/5.jpg,stim/2.jpg,7,4,2,27,87,7,,,,,,4,1,1.13295232367,2015_Dez_03_1644,P15,PLC_T_D1S1,NHG,60.0243633899,
stim/5.jpg,stim/3.jpg,10,2,2,28,88,12,,,,,,2,1,0.749761090518,2015_Dez_03_1644,P15,PLC_T_D1S1,NHG,60.0243633899,
stim/6.jpg,stim/1.jpg,5,2,2,29,89,4,,,,,,2,1,1.01626203713,2015_Dez_03_1644,P15,PLC_T_D1S1,NHG,60.0243633899,
stim/3.jpg,stim/4.jpg,11,4,3,0,90,22,,,,,,4,1,1.13294791167,2015_Dez_03_1644,P15,PLC_T_D1S1,NHG,60.0243633899,
stim/6.jpg,stim/3.jpg,12,2,3,1,91,14,,,,,,2,1,0.866364761167,2015_Dez_03_1644,P15,PLC_T_D1S1,NHG,60.0243633899,
stim/3.jpg,stim/5.jpg,10,4,3,2,92,17,,,,,,4,1,0.816384914399,2015_Dez_03_1644,P15,PLC_T_D1S1,NHG,60.0243633899,
stim/3.jpg,stim/2.jpg,6,4,3,3,93,6,,,,,,4,1,0.799727307313,2015_Dez_03_1644,P15,PLC_T_D1S1,NHG,60.0243633899,
stim/4.jpg,stim/5.jpg,13,4,3,4,94,18,,,,,,4,1,0.983014067563,2015_Dez_03_1644,P15,PLC_T_D1S1,NHG,60.0243633899,
stim/6.jpg,stim/2.jpg,9,4,3,5,95,9,,,,,,4,1,0.999661500289,2015_Dez_03_1644,P15,PLC_T_D1S1,NHG,60.0243633899,
stim/4.jpg,stim/6.jpg,15,4,3,6,96,29,,,,,,4,1,0.89971115706,2015_Dez_03_1644,P15,PLC_T_D1S1,NHG,60.0243633899,
stim/6.jpg,stim/1.jpg,5,2,3,7,97,4,,,,,,2,1,1.18294357185,2015_Dez_03_1644,P15,PLC_T_D1S1,NHG,60.0243633899,
stim/5.jpg,stim/6.jpg,14,2,3,8,98,28,,,,,,2,1,1.08303485538,2015_Dez_03_1644,P15,PLC_T_D1S1,NHG,60.0243633899,
stim/1.jpg,stim/4.jpg,4,4,3,9,99,20,,,,,,2,0,0.766410381877,2015_Dez_03_1644,P15,PLC_T_D1S1,NHG,60.0243633899,
stim/6.jpg,stim/4.jpg,15,2,3,10,100,24,,,,,,2,1,1.03300655183,2015_Dez_03_1644,P15,PLC_T_D1S1,NHG,60.0243633899,
stim/3.jpg,stim/1.jpg,2,2,3,11,101,1,,,,,,4,0,0.849699139105,2015_Dez_03_1644,P15,PLC_T_D1S1,NHG,60.0243633899,
stim/1.jpg,stim/2.jpg,1,4,3,12,102,5,,,,,,4,1,0.899719884814,2015_Dez_03_1644,P15,PLC_T_D1S1,NHG,60.0243633899,
stim/5.jpg,stim/1.jpg,3,2,3,13,103,2,,,,,,4,0,1.31625068082,2015_Dez_03_1644,P15,PLC_T_D1S1,NHG,60.0243633899,
stim/4.jpg,stim/3.jpg,11,2,3,14,104,13,,,,,,4,0,0.749757168744,2015_Dez_03_1644,P15,PLC_T_D1S1,NHG,60.0243633899,
stim/3.jpg,stim/6.jpg,12,4,3,15,105,27,,,,,,4,1,0.833050710898,2015_Dez_03_1644,P15,PLC_T_D1S1,NHG,60.0243633899,
stim/2.jpg,stim/5.jpg,7,2,3,16,106,16,,,,,,2,1,1.16628825347,2015_Dez_03_1644,P15,PLC_T_D1S1,NHG,60.0243633899,
stim/2.jpg,stim/4.jpg,8,2,3,17,107,21,,,,,,2,1,1.24956848144,2015_Dez_03_1644,P15,PLC_T_D1S1,NHG,60.0243633899,
stim/4.jpg,stim/1.jpg,4,2,3,18,108,3,,,,,,4,0,0.91637213254,2015_Dez_03_1644,P15,PLC_T_D1S1,NHG,60.0243633899,
stim/4.jpg,stim/2.jpg,8,4,3,19,109,8,,,,,,4,1,1.04967079345,2015_Dez_03_1644,P15,PLC_T_D1S1,NHG,60.0243633899,
stim/5.jpg,stim/4.jpg,13,2,3,20,110,23,,,,,,2,1,0.982975508455,2015_Dez_03_1644,P15,PLC_T_D1S1,NHG,60.0243633899,
stim/2.jpg,stim/3.jpg,6,2,3,21,111,11,,,,,,2,1,0.716453497343,2015_Dez_03_1644,P15,PLC_T_D1S1,NHG,60.0243633899,
stim/1.jpg,stim/5.jpg,3,4,3,22,112,15,,,,,,2,0,1.11628948655,2015_Dez_03_1644,P15,PLC_T_D1S1,NHG,60.0243633899,
stim/5.jpg,stim/3.jpg,10,2,3,23,113,12,,,,,,2,1,0.733106421756,2015_Dez_03_1644,P15,PLC_T_D1S1,NHG,60.0243633899,
stim/1.jpg,stim/3.jpg,2,4,3,24,114,10,,,,,,2,0,0.699781102398,2015_Dez_03_1644,P15,PLC_T_D1S1,NHG,60.0243633899,
stim/2.jpg,stim/6.jpg,9,2,3,25,115,26,,,,,,2,1,1.1662636702,2015_Dez_03_1644,P15,PLC_T_D1S1,NHG,60.0243633899,
stim/5.jpg,stim/2.jpg,7,4,3,26,116,7,,,,,,4,1,0.81635268607,2015_Dez_03_1644,P15,PLC_T_D1S1,NHG,60.0243633899,
stim/6.jpg,stim/5.jpg,14,4,3,27,117,19,,,,,,2,0,0.916363654408,2015_Dez_03_1644,P15,PLC_T_D1S1,NHG,60.0243633899,
stim/1.jpg,stim/6.jpg,5,4,3,28,118,25,,,,,,4,1,1.28296648296,2015_Dez_03_1644,P15,PLC_T_D1S1,NHG,60.0243633899,
stim/2.jpg,stim/1.jpg,1,2,3,29,119,0,,,,,,2,1,1.38288899783,2015_Dez_03_1644,P15,PLC_T_D1S1,NHG,60.0243633899,
stim/2.jpg,stim/3.jpg,6,2,4,0,120,11,,,,,,2,1,0.883041995173,2015_Dez_03_1644,P15,PLC_T_D1S1,NHG,60.0243633899,
stim/5.jpg,stim/1.jpg,3,2,4,1,121,2,,,,,,4,0,1.08292055849,2015_Dez_03_1644,P15,PLC_T_D1S1,NHG,60.0243633899,
stim/3.jpg,stim/6.jpg,12,4,4,2,122,27,,,,,,4,1,0.749743045541,2015_Dez_03_1644,P15,PLC_T_D1S1,NHG,60.0243633899,
stim/4.jpg,stim/6.jpg,15,4,4,3,123,29,,,,,,4,1,1.04967159645,2015_Dez_03_1644,P15,PLC_T_D1S1,NHG,60.0243633899,
stim/3.jpg,stim/1.jpg,2,2,4,4,124,1,,,,,,4,0,0.849669692709,2015_Dez_03_1644,P15,PLC_T_D1S1,NHG,60.0243633899,
stim/1.jpg,stim/3.jpg,2,4,4,5,125,10,,,,,,2,0,0.86639383764,2015_Dez_03_1644,P15,PLC_T_D1S1,NHG,60.0243633899,
stim/5.jpg,stim/2.jpg,7,4,4,6,126,7,,,,,,4,1,1.08296611604,2015_Dez_03_1644,P15,PLC_T_D1S1,NHG,60.0243633899,
stim/2.jpg,stim/5.jpg,7,2,4,7,127,16,,,,,,2,1,1.0496510312,2015_Dez_03_1644,P15,PLC_T_D1S1,NHG,60.0243633899,
stim/2.jpg,stim/1.jpg,1,2,4,8,128,0,,,,,,2,1,1.04963698017,2015_Dez_03_1644,P15,PLC_T_D1S1,NHG,60.0243633899,
stim/6.jpg,stim/2.jpg,9,4,4,9,129,9,,,,,,2,0,1.33290889542,2015_Dez_03_1644,P15,PLC_T_D1S1,NHG,60.0243633899,
stim/3.jpg,stim/4.jpg,11,4,4,10,130,22,,,,,,4,1,1.03297718964,2015_Dez_03_1644,P15,PLC_T_D1S1,NHG,60.0243633899,
stim/3.jpg,stim/2.jpg,6,4,4,11,131,6,,,,,,4,1,0.716435082442,2015_Dez_03_1644,P15,PLC_T_D1S1,NHG,60.0243633899,
stim/2.jpg,stim/4.jpg,8,2,4,12,132,21,,,,,,2,1,1.14962167803,2015_Dez_03_1644,P15,PLC_T_D1S1,NHG,60.0243633899,
stim/6.jpg,stim/4.jpg,15,2,4,13,133,24,,,,,,2,1,1.28289680228,2015_Dez_03_1644,P15,PLC_T_D1S1,NHG,60.0243633899,
stim/6.jpg,stim/3.jpg,12,2,4,14,134,14,,,,,,2,1,1.04966032436,2015_Dez_03_1644,P15,PLC_T_D1S1,NHG,60.0243633899,
stim/4.jpg,stim/2.jpg,8,4,4,15,135,8,,,,,,4,1,0.949679812933,2015_Dez_03_1644,P15,PLC_T_D1S1,NHG,60.0243633899,
stim/3.jpg,stim/5.jpg,10,4,4,16,136,17,,,,,,4,1,1.06631773295,2015_Dez_03_1644,P15,PLC_T_D1S1,NHG,60.0243633899,
stim/1.jpg,stim/4.jpg,4,4,4,17,137,20,,,,,,2,0,0.899701713521,2015_Dez_03_1644,P15,PLC_T_D1S1,NHG,60.0243633899,
stim/6.jpg,stim/1.jpg,5,2,4,18,138,4,,,,,,2,1,1.16623726438,2015_Dez_03_1644,P15,PLC_T_D1S1,NHG,60.0243633899,
stim/5.jpg,stim/3.jpg,10,2,4,19,139,12,,,,,,4,0,0.983004608987,2015_Dez_03_1644,P15,PLC_T_D1S1,NHG,60.0243633899,
stim/1.jpg,stim/6.jpg,5,4,4,20,140,25,,,,,,4,1,0.883023661477,2015_Dez_03_1644,P15,PLC_T_D1S1,NHG,60.0243633899,
stim/6.jpg,stim/5.jpg,14,4,4,21,141,19,,,,,,2,0,0.849717412651,2015_Dez_03_1644,P15,PLC_T_D1S1,NHG,60.0243633899,
stim/5.jpg,stim/4.jpg,13,2,4,22,142,23,,,,,,2,1,0.916366144615,2015_Dez_03_1644,P15,PLC_T_D1S1,NHG,60.0243633899,
stim/5.jpg,stim/6.jpg,14,2,4,23,143,28,,,,,,4,0,1.11631932391,2015_Dez_03_1644,P15,PLC_T_D1S1,NHG,60.0243633899,
stim/2.jpg,stim/6.jpg,9,2,4,24,144,26,,,,,,2,1,1.08297477463,2015_Dez_03_1644,P15,PLC_T_D1S1,NHG,60.0243633899,
stim/1.jpg,stim/2.jpg,1,4,4,25,145,5,,,,,,4,1,1.01626350779,2015_Dez_03_1644,P15,PLC_T_D1S1,NHG,60.0243633899,
stim/4.jpg,stim/3.jpg,11,2,4,26,146,13,,,,,,4,0,0.91635699882,2015_Dez_03_1644,P15,PLC_T_D1S1,NHG,60.0243633899,
stim/4.jpg,stim/1.jpg,4,2,4,27,147,3,,,,,,4,0,1.11630298118,2015_Dez_03_1644,P15,PLC_T_D1S1,NHG,60.0243633899,
stim/4.jpg,stim/5.jpg,13,4,4,28,148,18,,,,,,4,1,0.999645157555,2015_Dez_03_1644,P15,PLC_T_D1S1,NHG,60.0243633899,
stim/1.jpg,stim/5.jpg,3,4,4,29,149,15,,,,,,2,0,1.1496117563,2015_Dez_03_1644,P15,PLC_T_D1S1,NHG,60.0243633899,
stim/6.jpg,stim/1.jpg,5,2,5,0,150,4,,,,,,2,1,1.04965401463,2015_Dez_03_1644,P15,PLC_T_D1S1,NHG,60.0243633899,
stim/3.jpg,stim/1.jpg,2,2,5,1,151,1,,,,,,4,0,0.749758464975,2015_Dez_03_1644,P15,PLC_T_D1S1,NHG,60.0243633899,
stim/5.jpg,stim/3.jpg,10,2,5,2,152,12,,,,,,2,1,0.74972183367,2015_Dez_03_1644,P15,PLC_T_D1S1,NHG,60.0243633899,
stim/4.jpg,stim/3.jpg,11,2,5,3,153,13,,,,,,2,1,0.733111808181,2015_Dez_03_1644,P15,PLC_T_D1S1,NHG,60.0243633899,
stim/4.jpg,stim/6.jpg,15,4,5,4,154,29,,,,,,4,1,0.933033471929,2015_Dez_03_1644,P15,PLC_T_D1S1,NHG,60.0243633899,
stim/3.jpg,stim/4.jpg,11,4,5,5,155,22,,,,,,4,1,0.883065555898,2015_Dez_03_1644,P15,PLC_T_D1S1,NHG,60.0243633899,
stim/5.jpg,stim/2.jpg,7,4,5,6,156,7,,,,,,4,1,0.933026097548,2015_Dez_03_1644,P15,PLC_T_D1S1,NHG,60.0243633899,
stim/6.jpg,stim/5.jpg,14,4,5,7,157,19,,,,,,2,0,0.816416736717,2015_Dez_03_1644,P15,PLC_T_D1S1,NHG,60.0243633899,
stim/4.jpg,stim/2.jpg,8,4,5,8,158,8,,,,,,4,1,0.966329793008,2015_Dez_03_1644,P15,PLC_T_D1S1,NHG,60.0243633899,
stim/3.jpg,stim/5.jpg,10,4,5,9,159,17,,,,,,4,1,1.31624133653,2015_Dez_03_1644,P15,PLC_T_D1S1,NHG,60.0243633899,
stim/5.jpg,stim/4.jpg,13,2,5,10,160,23,,,,,,2,1,1.58286847467,2015_Dez_03_1644,P15,PLC_T_D1S1,NHG,60.0243633899,
stim/5.jpg,stim/1.jpg,3,2,5,11,161,2,,,,,,2,1,1.64943770949,2015_Dez_03_1644,P15,PLC_T_D1S1,NHG,60.0243633899,
stim/2.jpg,stim/5.jpg,7,2,5,12,162,16,,,,,,None,0,,2015_Dez_03_1644,P15,PLC_T_D1S1,NHG,60.0243633899,
stim/1.jpg,stim/4.jpg,4,4,5,13,163,20,,,,,,2,0,1.38285885971,2015_Dez_03_1644,P15,PLC_T_D1S1,NHG,60.0243633899,
stim/5.jpg,stim/6.jpg,14,2,5,14,164,28,,,,,,4,0,1.43286148826,2015_Dez_03_1644,P15,PLC_T_D1S1,NHG,60.0243633899,
stim/2.jpg,stim/3.jpg,6,2,5,15,165,11,,,,,,2,1,1.04962691108,2015_Dez_03_1644,P15,PLC_T_D1S1,NHG,60.0243633899,
stim/3.jpg,stim/6.jpg,12,4,5,16,166,27,,,,,,4,1,0.93302811257,2015_Dez_03_1644,P15,PLC_T_D1S1,NHG,60.0243633899,
stim/2.jpg,stim/4.jpg,8,2,5,17,167,21,,,,,,2,1,0.849708730009,2015_Dez_03_1644,P15,PLC_T_D1S1,NHG,60.0243633899,
stim/1.jpg,stim/3.jpg,2,4,5,18,168,10,,,,,,2,0,0.849737818513,2015_Dez_03_1644,P15,PLC_T_D1S1,NHG,60.0243633899,
stim/1.jpg,stim/5.jpg,3,4,5,19,169,15,,,,,,2,0,1.19961913068,2015_Dez_03_1644,P15,PLC_T_D1S1,NHG,60.0243633899,
stim/4.jpg,stim/1.jpg,4,2,5,20,170,3,,,,,,4,0,1.1829787355,2015_Dez_03_1644,P15,PLC_T_D1S1,NHG,60.0243633899,
stim/2.jpg,stim/1.jpg,1,2,5,21,171,0,,,,,,2,1,1.11628362193,2015_Dez_03_1644,P15,PLC_T_D1S1,NHG,60.0243633899,
stim/3.jpg,stim/2.jpg,6,4,5,22,172,6,,,,,,4,1,0.633147450019,2015_Dez_03_1644,P15,PLC_T_D1S1,NHG,60.0243633899,
stim/6.jpg,stim/4.jpg,15,2,5,23,173,24,,,,,,2,1,0.816402324795,2015_Dez_03_1644,P15,PLC_T_D1S1,NHG,60.0243633899,
stim/4.jpg,stim/5.jpg,13,4,5,24,174,18,,,,,,4,1,0.89967097691,2015_Dez_03_1644,P15,PLC_T_D1S1,NHG,60.0243633899,
stim/1.jpg,stim/6.jpg,5,4,5,25,175,25,,,,,,None,0,,2015_Dez_03_1644,P15,PLC_T_D1S1,NHG,60.0243633899,
stim/1.jpg,stim/2.jpg,1,4,5,26,176,5,,,,,,4,1,0.916296472958,2015_Dez_03_1644,P15,PLC_T_D1S1,NHG,60.0243633899,
stim/6.jpg,stim/2.jpg,9,4,5,27,177,9,,,,,,4,1,1.01627340847,2015_Dez_03_1644,P15,PLC_T_D1S1,NHG,60.0243633899,
stim/6.jpg,stim/3.jpg,12,2,5,28,178,14,,,,,,2,1,0.93301822693,2015_Dez_03_1644,P15,PLC_T_D1S1,NHG,60.0243633899,
stim/2.jpg,stim/6.jpg,9,2,5,29,179,26,,,,,,4,0,1.44952694792,2015_Dez_03_1644,P15,PLC_T_D1S1,NHG,60.0243633899,
